df_hash,22ZHK4.JPPQDU
device,HZ2X61
project_hash,29R7
project_name,istanbul_aydin_university
person_hash,29R7.U6PK
person_label,V61
date_time_start,2025-10-31_15-57-37.375000_+03
date_time_start_unix,1761911857.375
date_time_end,2025-10-31_16-06-24.462000_+03
length_difference_noticed,no

time,acc_x,acc_y,acc_z
4.750,-0.557,0.814,-0.182
4.760,-0.557,0.814,-0.182
4.770,-0.557,0.816,-0.188
4.780,-0.559,0.814,-0.182
4.790,-0.555,0.814,-0.184
4.800,-0.555,0.814,-0.182
4.810,-0.557,0.814,-0.180
4.820,-0.557,0.818,-0.182
4.830,-0.555,0.824,-0.180
4.840,-0.549,0.812,-0.182
4.850,-0.551,0.811,-0.182
4.860,-0.553,0.811,-0.182
4.870,-0.555,0.812,-0.182
4.879,-0.553,0.818,-0.180
4.889,-0.555,0.822,-0.184
4.899,-0.553,0.820,-0.182
4.909,-0.555,0.820,-0.180
4.919,-0.557,0.820,-0.184
4.929,-0.553,0.816,-0.184
4.939,-0.555,0.814,-0.186
4.949,-0.551,0.811,-0.182
4.959,-0.555,0.816,-0.182
4.969,-0.553,0.816,-0.182
4.979,-0.553,0.816,-0.186
4.989,-0.553,0.818,-0.186
4.999,-0.557,0.814,-0.184
5.009,-0.557,0.814,-0.184
5.018,-0.555,0.811,-0.186
5.028,-0.555,0.812,-0.186
5.038,-0.555,0.812,-0.186
5.048,-0.559,0.809,-0.184
5.058,-0.557,0.812,-0.188
5.068,-0.557,0.814,-0.186
5.078,-0.557,0.812,-0.186
5.088,-0.555,0.814,-0.184
5.098,-0.555,0.816,-0.186
5.108,-0.553,0.816,-0.182
5.118,-0.553,0.816,-0.186
5.128,-0.555,0.816,-0.184
5.138,-0.553,0.818,-0.188
5.148,-0.555,0.814,-0.184
5.158,-0.555,0.816,-0.184
5.167,-0.553,0.816,-0.184
5.177,-0.555,0.816,-0.184
5.187,-0.557,0.818,-0.182
5.197,-0.559,0.816,-0.186
5.207,-0.559,0.816,-0.186
5.217,-0.557,0.812,-0.184
5.227,-0.555,0.814,-0.184
5.237,-0.557,0.811,-0.188
5.247,-0.557,0.812,-0.184
5.257,-0.557,0.811,-0.182
5.267,-0.557,0.812,-0.184
5.277,-0.555,0.814,-0.182
5.287,-0.555,0.812,-0.184
5.297,-0.557,0.812,-0.186
5.306,-0.557,0.811,-0.186
5.316,-0.559,0.814,-0.186
5.326,-0.557,0.814,-0.184
5.336,-0.555,0.818,-0.184
5.346,-0.553,0.818,-0.186
5.356,-0.557,0.818,-0.184
5.366,-0.557,0.816,-0.184
5.376,-0.557,0.818,-0.182
5.386,-0.555,0.812,-0.184
5.396,-0.551,0.816,-0.186
5.406,-0.551,0.818,-0.184
5.416,-0.553,0.822,-0.180
5.426,-0.551,0.822,-0.180
5.436,-0.549,0.820,-0.180
5.446,-0.553,0.818,-0.182
5.455,-0.559,0.812,-0.184
5.465,-0.561,0.812,-0.186
5.475,-0.561,0.809,-0.182
5.485,-0.559,0.812,-0.182
5.495,-0.561,0.811,-0.182
5.505,-0.559,0.812,-0.182
5.515,-0.562,0.811,-0.178
5.525,-0.566,0.811,-0.182
5.535,-0.561,0.812,-0.182
5.545,-0.559,0.814,-0.182
5.555,-0.559,0.811,-0.184
5.565,-0.555,0.811,-0.178
5.575,-0.553,0.811,-0.180
5.585,-0.553,0.812,-0.182
5.594,-0.555,0.814,-0.180
5.604,-0.557,0.812,-0.180
5.614,-0.559,0.814,-0.178
5.624,-0.557,0.812,-0.180
5.634,-0.561,0.812,-0.184
5.644,-0.557,0.816,-0.182
5.654,-0.559,0.812,-0.182
5.664,-0.559,0.814,-0.180
5.674,-0.559,0.818,-0.182
5.684,-0.557,0.816,-0.186
5.694,-0.553,0.818,-0.180
5.704,-0.553,0.812,-0.184
5.714,-0.551,0.814,-0.182
5.724,-0.551,0.816,-0.186
5.734,-0.553,0.818,-0.186
5.743,-0.555,0.820,-0.182
5.753,-0.553,0.822,-0.182
5.763,-0.553,0.816,-0.182
5.773,-0.553,0.820,-0.186
5.783,-0.553,0.818,-0.184
5.793,-0.555,0.816,-0.182
5.803,-0.553,0.814,-0.184
5.813,-0.555,0.814,-0.182
5.823,-0.553,0.812,-0.186
5.833,-0.557,0.818,-0.184
5.843,-0.551,0.816,-0.184
5.853,-0.555,0.816,-0.184
5.863,-0.551,0.816,-0.182
5.873,-0.553,0.818,-0.182
5.882,-0.551,0.818,-0.180
5.892,-0.551,0.814,-0.186
5.902,-0.553,0.814,-0.186
5.912,-0.557,0.816,-0.186
5.922,-0.557,0.814,-0.184
5.932,-0.561,0.816,-0.188
5.942,-0.557,0.816,-0.184
5.952,-0.555,0.818,-0.182
5.962,-0.555,0.820,-0.184
5.972,-0.553,0.820,-0.184
5.982,-0.555,0.818,-0.182
5.992,-0.553,0.820,-0.184
6.002,-0.553,0.814,-0.186
6.012,-0.555,0.818,-0.184
6.022,-0.557,0.818,-0.184
6.031,-0.559,0.816,-0.180
6.041,-0.559,0.816,-0.182
6.051,-0.557,0.816,-0.184
6.061,-0.557,0.816,-0.182
6.071,-0.557,0.814,-0.184
6.081,-0.557,0.816,-0.184
6.091,-0.555,0.814,-0.182
6.101,-0.557,0.812,-0.184
6.111,-0.555,0.816,-0.182
6.121,-0.557,0.814,-0.182
6.131,-0.557,0.814,-0.182
6.141,-0.555,0.814,-0.180
6.151,-0.555,0.814,-0.182
6.161,-0.553,0.814,-0.182
6.171,-0.553,0.814,-0.182
6.180,-0.557,0.814,-0.182
6.190,-0.555,0.816,-0.182
6.200,-0.557,0.816,-0.180
6.210,-0.557,0.818,-0.182
6.220,-0.559,0.820,-0.182
6.230,-0.555,0.816,-0.182
6.240,-0.557,0.818,-0.184
6.250,-0.553,0.814,-0.178
6.260,-0.555,0.816,-0.182
6.270,-0.553,0.822,-0.180
6.280,-0.551,0.824,-0.182
6.290,-0.551,0.818,-0.176
6.300,-0.553,0.814,-0.184
6.310,-0.553,0.816,-0.182
6.319,-0.555,0.818,-0.182
6.329,-0.557,0.816,-0.182
6.339,-0.555,0.820,-0.182
6.349,-0.555,0.820,-0.178
6.359,-0.555,0.814,-0.182
6.369,-0.561,0.814,-0.184
6.379,-0.561,0.814,-0.180
6.389,-0.559,0.812,-0.186
6.399,-0.557,0.811,-0.182
6.409,-0.557,0.811,-0.184
6.419,-0.555,0.812,-0.182
6.429,-0.553,0.814,-0.184
6.439,-0.555,0.816,-0.182
6.449,-0.555,0.818,-0.184
6.459,-0.553,0.820,-0.178
6.468,-0.555,0.816,-0.180
6.478,-0.555,0.816,-0.182
6.488,-0.555,0.814,-0.184
6.498,-0.553,0.816,-0.184
6.508,-0.559,0.818,-0.184
6.518,-0.559,0.814,-0.178
6.528,-0.557,0.816,-0.184
6.538,-0.561,0.820,-0.182
6.548,-0.557,0.822,-0.184
6.558,-0.553,0.812,-0.182
6.568,-0.553,0.812,-0.186
6.578,-0.555,0.809,-0.180
6.588,-0.555,0.816,-0.184
6.598,-0.555,0.818,-0.182
6.607,-0.555,0.818,-0.178
6.617,-0.555,0.816,-0.178
6.627,-0.555,0.818,-0.178
6.637,-0.555,0.814,-0.178
6.647,-0.557,0.814,-0.180
6.657,-0.555,0.812,-0.180
6.667,-0.549,0.811,-0.184
6.677,-0.553,0.811,-0.184
6.687,-0.555,0.816,-0.182
6.697,-0.555,0.818,-0.182
6.707,-0.553,0.818,-0.182
6.717,-0.553,0.822,-0.180
6.727,-0.553,0.818,-0.184
6.737,-0.553,0.816,-0.184
6.747,-0.553,0.816,-0.182
6.756,-0.551,0.816,-0.184
6.766,-0.553,0.814,-0.184
6.776,-0.553,0.812,-0.182
6.786,-0.555,0.812,-0.184
6.796,-0.557,0.816,-0.182
6.806,-0.555,0.816,-0.184
6.816,-0.557,0.818,-0.182
6.826,-0.557,0.818,-0.180
6.836,-0.557,0.818,-0.186
6.846,-0.557,0.816,-0.184
6.856,-0.555,0.816,-0.184
6.866,-0.559,0.814,-0.182
6.876,-0.559,0.816,-0.180
6.886,-0.559,0.812,-0.184
6.895,-0.559,0.816,-0.182
6.905,-0.555,0.814,-0.180
6.915,-0.555,0.812,-0.184
6.925,-0.555,0.812,-0.186
6.935,-0.557,0.811,-0.186
6.945,-0.557,0.814,-0.180
6.955,-0.555,0.816,-0.182
6.965,-0.553,0.812,-0.180
6.975,-0.551,0.816,-0.178
6.985,-0.551,0.816,-0.178
6.995,-0.553,0.816,-0.176
7.005,-0.551,0.816,-0.178
7.015,-0.555,0.816,-0.180
7.025,-0.555,0.816,-0.180
7.035,-0.555,0.816,-0.186
7.044,-0.555,0.820,-0.184
7.054,-0.553,0.818,-0.180
7.064,-0.553,0.822,-0.180
7.074,-0.553,0.818,-0.180
7.084,-0.555,0.818,-0.182
7.094,-0.553,0.816,-0.178
7.104,-0.549,0.812,-0.180
7.114,-0.549,0.816,-0.178
7.124,-0.553,0.816,-0.182
7.134,-0.553,0.820,-0.176
7.144,-0.551,0.818,-0.182
7.154,-0.553,0.820,-0.180
7.164,-0.557,0.816,-0.180
7.174,-0.562,0.816,-0.180
7.183,-0.561,0.818,-0.180
7.193,-0.561,0.816,-0.182
7.203,-0.557,0.816,-0.182
7.213,-0.557,0.814,-0.182
7.223,-0.557,0.814,-0.184
7.233,-0.559,0.814,-0.178
7.243,-0.559,0.812,-0.180
7.253,-0.559,0.811,-0.178
7.263,-0.555,0.811,-0.182
7.273,-0.557,0.811,-0.180
7.283,-0.553,0.814,-0.182
7.293,-0.553,0.814,-0.176
7.303,-0.555,0.814,-0.176
7.313,-0.555,0.816,-0.184
7.323,-0.555,0.816,-0.178
7.332,-0.557,0.814,-0.178
7.342,-0.559,0.814,-0.182
7.352,-0.557,0.816,-0.180
7.362,-0.561,0.814,-0.182
7.372,-0.555,0.816,-0.178
7.382,-0.557,0.820,-0.182
7.392,-0.553,0.822,-0.180
7.402,-0.555,0.820,-0.182
7.412,-0.553,0.812,-0.182
7.422,-0.555,0.812,-0.180
7.432,-0.557,0.811,-0.182
7.442,-0.553,0.814,-0.182
7.452,-0.555,0.818,-0.178
7.462,-0.553,0.822,-0.176
7.471,-0.553,0.820,-0.184
7.481,-0.551,0.820,-0.178
7.491,-0.553,0.816,-0.184
7.501,-0.551,0.814,-0.184
7.511,-0.551,0.814,-0.184
7.521,-0.551,0.812,-0.188
7.531,-0.551,0.814,-0.182
7.541,-0.551,0.818,-0.186
7.551,-0.551,0.820,-0.186
7.561,-0.551,0.820,-0.180
7.571,-0.551,0.820,-0.184
7.581,-0.553,0.822,-0.182
7.591,-0.555,0.816,-0.182
7.601,-0.551,0.814,-0.184
7.611,-0.553,0.814,-0.182
7.620,-0.555,0.818,-0.186
7.630,-0.551,0.816,-0.184
7.640,-0.553,0.814,-0.186
7.650,-0.557,0.816,-0.188
7.660,-0.557,0.818,-0.188
7.670,-0.555,0.818,-0.186
7.680,-0.553,0.816,-0.182
7.690,-0.555,0.820,-0.184
7.700,-0.555,0.818,-0.182
7.710,-0.553,0.818,-0.184
7.720,-0.555,0.812,-0.184
7.730,-0.555,0.816,-0.182
7.740,-0.555,0.818,-0.184
7.750,-0.553,0.812,-0.184
7.759,-0.555,0.814,-0.186
7.769,-0.557,0.814,-0.180
7.779,-0.555,0.812,-0.182
7.789,-0.557,0.812,-0.182
7.799,-0.559,0.812,-0.184
7.809,-0.559,0.812,-0.184
7.819,-0.559,0.814,-0.180
7.829,-0.557,0.814,-0.184
7.839,-0.559,0.816,-0.186
7.849,-0.559,0.816,-0.180
7.859,-0.557,0.812,-0.182
7.869,-0.551,0.816,-0.184
7.879,-0.555,0.818,-0.186
7.889,-0.555,0.816,-0.182
7.899,-0.553,0.818,-0.184
7.908,-0.551,0.816,-0.182
7.918,-0.551,0.818,-0.182
7.928,-0.553,0.816,-0.178
7.938,-0.553,0.822,-0.182
7.948,-0.551,0.822,-0.184
7.958,-0.555,0.824,-0.182
7.968,-0.551,0.816,-0.182
7.978,-0.555,0.818,-0.182
7.988,-0.557,0.816,-0.186
7.998,-0.557,0.816,-0.184
8.008,-0.559,0.818,-0.180
8.018,-0.555,0.818,-0.180
8.028,-0.555,0.814,-0.182
8.038,-0.557,0.814,-0.184
8.048,-0.559,0.812,-0.186
8.057,-0.557,0.812,-0.184
8.067,-0.557,0.812,-0.182
8.077,-0.557,0.816,-0.182
8.087,-0.553,0.816,-0.180
8.097,-0.553,0.814,-0.182
8.107,-0.553,0.816,-0.180
8.117,-0.553,0.814,-0.182
8.127,-0.555,0.812,-0.182
8.137,-0.555,0.811,-0.184
8.147,-0.557,0.812,-0.182
8.157,-0.557,0.812,-0.184
8.167,-0.559,0.812,-0.182
8.177,-0.562,0.816,-0.184
8.187,-0.557,0.814,-0.178
8.196,-0.559,0.824,-0.182
8.206,-0.559,0.822,-0.180
8.216,-0.555,0.818,-0.180
8.226,-0.553,0.812,-0.184
8.236,-0.557,0.811,-0.184
8.246,-0.553,0.809,-0.186
8.256,-0.557,0.812,-0.182
8.266,-0.553,0.814,-0.180
8.276,-0.553,0.820,-0.180
8.286,-0.553,0.820,-0.178
8.296,-0.555,0.820,-0.178
8.306,-0.557,0.822,-0.184
8.316,-0.553,0.816,-0.180
8.326,-0.553,0.816,-0.184
8.336,-0.555,0.812,-0.184
8.345,-0.551,0.814,-0.186
8.355,-0.551,0.814,-0.182
8.365,-0.551,0.818,-0.184
8.375,-0.555,0.818,-0.184
8.385,-0.553,0.822,-0.182
8.395,-0.555,0.820,-0.186
8.405,-0.553,0.816,-0.180
8.415,-0.555,0.816,-0.180
8.425,-0.555,0.814,-0.182
8.435,-0.557,0.812,-0.184
8.445,-0.555,0.814,-0.184
8.455,-0.557,0.812,-0.184
8.465,-0.559,0.816,-0.184
8.475,-0.555,0.816,-0.186
8.484,-0.553,0.816,-0.186
8.494,-0.553,0.816,-0.182
8.504,-0.557,0.816,-0.182
8.514,-0.553,0.818,-0.180
8.524,-0.553,0.814,-0.184
8.534,-0.557,0.816,-0.180
8.544,-0.555,0.818,-0.186
8.554,-0.555,0.814,-0.182
8.564,-0.555,0.812,-0.182
8.574,-0.557,0.816,-0.184
8.584,-0.553,0.820,-0.184
8.594,-0.559,0.814,-0.184
8.604,-0.559,0.816,-0.182
8.614,-0.559,0.812,-0.184
8.624,-0.553,0.816,-0.184
8.633,-0.553,0.814,-0.184
8.643,-0.553,0.814,-0.186
8.653,-0.549,0.814,-0.182
8.663,-0.551,0.816,-0.182
8.673,-0.549,0.812,-0.182
8.683,-0.551,0.816,-0.188
8.693,-0.551,0.818,-0.186
8.703,-0.551,0.816,-0.186
8.713,-0.555,0.816,-0.184
8.723,-0.557,0.816,-0.184
8.733,-0.555,0.822,-0.186
8.743,-0.555,0.820,-0.184
8.753,-0.557,0.814,-0.186
8.763,-0.555,0.816,-0.186
8.772,-0.549,0.814,-0.184
8.782,-0.549,0.816,-0.182
8.792,-0.551,0.818,-0.178
8.802,-0.553,0.822,-0.182
8.812,-0.551,0.822,-0.180
8.822,-0.553,0.816,-0.182
8.832,-0.557,0.811,-0.184
8.842,-0.561,0.807,-0.186
8.852,-0.561,0.814,-0.182
8.862,-0.561,0.811,-0.182
8.872,-0.561,0.816,-0.180
8.882,-0.559,0.816,-0.180
8.892,-0.559,0.812,-0.186
8.902,-0.561,0.812,-0.186
8.912,-0.562,0.812,-0.184
8.921,-0.561,0.812,-0.186
8.931,-0.557,0.811,-0.184
8.941,-0.555,0.812,-0.178
8.951,-0.555,0.812,-0.182
8.961,-0.553,0.818,-0.180
8.971,-0.551,0.820,-0.180
8.981,-0.549,0.820,-0.178
8.991,-0.555,0.816,-0.182
9.001,-0.553,0.816,-0.184
9.011,-0.553,0.816,-0.186
9.021,-0.555,0.814,-0.184
9.031,-0.559,0.816,-0.186
9.041,-0.559,0.818,-0.184
9.051,-0.555,0.820,-0.182
9.060,-0.555,0.818,-0.182
9.070,-0.555,0.820,-0.184
9.080,-0.553,0.818,-0.184
9.090,-0.551,0.809,-0.186
9.100,-0.551,0.812,-0.188
9.110,-0.549,0.812,-0.184
9.120,-0.551,0.814,-0.188
9.130,-0.551,0.816,-0.184
9.140,-0.549,0.814,-0.186
9.150,-0.551,0.820,-0.184
9.160,-0.555,0.820,-0.184
9.170,-0.553,0.818,-0.182
9.180,-0.549,0.818,-0.186
9.190,-0.549,0.814,-0.182
9.200,-0.551,0.816,-0.184
9.209,-0.551,0.816,-0.186
9.219,-0.553,0.816,-0.188
9.229,-0.551,0.818,-0.184
9.239,-0.551,0.820,-0.182
9.249,-0.553,0.816,-0.188
9.259,-0.553,0.820,-0.188
9.269,-0.553,0.816,-0.186
9.279,-0.555,0.814,-0.184
9.289,-0.555,0.811,-0.188
9.299,-0.553,0.814,-0.189
9.309,-0.555,0.814,-0.189
9.319,-0.555,0.814,-0.186
9.329,-0.555,0.814,-0.188
9.339,-0.555,0.814,-0.186
9.348,-0.553,0.818,-0.186
9.358,-0.557,0.814,-0.186
9.368,-0.555,0.816,-0.186
9.378,-0.559,0.814,-0.188
9.388,-0.557,0.814,-0.189
9.398,-0.555,0.812,-0.188
9.408,-0.555,0.812,-0.188
9.418,-0.555,0.812,-0.188
9.428,-0.559,0.814,-0.186
9.438,-0.559,0.812,-0.186
9.448,-0.559,0.814,-0.189
9.458,-0.561,0.814,-0.186
9.468,-0.557,0.812,-0.188
9.478,-0.557,0.816,-0.189
9.488,-0.555,0.814,-0.188
9.497,-0.555,0.814,-0.184
9.507,-0.553,0.814,-0.186
9.517,-0.555,0.812,-0.186
9.527,-0.553,0.814,-0.186
9.537,-0.551,0.812,-0.186
9.547,-0.555,0.814,-0.188
9.557,-0.553,0.814,-0.184
9.567,-0.557,0.814,-0.186
9.577,-0.555,0.816,-0.186
9.587,-0.559,0.814,-0.186
9.597,-0.561,0.814,-0.188
9.607,-0.559,0.814,-0.186
9.617,-0.557,0.814,-0.186
9.627,-0.557,0.818,-0.186
9.637,-0.561,0.814,-0.186
9.646,-0.555,0.816,-0.184
9.656,-0.553,0.812,-0.186
9.666,-0.549,0.814,-0.180
9.676,-0.549,0.816,-0.184
9.686,-0.551,0.822,-0.184
9.696,-0.547,0.822,-0.180
9.706,-0.549,0.820,-0.186
9.716,-0.553,0.816,-0.186
9.726,-0.557,0.814,-0.184
9.736,-0.559,0.812,-0.186
9.746,-0.559,0.814,-0.184
9.756,-0.557,0.820,-0.186
9.766,-0.561,0.814,-0.184
9.776,-0.562,0.816,-0.182
9.785,-0.561,0.814,-0.184
9.795,-0.559,0.812,-0.184
9.805,-0.561,0.812,-0.182
9.815,-0.555,0.812,-0.184
9.825,-0.557,0.812,-0.184
9.835,-0.555,0.811,-0.182
9.845,-0.553,0.812,-0.184
9.855,-0.553,0.816,-0.182
9.865,-0.551,0.814,-0.180
9.875,-0.555,0.816,-0.180
9.885,-0.555,0.812,-0.180
9.895,-0.555,0.811,-0.180
9.905,-0.559,0.811,-0.180
9.915,-0.559,0.812,-0.182
9.925,-0.562,0.814,-0.186
9.934,-0.562,0.812,-0.184
9.944,-0.559,0.816,-0.178
9.954,-0.561,0.820,-0.182
9.964,-0.557,0.820,-0.180
9.974,-0.551,0.816,-0.182
9.984,-0.555,0.811,-0.184
9.994,-0.553,0.811,-0.184
10.004,-0.555,0.809,-0.184
10.014,-0.555,0.812,-0.182
10.024,-0.553,0.816,-0.182
10.034,-0.557,0.814,-0.182
10.044,-0.557,0.816,-0.182
10.054,-0.553,0.816,-0.182
10.064,-0.555,0.814,-0.182
10.073,-0.553,0.812,-0.184
10.083,-0.553,0.814,-0.184
10.093,-0.553,0.814,-0.184
10.103,-0.555,0.816,-0.184
10.113,-0.551,0.816,-0.182
10.123,-0.555,0.818,-0.186
10.133,-0.555,0.818,-0.178
10.143,-0.557,0.818,-0.184
10.153,-0.555,0.812,-0.186
10.163,-0.553,0.812,-0.182
10.173,-0.553,0.814,-0.186
10.183,-0.557,0.814,-0.188
10.193,-0.553,0.814,-0.184
10.203,-0.553,0.816,-0.186
10.213,-0.553,0.816,-0.186
10.222,-0.555,0.818,-0.186
10.232,-0.553,0.818,-0.188
10.242,-0.553,0.818,-0.186
10.252,-0.555,0.816,-0.184
10.262,-0.559,0.816,-0.186
10.272,-0.557,0.818,-0.186
10.282,-0.553,0.814,-0.184
10.292,-0.555,0.816,-0.182
10.302,-0.555,0.816,-0.186
10.312,-0.555,0.818,-0.184
10.322,-0.557,0.816,-0.184
10.332,-0.555,0.818,-0.182
10.342,-0.555,0.814,-0.184
10.352,-0.555,0.812,-0.184
10.361,-0.555,0.812,-0.182
10.371,-0.555,0.812,-0.180
10.381,-0.553,0.814,-0.182
10.391,-0.551,0.816,-0.182
10.401,-0.555,0.814,-0.184
10.411,-0.555,0.814,-0.178
10.421,-0.553,0.818,-0.180
10.431,-0.555,0.816,-0.182
10.441,-0.551,0.812,-0.182
10.451,-0.555,0.816,-0.184
10.461,-0.559,0.814,-0.182
10.471,-0.555,0.816,-0.176
10.481,-0.559,0.818,-0.182
10.491,-0.557,0.818,-0.182
10.501,-0.559,0.814,-0.184
10.510,-0.557,0.816,-0.182
10.520,-0.557,0.814,-0.182
10.530,-0.555,0.816,-0.184
10.540,-0.557,0.816,-0.182
10.550,-0.559,0.812,-0.186
10.560,-0.555,0.816,-0.180
10.570,-0.555,0.811,-0.178
10.580,-0.547,0.812,-0.182
10.590,-0.551,0.816,-0.178
10.600,-0.553,0.820,-0.178
10.610,-0.553,0.822,-0.182
10.620,-0.553,0.818,-0.180
10.630,-0.555,0.814,-0.182
10.640,-0.561,0.816,-0.184
10.649,-0.557,0.818,-0.178
10.659,-0.559,0.820,-0.182
10.669,-0.559,0.820,-0.180
10.679,-0.557,0.814,-0.180
10.689,-0.559,0.812,-0.184
10.699,-0.559,0.814,-0.182
10.709,-0.559,0.814,-0.182
10.719,-0.559,0.811,-0.186
10.729,-0.555,0.811,-0.182
10.739,-0.557,0.812,-0.182
10.749,-0.551,0.812,-0.180
10.759,-0.553,0.814,-0.180
10.769,-0.553,0.814,-0.182
10.779,-0.557,0.816,-0.184
10.789,-0.559,0.812,-0.186
10.798,-0.557,0.814,-0.184
10.808,-0.559,0.812,-0.184
10.818,-0.559,0.814,-0.184
10.828,-0.559,0.814,-0.184
10.838,-0.561,0.816,-0.186
10.848,-0.559,0.816,-0.180
10.858,-0.561,0.818,-0.184
10.868,-0.561,0.820,-0.182
10.878,-0.555,0.818,-0.182
10.888,-0.551,0.811,-0.184
10.898,-0.553,0.811,-0.184
10.908,-0.551,0.811,-0.188
10.918,-0.553,0.814,-0.186
10.928,-0.551,0.820,-0.186
10.937,-0.553,0.820,-0.180
10.947,-0.557,0.822,-0.184
10.957,-0.551,0.818,-0.182
10.967,-0.555,0.818,-0.182
10.977,-0.553,0.816,-0.184
10.987,-0.553,0.811,-0.182
10.997,-0.551,0.811,-0.188
11.007,-0.551,0.814,-0.188
11.017,-0.555,0.814,-0.186
11.027,-0.551,0.818,-0.186
11.037,-0.555,0.814,-0.184
11.047,-0.555,0.818,-0.186
11.057,-0.553,0.818,-0.184
11.067,-0.553,0.816,-0.184
11.077,-0.555,0.820,-0.186
11.086,-0.555,0.816,-0.188
11.096,-0.553,0.814,-0.186
11.106,-0.555,0.811,-0.188
11.116,-0.559,0.814,-0.189
11.126,-0.559,0.816,-0.188
11.136,-0.557,0.816,-0.184
11.146,-0.557,0.818,-0.184
11.156,-0.557,0.818,-0.182
11.166,-0.555,0.818,-0.186
11.176,-0.555,0.820,-0.186
11.186,-0.555,0.812,-0.186
11.196,-0.553,0.814,-0.182
11.206,-0.551,0.814,-0.186
11.216,-0.555,0.812,-0.186
11.226,-0.555,0.812,-0.186
11.235,-0.553,0.816,-0.186
11.245,-0.551,0.818,-0.182
11.255,-0.553,0.816,-0.184
11.265,-0.551,0.818,-0.186
11.275,-0.553,0.814,-0.184
11.285,-0.553,0.812,-0.184
11.295,-0.553,0.812,-0.184
11.305,-0.547,0.812,-0.184
11.315,-0.549,0.812,-0.186
11.325,-0.549,0.816,-0.186
11.335,-0.551,0.816,-0.186
11.345,-0.551,0.818,-0.186
11.355,-0.551,0.816,-0.189
11.365,-0.553,0.818,-0.188
11.374,-0.555,0.818,-0.188
11.384,-0.551,0.818,-0.189
11.394,-0.551,0.818,-0.188
11.404,-0.547,0.818,-0.188
11.414,-0.551,0.820,-0.189
11.424,-0.547,0.816,-0.189
11.434,-0.545,0.818,-0.188
11.444,-0.543,0.818,-0.188
11.454,-0.545,0.818,-0.189
11.464,-0.545,0.824,-0.186
11.474,-0.547,0.826,-0.186
11.484,-0.547,0.826,-0.188
11.494,-0.547,0.824,-0.188
11.504,-0.553,0.818,-0.188
11.514,-0.553,0.820,-0.188
11.523,-0.553,0.818,-0.188
11.533,-0.555,0.818,-0.189
11.543,-0.553,0.818,-0.188
11.553,-0.555,0.816,-0.189
11.563,-0.555,0.818,-0.188
11.573,-0.555,0.814,-0.184
11.583,-0.551,0.816,-0.188
11.593,-0.549,0.814,-0.184
11.603,-0.549,0.814,-0.186
11.613,-0.547,0.812,-0.184
11.623,-0.547,0.814,-0.182
11.633,-0.551,0.816,-0.186
11.643,-0.553,0.814,-0.184
11.653,-0.555,0.816,-0.182
11.662,-0.555,0.816,-0.180
11.672,-0.557,0.814,-0.184
11.682,-0.555,0.818,-0.182
11.692,-0.557,0.816,-0.184
11.702,-0.553,0.816,-0.182
11.712,-0.549,0.814,-0.180
11.722,-0.551,0.820,-0.182
11.732,-0.551,0.822,-0.184
11.742,-0.551,0.820,-0.180
11.752,-0.549,0.812,-0.184
11.762,-0.553,0.812,-0.184
11.772,-0.549,0.812,-0.180
11.782,-0.549,0.816,-0.180
11.792,-0.553,0.816,-0.184
11.802,-0.551,0.818,-0.184
11.811,-0.553,0.818,-0.184
11.821,-0.549,0.820,-0.182
11.831,-0.549,0.820,-0.184
11.841,-0.549,0.814,-0.180
11.851,-0.547,0.816,-0.182
11.861,-0.549,0.814,-0.182
11.871,-0.545,0.816,-0.184
11.881,-0.547,0.820,-0.180
11.891,-0.549,0.818,-0.184
11.901,-0.549,0.822,-0.182
11.911,-0.551,0.822,-0.182
11.921,-0.551,0.816,-0.184
11.931,-0.549,0.816,-0.186
11.941,-0.551,0.814,-0.182
11.950,-0.547,0.814,-0.186
11.960,-0.549,0.814,-0.188
11.970,-0.549,0.816,-0.189
11.980,-0.549,0.818,-0.188
11.990,-0.549,0.818,-0.188
12.000,-0.551,0.822,-0.188
12.010,-0.551,0.820,-0.184
12.020,-0.551,0.822,-0.188
12.030,-0.551,0.820,-0.189
12.040,-0.551,0.820,-0.186
12.050,-0.551,0.820,-0.189
12.060,-0.549,0.820,-0.189
12.070,-0.545,0.820,-0.186
12.080,-0.551,0.816,-0.186
12.090,-0.549,0.816,-0.191
12.099,-0.549,0.816,-0.189
12.109,-0.549,0.818,-0.188
12.119,-0.549,0.814,-0.189
12.129,-0.551,0.818,-0.189
12.139,-0.549,0.818,-0.184
12.149,-0.553,0.818,-0.189
12.159,-0.549,0.818,-0.189
12.169,-0.553,0.818,-0.188
12.179,-0.551,0.820,-0.186
12.189,-0.555,0.818,-0.191
12.199,-0.549,0.816,-0.189
12.209,-0.547,0.812,-0.188
12.219,-0.549,0.816,-0.193
12.229,-0.549,0.816,-0.189
12.238,-0.549,0.818,-0.186
12.248,-0.549,0.818,-0.186
12.258,-0.549,0.816,-0.188
12.268,-0.547,0.820,-0.188
12.278,-0.553,0.822,-0.189
12.288,-0.551,0.820,-0.188
12.298,-0.549,0.818,-0.188
12.308,-0.549,0.814,-0.188
12.318,-0.553,0.814,-0.186
12.328,-0.555,0.814,-0.189
12.338,-0.555,0.818,-0.186
12.348,-0.555,0.820,-0.182
12.358,-0.553,0.820,-0.186
12.368,-0.553,0.818,-0.184
12.378,-0.555,0.814,-0.186
12.387,-0.553,0.812,-0.186
12.397,-0.549,0.812,-0.188
12.407,-0.551,0.816,-0.184
12.417,-0.551,0.811,-0.184
12.427,-0.549,0.812,-0.184
12.437,-0.553,0.814,-0.184
12.447,-0.551,0.814,-0.184
12.457,-0.553,0.816,-0.188
12.467,-0.551,0.814,-0.188
12.477,-0.553,0.816,-0.186
12.487,-0.555,0.818,-0.186
12.497,-0.557,0.816,-0.186
12.507,-0.555,0.818,-0.188
12.517,-0.555,0.818,-0.189
12.526,-0.553,0.818,-0.186
12.536,-0.551,0.820,-0.186
12.546,-0.553,0.824,-0.184
12.556,-0.549,0.818,-0.184
12.566,-0.547,0.809,-0.188
12.576,-0.549,0.814,-0.188
12.586,-0.549,0.816,-0.186
12.596,-0.551,0.814,-0.188
12.606,-0.547,0.816,-0.186
12.616,-0.553,0.820,-0.184
12.626,-0.553,0.818,-0.184
12.636,-0.553,0.820,-0.186
12.646,-0.551,0.818,-0.184
12.656,-0.551,0.816,-0.186
12.666,-0.549,0.814,-0.188
12.675,-0.553,0.816,-0.191
12.685,-0.549,0.816,-0.186
12.695,-0.549,0.816,-0.186
12.705,-0.549,0.818,-0.188
12.715,-0.551,0.818,-0.188
12.725,-0.553,0.818,-0.186
12.735,-0.553,0.816,-0.188
12.745,-0.549,0.814,-0.188
12.755,-0.553,0.814,-0.189
12.765,-0.553,0.812,-0.189
12.775,-0.553,0.814,-0.189
12.785,-0.553,0.812,-0.189
12.795,-0.553,0.818,-0.189
12.805,-0.553,0.816,-0.188
12.814,-0.555,0.814,-0.188
12.824,-0.553,0.818,-0.188
12.834,-0.555,0.818,-0.189
12.844,-0.555,0.818,-0.188
12.854,-0.553,0.816,-0.186
12.864,-0.553,0.816,-0.188
12.874,-0.553,0.816,-0.188
12.884,-0.555,0.814,-0.189
12.894,-0.553,0.814,-0.189
12.904,-0.557,0.814,-0.191
12.914,-0.555,0.816,-0.189
12.924,-0.553,0.816,-0.189
12.934,-0.553,0.814,-0.189
12.944,-0.551,0.820,-0.189
12.954,-0.551,0.816,-0.189
12.963,-0.551,0.812,-0.188
12.973,-0.551,0.814,-0.189
12.983,-0.551,0.812,-0.191
12.993,-0.553,0.814,-0.188
13.003,-0.551,0.816,-0.188
13.013,-0.551,0.816,-0.189
13.023,-0.551,0.818,-0.191
13.033,-0.549,0.818,-0.193
13.043,-0.551,0.820,-0.189
13.053,-0.551,0.818,-0.188
13.063,-0.551,0.816,-0.189
13.073,-0.551,0.816,-0.189
13.083,-0.547,0.816,-0.186
13.093,-0.547,0.818,-0.188
13.103,-0.549,0.820,-0.188
13.112,-0.547,0.822,-0.188
13.122,-0.549,0.818,-0.188
13.132,-0.553,0.816,-0.189
13.142,-0.553,0.814,-0.188
13.152,-0.553,0.818,-0.188
13.162,-0.555,0.818,-0.188
13.172,-0.555,0.818,-0.186
13.182,-0.553,0.816,-0.184
13.192,-0.557,0.814,-0.188
13.202,-0.555,0.814,-0.189
13.212,-0.557,0.814,-0.188
13.222,-0.557,0.812,-0.186
13.232,-0.557,0.812,-0.184
13.242,-0.555,0.812,-0.184
13.251,-0.553,0.809,-0.184
13.261,-0.555,0.816,-0.184
13.271,-0.553,0.816,-0.184
13.281,-0.555,0.814,-0.180
13.291,-0.553,0.812,-0.182
13.301,-0.555,0.811,-0.184
13.311,-0.557,0.812,-0.186
13.321,-0.559,0.809,-0.186
13.331,-0.561,0.814,-0.184
13.341,-0.561,0.814,-0.188
13.351,-0.561,0.814,-0.184
13.361,-0.557,0.814,-0.182
13.371,-0.557,0.816,-0.184
13.381,-0.559,0.820,-0.182
13.391,-0.553,0.812,-0.186
13.400,-0.549,0.809,-0.186
13.410,-0.551,0.809,-0.184
13.420,-0.553,0.811,-0.184
13.430,-0.553,0.814,-0.188
13.440,-0.553,0.818,-0.184
13.450,-0.551,0.820,-0.182
13.460,-0.553,0.820,-0.180
13.470,-0.557,0.820,-0.184
13.480,-0.551,0.820,-0.188
13.490,-0.553,0.816,-0.186
13.500,-0.553,0.814,-0.189
13.510,-0.551,0.814,-0.188
13.520,-0.547,0.812,-0.188
13.530,-0.551,0.816,-0.191
13.539,-0.553,0.816,-0.188
13.549,-0.549,0.822,-0.186
13.559,-0.551,0.820,-0.186
13.569,-0.551,0.816,-0.188
13.579,-0.549,0.818,-0.188
13.589,-0.553,0.820,-0.189
13.599,-0.551,0.816,-0.189
13.609,-0.553,0.818,-0.189
13.619,-0.553,0.818,-0.186
13.629,-0.551,0.814,-0.189
13.639,-0.551,0.816,-0.188
13.649,-0.551,0.816,-0.193
13.659,-0.551,0.818,-0.188
13.669,-0.553,0.818,-0.188
13.679,-0.553,0.816,-0.186
13.688,-0.553,0.818,-0.189
13.698,-0.553,0.818,-0.188
13.708,-0.553,0.816,-0.184
13.718,-0.553,0.814,-0.191
13.728,-0.557,0.816,-0.186
13.738,-0.551,0.816,-0.188
13.748,-0.555,0.814,-0.188
13.758,-0.553,0.814,-0.188
13.768,-0.553,0.812,-0.184
13.778,-0.557,0.814,-0.188
13.788,-0.555,0.814,-0.189
13.798,-0.555,0.812,-0.189
13.808,-0.555,0.812,-0.188
13.818,-0.557,0.812,-0.189
13.827,-0.555,0.812,-0.188
13.837,-0.555,0.814,-0.189
13.847,-0.557,0.814,-0.188
13.857,-0.557,0.812,-0.191
13.867,-0.557,0.814,-0.186
13.877,-0.551,0.816,-0.186
13.887,-0.555,0.814,-0.188
13.897,-0.555,0.816,-0.188
13.907,-0.555,0.816,-0.189
13.917,-0.557,0.816,-0.188
13.927,-0.551,0.816,-0.188
13.937,-0.551,0.814,-0.186
13.947,-0.549,0.818,-0.184
13.957,-0.553,0.822,-0.186
13.967,-0.553,0.822,-0.184
13.976,-0.553,0.820,-0.188
13.986,-0.555,0.812,-0.186
13.996,-0.555,0.812,-0.188
14.006,-0.557,0.814,-0.188
14.016,-0.557,0.814,-0.188
14.026,-0.557,0.818,-0.184
14.036,-0.551,0.816,-0.184
14.046,-0.553,0.816,-0.188
14.056,-0.553,0.814,-0.184
14.066,-0.553,0.814,-0.188
14.076,-0.555,0.814,-0.188
14.086,-0.555,0.812,-0.186
14.096,-0.555,0.816,-0.186
14.106,-0.553,0.814,-0.184
14.115,-0.553,0.818,-0.186
14.125,-0.553,0.822,-0.182
14.135,-0.551,0.818,-0.184
14.145,-0.553,0.818,-0.186
14.155,-0.555,0.814,-0.182
14.165,-0.557,0.812,-0.186
14.175,-0.559,0.812,-0.188
14.185,-0.561,0.812,-0.188
14.195,-0.561,0.816,-0.186
14.205,-0.561,0.812,-0.188
14.215,-0.559,0.812,-0.182
14.225,-0.557,0.816,-0.184
14.235,-0.561,0.818,-0.180
14.245,-0.553,0.814,-0.180
14.255,-0.553,0.805,-0.182
14.264,-0.555,0.807,-0.186
14.274,-0.555,0.805,-0.180
14.284,-0.559,0.811,-0.182
14.294,-0.557,0.816,-0.184
14.304,-0.557,0.818,-0.184
14.314,-0.557,0.818,-0.180
14.324,-0.557,0.820,-0.184
14.334,-0.557,0.812,-0.182
14.344,-0.557,0.812,-0.188
14.354,-0.557,0.811,-0.188
14.364,-0.559,0.811,-0.188
14.374,-0.555,0.811,-0.188
14.384,-0.551,0.812,-0.188
14.394,-0.553,0.816,-0.189
14.403,-0.555,0.816,-0.188
14.413,-0.555,0.816,-0.186
14.423,-0.557,0.814,-0.189
14.433,-0.555,0.816,-0.189
14.443,-0.557,0.814,-0.188
14.453,-0.555,0.811,-0.191
14.463,-0.555,0.814,-0.191
14.473,-0.555,0.816,-0.191
14.483,-0.555,0.812,-0.189
14.493,-0.555,0.816,-0.188
14.503,-0.555,0.814,-0.189
14.513,-0.555,0.818,-0.184
14.523,-0.557,0.814,-0.189
14.533,-0.553,0.816,-0.189
14.543,-0.555,0.816,-0.188
14.552,-0.555,0.818,-0.189
14.562,-0.555,0.816,-0.188
14.572,-0.553,0.816,-0.188
14.582,-0.553,0.814,-0.189
14.592,-0.555,0.816,-0.188
14.602,-0.553,0.814,-0.189
14.612,-0.553,0.812,-0.189
14.622,-0.553,0.814,-0.188
14.632,-0.555,0.812,-0.186
14.642,-0.555,0.814,-0.186
14.652,-0.555,0.811,-0.188
14.662,-0.557,0.814,-0.186
14.672,-0.555,0.814,-0.186
14.682,-0.555,0.816,-0.184
14.692,-0.553,0.814,-0.188
14.701,-0.553,0.814,-0.189
14.711,-0.551,0.811,-0.186
14.721,-0.551,0.812,-0.184
14.731,-0.553,0.814,-0.189
14.741,-0.557,0.816,-0.189
14.751,-0.557,0.818,-0.188
14.761,-0.553,0.816,-0.186
14.771,-0.553,0.814,-0.188
14.781,-0.553,0.820,-0.186
14.791,-0.551,0.818,-0.189
14.801,-0.553,0.816,-0.188
14.811,-0.551,0.818,-0.184
14.821,-0.551,0.812,-0.189
14.831,-0.549,0.814,-0.184
14.840,-0.553,0.818,-0.189
14.850,-0.553,0.820,-0.186
14.860,-0.553,0.820,-0.186
14.870,-0.551,0.818,-0.188
14.880,-0.555,0.816,-0.186
14.890,-0.559,0.811,-0.188
14.900,-0.557,0.812,-0.188
14.910,-0.557,0.816,-0.186
14.920,-0.557,0.816,-0.186
14.930,-0.555,0.816,-0.182
14.940,-0.557,0.814,-0.186
14.950,-0.557,0.814,-0.186
14.960,-0.559,0.814,-0.186
14.970,-0.559,0.811,-0.186
14.980,-0.557,0.812,-0.184
14.989,-0.557,0.807,-0.184
14.999,-0.553,0.809,-0.186
15.009,-0.555,0.811,-0.186
15.019,-0.551,0.814,-0.182
15.029,-0.555,0.812,-0.186
15.039,-0.559,0.816,-0.186
15.049,-0.555,0.812,-0.186
15.059,-0.557,0.811,-0.188
15.069,-0.559,0.814,-0.186
15.079,-0.561,0.816,-0.189
15.089,-0.561,0.814,-0.188
15.099,-0.557,0.816,-0.186
15.109,-0.557,0.816,-0.188
15.119,-0.557,0.820,-0.186
15.128,-0.551,0.818,-0.186
15.138,-0.553,0.812,-0.182
15.148,-0.553,0.809,-0.186
15.158,-0.551,0.811,-0.188
15.168,-0.551,0.812,-0.189
15.178,-0.553,0.818,-0.184
15.188,-0.551,0.820,-0.184
15.198,-0.555,0.820,-0.186
15.208,-0.555,0.818,-0.186
15.218,-0.551,0.814,-0.186
15.228,-0.553,0.812,-0.188
15.238,-0.553,0.814,-0.191
15.248,-0.553,0.814,-0.189
15.258,-0.553,0.816,-0.189
15.268,-0.557,0.818,-0.193
15.277,-0.555,0.816,-0.188
15.287,-0.557,0.812,-0.184
15.297,-0.555,0.818,-0.188
15.307,-0.557,0.814,-0.189
15.317,-0.555,0.818,-0.184
15.327,-0.551,0.816,-0.188
15.337,-0.557,0.812,-0.184
15.347,-0.553,0.809,-0.188
15.357,-0.559,0.811,-0.191
15.367,-0.555,0.811,-0.191
15.377,-0.553,0.814,-0.193
15.387,-0.555,0.812,-0.188
15.397,-0.553,0.814,-0.188
15.407,-0.553,0.816,-0.188
15.416,-0.553,0.816,-0.188
15.426,-0.555,0.816,-0.188
15.436,-0.551,0.816,-0.188
15.446,-0.553,0.814,-0.189
15.456,-0.553,0.816,-0.193
15.466,-0.549,0.818,-0.189
15.476,-0.551,0.818,-0.188
15.486,-0.551,0.818,-0.186
15.496,-0.549,0.820,-0.188
15.506,-0.551,0.818,-0.186
15.516,-0.549,0.816,-0.188
15.526,-0.551,0.816,-0.188
15.536,-0.549,0.816,-0.188
15.546,-0.551,0.818,-0.189
15.556,-0.551,0.816,-0.189
15.565,-0.553,0.818,-0.188
15.575,-0.551,0.818,-0.188
15.585,-0.551,0.818,-0.186
15.595,-0.555,0.818,-0.186
15.605,-0.551,0.818,-0.186
15.615,-0.549,0.816,-0.188
15.625,-0.547,0.814,-0.188
15.635,-0.551,0.818,-0.191
15.645,-0.551,0.814,-0.189
15.655,-0.551,0.812,-0.189
15.665,-0.551,0.814,-0.186
15.675,-0.547,0.814,-0.184
15.685,-0.547,0.814,-0.188
15.695,-0.549,0.822,-0.188
15.704,-0.549,0.820,-0.188
15.714,-0.549,0.818,-0.189
15.724,-0.553,0.816,-0.189
15.734,-0.553,0.816,-0.189
15.744,-0.555,0.814,-0.188
15.754,-0.557,0.816,-0.189
15.764,-0.553,0.816,-0.188
15.774,-0.551,0.816,-0.189
15.784,-0.551,0.816,-0.189
15.794,-0.555,0.812,-0.188
15.804,-0.553,0.818,-0.184
15.814,-0.551,0.812,-0.186
15.824,-0.551,0.814,-0.184
15.834,-0.551,0.811,-0.186
15.844,-0.551,0.812,-0.188
15.853,-0.551,0.812,-0.188
15.863,-0.547,0.812,-0.186
15.873,-0.549,0.814,-0.189
15.883,-0.553,0.816,-0.188
15.893,-0.553,0.814,-0.188
15.903,-0.557,0.816,-0.189
15.913,-0.557,0.814,-0.189
15.923,-0.557,0.820,-0.191
15.933,-0.557,0.814,-0.184
15.943,-0.555,0.820,-0.188
15.953,-0.557,0.820,-0.188
15.963,-0.553,0.820,-0.188
15.973,-0.549,0.812,-0.188
15.983,-0.549,0.809,-0.189
15.992,-0.547,0.812,-0.188
16.002,-0.549,0.814,-0.191
16.012,-0.549,0.816,-0.186
16.022,-0.547,0.820,-0.186
16.032,-0.547,0.822,-0.186
16.042,-0.553,0.820,-0.186
16.052,-0.551,0.820,-0.182
16.062,-0.551,0.816,-0.186
16.072,-0.549,0.816,-0.189
16.082,-0.549,0.814,-0.191
16.092,-0.551,0.814,-0.189
16.102,-0.547,0.816,-0.189
16.112,-0.551,0.822,-0.191
16.122,-0.551,0.820,-0.189
16.132,-0.549,0.820,-0.191
16.141,-0.553,0.816,-0.188
16.151,-0.551,0.818,-0.188
16.161,-0.549,0.818,-0.188
16.171,-0.551,0.818,-0.191
16.181,-0.551,0.814,-0.191
16.191,-0.549,0.814,-0.193
16.201,-0.549,0.818,-0.188
16.211,-0.551,0.816,-0.193
16.221,-0.553,0.816,-0.188
16.231,-0.551,0.816,-0.193
16.241,-0.555,0.818,-0.188
16.251,-0.551,0.816,-0.191
16.261,-0.551,0.816,-0.189
16.271,-0.557,0.814,-0.189
16.280,-0.551,0.814,-0.191
16.290,-0.557,0.814,-0.189
16.300,-0.555,0.812,-0.191
16.310,-0.555,0.814,-0.188
16.320,-0.557,0.814,-0.188
16.330,-0.555,0.812,-0.191
16.340,-0.555,0.812,-0.189
16.350,-0.555,0.812,-0.189
16.360,-0.555,0.814,-0.188
16.370,-0.553,0.811,-0.188
16.380,-0.549,0.814,-0.189
16.390,-0.551,0.812,-0.188
16.400,-0.553,0.814,-0.188
16.410,-0.551,0.816,-0.188
16.420,-0.553,0.816,-0.189
16.429,-0.551,0.814,-0.186
16.439,-0.553,0.816,-0.191
16.449,-0.551,0.816,-0.188
16.459,-0.555,0.816,-0.189
16.469,-0.553,0.818,-0.193
16.479,-0.551,0.820,-0.188
16.489,-0.551,0.822,-0.188
16.499,-0.553,0.818,-0.191
16.509,-0.551,0.818,-0.191
16.519,-0.549,0.814,-0.188
16.529,-0.547,0.816,-0.189
16.539,-0.547,0.818,-0.186
16.549,-0.549,0.820,-0.186
16.559,-0.549,0.822,-0.182
16.569,-0.549,0.820,-0.186
16.578,-0.549,0.816,-0.188
16.588,-0.555,0.812,-0.186
16.598,-0.555,0.816,-0.186
16.608,-0.555,0.818,-0.189
16.618,-0.555,0.814,-0.186
16.628,-0.555,0.816,-0.186
16.638,-0.555,0.814,-0.184
16.648,-0.555,0.812,-0.186
16.658,-0.555,0.811,-0.188
16.668,-0.555,0.811,-0.184
16.678,-0.551,0.812,-0.186
16.688,-0.555,0.812,-0.188
16.698,-0.551,0.812,-0.186
16.708,-0.553,0.814,-0.182
16.717,-0.553,0.818,-0.182
16.727,-0.551,0.818,-0.182
16.737,-0.551,0.816,-0.182
16.747,-0.551,0.816,-0.186
16.757,-0.551,0.818,-0.188
16.767,-0.553,0.816,-0.188
16.777,-0.553,0.814,-0.184
16.787,-0.555,0.812,-0.184
16.797,-0.557,0.816,-0.186
16.807,-0.559,0.816,-0.186
16.817,-0.559,0.818,-0.184
16.827,-0.559,0.820,-0.188
16.837,-0.559,0.820,-0.184
16.847,-0.553,0.809,-0.188
16.857,-0.551,0.809,-0.188
16.866,-0.551,0.811,-0.186
16.876,-0.553,0.811,-0.186
16.886,-0.551,0.816,-0.184
16.896,-0.551,0.820,-0.184
16.906,-0.555,0.820,-0.188
16.916,-0.553,0.816,-0.186
16.926,-0.553,0.816,-0.186
16.936,-0.553,0.814,-0.188
16.946,-0.553,0.811,-0.189
16.956,-0.551,0.812,-0.188
16.966,-0.549,0.811,-0.188
16.976,-0.549,0.814,-0.189
16.986,-0.551,0.822,-0.188
16.996,-0.553,0.820,-0.188
17.005,-0.551,0.820,-0.189
17.015,-0.555,0.820,-0.186
17.025,-0.551,0.820,-0.184
17.035,-0.551,0.818,-0.188
17.045,-0.553,0.818,-0.186
17.055,-0.551,0.814,-0.191
17.065,-0.551,0.812,-0.191
17.075,-0.555,0.814,-0.191
17.085,-0.555,0.818,-0.195
17.095,-0.555,0.814,-0.193
17.105,-0.555,0.816,-0.189
17.115,-0.555,0.818,-0.189
17.125,-0.551,0.818,-0.189
17.135,-0.551,0.818,-0.189
17.145,-0.551,0.816,-0.188
17.154,-0.553,0.816,-0.186
17.164,-0.549,0.814,-0.191
17.174,-0.551,0.812,-0.189
17.184,-0.555,0.812,-0.189
17.194,-0.553,0.814,-0.189
17.204,-0.551,0.814,-0.191
17.214,-0.557,0.818,-0.191
17.224,-0.557,0.818,-0.189
17.234,-0.555,0.818,-0.189
17.244,-0.553,0.818,-0.189
17.254,-0.551,0.814,-0.189
17.264,-0.553,0.816,-0.188
17.274,-0.553,0.814,-0.189
17.284,-0.547,0.816,-0.188
17.293,-0.551,0.814,-0.188
17.303,-0.549,0.816,-0.188
17.313,-0.549,0.816,-0.189
17.323,-0.549,0.816,-0.191
17.333,-0.553,0.818,-0.189
17.343,-0.553,0.816,-0.188
17.353,-0.555,0.816,-0.188
17.363,-0.551,0.818,-0.189
17.373,-0.551,0.818,-0.189
17.383,-0.553,0.816,-0.188
17.393,-0.551,0.814,-0.188
17.403,-0.553,0.814,-0.191
17.413,-0.549,0.816,-0.189
17.423,-0.549,0.816,-0.186
17.433,-0.547,0.816,-0.186
17.442,-0.551,0.818,-0.186
17.452,-0.551,0.820,-0.189
17.462,-0.555,0.818,-0.186
17.472,-0.555,0.814,-0.188
17.482,-0.559,0.812,-0.188
17.492,-0.557,0.812,-0.188
17.502,-0.561,0.816,-0.186
17.512,-0.559,0.816,-0.186
17.522,-0.555,0.818,-0.186
17.532,-0.559,0.812,-0.184
17.542,-0.559,0.811,-0.184
17.552,-0.559,0.809,-0.186
17.562,-0.557,0.809,-0.186
17.572,-0.559,0.811,-0.189
17.581,-0.557,0.811,-0.186
17.591,-0.555,0.812,-0.184
17.601,-0.553,0.812,-0.184
17.611,-0.553,0.814,-0.186
17.621,-0.553,0.818,-0.182
17.631,-0.557,0.816,-0.186
17.641,-0.557,0.814,-0.184
17.651,-0.555,0.811,-0.188
17.661,-0.561,0.812,-0.188
17.671,-0.557,0.812,-0.188
17.681,-0.559,0.812,-0.188
17.691,-0.559,0.816,-0.186
17.701,-0.559,0.812,-0.184
17.711,-0.557,0.816,-0.186
17.721,-0.559,0.818,-0.184
17.730,-0.557,0.820,-0.184
17.740,-0.553,0.809,-0.186
17.750,-0.551,0.811,-0.188
17.760,-0.555,0.809,-0.186
17.770,-0.555,0.812,-0.184
17.780,-0.557,0.816,-0.184
17.790,-0.555,0.820,-0.186
17.800,-0.557,0.818,-0.186
17.810,-0.555,0.818,-0.184
17.820,-0.557,0.816,-0.188
17.830,-0.555,0.812,-0.188
17.840,-0.557,0.809,-0.189
17.850,-0.553,0.809,-0.188
17.860,-0.555,0.811,-0.189
17.869,-0.555,0.812,-0.188
17.879,-0.555,0.816,-0.184
17.889,-0.551,0.818,-0.189
17.899,-0.555,0.816,-0.186
17.909,-0.555,0.818,-0.188
17.919,-0.555,0.814,-0.189
17.929,-0.555,0.812,-0.188
17.939,-0.553,0.809,-0.189
17.949,-0.551,0.812,-0.189
17.959,-0.551,0.814,-0.191
17.969,-0.553,0.814,-0.191
17.979,-0.553,0.816,-0.189
17.989,-0.553,0.816,-0.189
17.999,-0.553,0.818,-0.191
18.009,-0.555,0.818,-0.189
18.018,-0.553,0.818,-0.189
18.028,-0.557,0.818,-0.189
18.038,-0.553,0.816,-0.188
18.048,-0.557,0.818,-0.191
18.058,-0.555,0.816,-0.189
18.068,-0.553,0.814,-0.189
18.078,-0.557,0.812,-0.188
18.088,-0.555,0.812,-0.188
18.098,-0.557,0.812,-0.189
18.108,-0.559,0.812,-0.189
18.118,-0.559,0.809,-0.191
18.128,-0.561,0.811,-0.188
18.138,-0.561,0.811,-0.186
18.148,-0.561,0.811,-0.188
18.158,-0.561,0.812,-0.189
18.167,-0.562,0.809,-0.189
18.177,-0.561,0.811,-0.188
18.187,-0.559,0.809,-0.186
18.197,-0.561,0.809,-0.186
18.207,-0.562,0.811,-0.186
18.217,-0.561,0.811,-0.186
18.227,-0.562,0.809,-0.188
18.237,-0.557,0.811,-0.188
18.247,-0.564,0.811,-0.186
18.257,-0.562,0.812,-0.188
18.267,-0.559,0.811,-0.184
18.277,-0.559,0.811,-0.189
18.287,-0.561,0.814,-0.189
18.297,-0.559,0.811,-0.188
18.306,-0.559,0.811,-0.188
18.316,-0.555,0.809,-0.188
18.326,-0.553,0.809,-0.188
18.336,-0.555,0.814,-0.186
18.346,-0.557,0.818,-0.186
18.356,-0.555,0.818,-0.186
18.366,-0.555,0.816,-0.188
18.376,-0.559,0.814,-0.191
18.386,-0.561,0.811,-0.189
18.396,-0.561,0.811,-0.188
18.406,-0.562,0.814,-0.186
18.416,-0.559,0.816,-0.186
18.426,-0.557,0.814,-0.188
18.436,-0.559,0.816,-0.186
18.446,-0.557,0.814,-0.186
18.455,-0.557,0.812,-0.188
18.465,-0.555,0.811,-0.189
18.475,-0.553,0.812,-0.186
18.485,-0.555,0.811,-0.188
18.495,-0.555,0.811,-0.186
18.505,-0.551,0.812,-0.188
18.515,-0.555,0.814,-0.186
18.525,-0.561,0.812,-0.188
18.535,-0.561,0.812,-0.186
18.545,-0.564,0.811,-0.186
18.555,-0.562,0.809,-0.189
18.565,-0.566,0.811,-0.191
18.575,-0.564,0.811,-0.188
18.585,-0.564,0.812,-0.189
18.594,-0.559,0.811,-0.186
18.604,-0.559,0.812,-0.186
18.614,-0.559,0.812,-0.186
18.624,-0.561,0.814,-0.186
18.634,-0.555,0.809,-0.186
18.644,-0.555,0.805,-0.188
18.654,-0.553,0.807,-0.186
18.664,-0.553,0.811,-0.188
18.674,-0.557,0.809,-0.186
18.684,-0.555,0.814,-0.184
18.694,-0.555,0.814,-0.189
18.704,-0.557,0.812,-0.186
18.714,-0.557,0.812,-0.188
18.724,-0.557,0.812,-0.189
18.734,-0.557,0.809,-0.191
18.743,-0.559,0.811,-0.188
18.753,-0.557,0.812,-0.188
18.763,-0.557,0.814,-0.188
18.773,-0.555,0.816,-0.188
18.783,-0.555,0.818,-0.189
18.793,-0.555,0.818,-0.188
18.803,-0.557,0.818,-0.188
18.813,-0.557,0.816,-0.186
18.823,-0.555,0.811,-0.188
18.833,-0.555,0.812,-0.189
18.843,-0.555,0.811,-0.191
18.853,-0.555,0.814,-0.193
18.863,-0.557,0.811,-0.191
18.873,-0.553,0.811,-0.193
18.882,-0.559,0.814,-0.191
18.892,-0.559,0.816,-0.186
18.902,-0.557,0.816,-0.189
18.912,-0.557,0.814,-0.189
18.922,-0.557,0.814,-0.186
18.932,-0.557,0.814,-0.191
18.942,-0.557,0.812,-0.188
18.952,-0.555,0.812,-0.193
18.962,-0.557,0.811,-0.191
18.972,-0.555,0.809,-0.189
18.982,-0.557,0.812,-0.188
18.992,-0.557,0.811,-0.186
19.002,-0.557,0.811,-0.191
19.012,-0.557,0.811,-0.191
19.022,-0.557,0.809,-0.186
19.031,-0.557,0.811,-0.188
19.041,-0.557,0.809,-0.189
19.051,-0.559,0.814,-0.188
19.061,-0.555,0.816,-0.186
19.071,-0.547,0.818,-0.184
19.081,-0.547,0.820,-0.182
19.091,-0.545,0.818,-0.186
19.101,-0.545,0.820,-0.186
19.111,-0.549,0.822,-0.191
19.121,-0.553,0.816,-0.189
19.131,-0.557,0.814,-0.191
19.141,-0.561,0.811,-0.189
19.151,-0.561,0.814,-0.191
19.161,-0.559,0.812,-0.189
19.170,-0.562,0.816,-0.189
19.180,-0.557,0.826,-0.182
19.190,-0.555,0.812,-0.188
19.200,-0.555,0.814,-0.188
19.210,-0.551,0.812,-0.188
19.220,-0.557,0.811,-0.186
19.230,-0.559,0.811,-0.189
19.240,-0.561,0.811,-0.189
19.250,-0.559,0.809,-0.184
19.260,-0.557,0.809,-0.186
19.270,-0.562,0.807,-0.188
19.280,-0.562,0.811,-0.188
19.290,-0.559,0.814,-0.188
19.300,-0.561,0.811,-0.184
19.310,-0.561,0.809,-0.186
19.319,-0.557,0.809,-0.188
19.329,-0.557,0.812,-0.186
19.339,-0.553,0.812,-0.184
19.349,-0.555,0.814,-0.184
19.359,-0.555,0.816,-0.184
19.369,-0.555,0.820,-0.184
19.379,-0.557,0.818,-0.184
19.389,-0.557,0.818,-0.184
19.399,-0.557,0.816,-0.186
19.409,-0.557,0.818,-0.188
19.419,-0.559,0.814,-0.186
19.429,-0.557,0.812,-0.186
19.439,-0.561,0.814,-0.186
19.449,-0.562,0.816,-0.184
19.458,-0.559,0.814,-0.188
19.468,-0.557,0.811,-0.186
19.478,-0.557,0.807,-0.189
19.488,-0.555,0.811,-0.186
19.498,-0.555,0.814,-0.188
19.508,-0.557,0.814,-0.188
19.518,-0.557,0.814,-0.186
19.528,-0.557,0.816,-0.188
19.538,-0.557,0.812,-0.186
19.548,-0.557,0.812,-0.188
19.558,-0.555,0.814,-0.186
19.568,-0.555,0.811,-0.188
19.578,-0.555,0.812,-0.188
19.588,-0.555,0.814,-0.189
19.598,-0.555,0.814,-0.191
19.607,-0.557,0.814,-0.189
19.617,-0.559,0.814,-0.186
19.627,-0.555,0.816,-0.188
19.637,-0.557,0.814,-0.189
19.647,-0.555,0.814,-0.189
19.657,-0.557,0.812,-0.188
19.667,-0.557,0.811,-0.188
19.677,-0.559,0.811,-0.188
19.687,-0.557,0.812,-0.191
19.697,-0.557,0.812,-0.189
19.707,-0.557,0.812,-0.188
19.717,-0.557,0.812,-0.191
19.727,-0.555,0.816,-0.189
19.737,-0.559,0.816,-0.191
19.746,-0.555,0.811,-0.189
19.756,-0.553,0.816,-0.188
19.766,-0.557,0.814,-0.189
19.776,-0.555,0.814,-0.188
19.786,-0.559,0.814,-0.188
19.796,-0.557,0.814,-0.189
19.806,-0.559,0.812,-0.188
19.816,-0.559,0.814,-0.189
19.826,-0.559,0.814,-0.189
19.836,-0.559,0.814,-0.188
19.846,-0.555,0.814,-0.188
19.856,-0.555,0.812,-0.191
19.866,-0.559,0.816,-0.188
19.876,-0.557,0.811,-0.189
19.886,-0.557,0.811,-0.189
19.895,-0.555,0.811,-0.188
19.905,-0.555,0.812,-0.191
19.915,-0.557,0.811,-0.188
19.925,-0.555,0.811,-0.191
19.935,-0.559,0.814,-0.188
19.945,-0.559,0.814,-0.189
19.955,-0.561,0.812,-0.193
19.965,-0.559,0.814,-0.189
19.975,-0.557,0.814,-0.188
19.985,-0.555,0.814,-0.189
19.995,-0.559,0.814,-0.189
20.005,-0.555,0.812,-0.189
20.015,-0.557,0.814,-0.188
20.025,-0.553,0.809,-0.189
20.035,-0.551,0.812,-0.189
20.044,-0.555,0.816,-0.184
20.054,-0.557,0.820,-0.186
20.064,-0.557,0.816,-0.186
20.074,-0.555,0.812,-0.189
20.084,-0.557,0.811,-0.184
20.094,-0.559,0.811,-0.188
20.104,-0.562,0.812,-0.189
20.114,-0.562,0.812,-0.184
20.124,-0.559,0.814,-0.184
20.134,-0.561,0.812,-0.188
20.144,-0.564,0.814,-0.186
20.154,-0.561,0.811,-0.189
20.164,-0.562,0.807,-0.189
20.174,-0.566,0.811,-0.186
20.183,-0.559,0.812,-0.188
20.193,-0.555,0.814,-0.186
20.203,-0.557,0.814,-0.184
20.213,-0.555,0.812,-0.186
20.223,-0.553,0.814,-0.188
20.233,-0.559,0.814,-0.188
20.243,-0.557,0.812,-0.188
20.253,-0.561,0.812,-0.189
20.263,-0.561,0.811,-0.188
20.273,-0.562,0.812,-0.188
20.283,-0.561,0.812,-0.188
20.293,-0.561,0.814,-0.188
20.303,-0.561,0.812,-0.188
20.313,-0.555,0.812,-0.188
20.323,-0.557,0.814,-0.188
20.332,-0.557,0.818,-0.188
20.342,-0.553,0.812,-0.188
20.352,-0.549,0.811,-0.189
20.362,-0.555,0.811,-0.188
20.372,-0.551,0.812,-0.188
20.382,-0.553,0.816,-0.188
20.392,-0.553,0.814,-0.186
20.402,-0.553,0.816,-0.184
20.412,-0.553,0.820,-0.186
20.422,-0.559,0.820,-0.186
20.432,-0.557,0.818,-0.186
20.442,-0.557,0.816,-0.189
20.452,-0.557,0.812,-0.188
20.462,-0.557,0.811,-0.189
20.471,-0.555,0.816,-0.188
20.481,-0.557,0.814,-0.191
20.491,-0.557,0.814,-0.184
20.501,-0.557,0.816,-0.186
20.511,-0.557,0.814,-0.184
20.521,-0.555,0.812,-0.188
20.531,-0.557,0.812,-0.186
20.541,-0.557,0.811,-0.186
20.551,-0.559,0.811,-0.189
20.561,-0.557,0.812,-0.189
20.571,-0.561,0.811,-0.191
20.581,-0.561,0.809,-0.191
20.591,-0.559,0.814,-0.189
20.601,-0.559,0.814,-0.188
20.611,-0.561,0.812,-0.193
20.620,-0.562,0.811,-0.189
20.630,-0.557,0.811,-0.188
20.640,-0.559,0.812,-0.186
20.650,-0.557,0.818,-0.184
20.660,-0.557,0.814,-0.189
20.670,-0.559,0.814,-0.182
20.680,-0.559,0.814,-0.188
20.690,-0.557,0.814,-0.188
20.700,-0.559,0.812,-0.186
20.710,-0.557,0.811,-0.186
20.720,-0.557,0.809,-0.186
20.730,-0.562,0.809,-0.191
20.740,-0.557,0.811,-0.189
20.750,-0.557,0.812,-0.186
20.759,-0.561,0.812,-0.188
20.769,-0.561,0.809,-0.189
20.779,-0.561,0.812,-0.188
20.789,-0.559,0.816,-0.188
20.799,-0.557,0.812,-0.188
20.809,-0.555,0.814,-0.188
20.819,-0.555,0.812,-0.188
20.829,-0.551,0.816,-0.189
20.839,-0.557,0.814,-0.186
20.849,-0.555,0.816,-0.188
20.859,-0.551,0.816,-0.188
20.869,-0.555,0.814,-0.188
20.879,-0.555,0.816,-0.189
20.889,-0.557,0.818,-0.189
20.899,-0.559,0.814,-0.188
20.908,-0.559,0.814,-0.188
20.918,-0.557,0.812,-0.188
20.928,-0.557,0.812,-0.188
20.938,-0.555,0.812,-0.188
20.948,-0.555,0.814,-0.188
20.958,-0.555,0.814,-0.188
20.968,-0.555,0.818,-0.182
20.978,-0.557,0.814,-0.184
20.988,-0.555,0.814,-0.188
20.998,-0.562,0.807,-0.188
21.008,-0.564,0.811,-0.184
21.018,-0.562,0.811,-0.184
21.028,-0.564,0.814,-0.184
21.038,-0.562,0.812,-0.184
21.047,-0.562,0.814,-0.184
21.057,-0.564,0.812,-0.184
21.067,-0.566,0.809,-0.184
21.077,-0.566,0.805,-0.184
21.087,-0.562,0.807,-0.186
21.097,-0.559,0.809,-0.186
21.107,-0.561,0.807,-0.186
21.117,-0.559,0.811,-0.186
21.127,-0.555,0.811,-0.182
21.137,-0.557,0.812,-0.184
21.147,-0.559,0.812,-0.182
21.157,-0.559,0.814,-0.184
21.167,-0.561,0.814,-0.184
21.177,-0.561,0.812,-0.182
21.187,-0.562,0.814,-0.182
21.196,-0.562,0.812,-0.186
21.206,-0.562,0.818,-0.188
21.216,-0.561,0.812,-0.188
21.226,-0.559,0.812,-0.186
21.236,-0.562,0.816,-0.189
21.246,-0.561,0.816,-0.184
21.256,-0.555,0.814,-0.184
21.266,-0.555,0.809,-0.184
21.276,-0.557,0.809,-0.186
21.286,-0.555,0.807,-0.188
21.296,-0.561,0.811,-0.186
21.306,-0.559,0.812,-0.184
21.316,-0.557,0.812,-0.189
21.326,-0.559,0.814,-0.184
21.335,-0.559,0.812,-0.184
21.345,-0.561,0.811,-0.186
21.355,-0.561,0.812,-0.188
21.365,-0.559,0.812,-0.188
21.375,-0.561,0.811,-0.186
21.385,-0.559,0.814,-0.188
21.395,-0.559,0.812,-0.188
21.405,-0.557,0.816,-0.188
21.415,-0.557,0.812,-0.188
21.425,-0.557,0.816,-0.189
21.435,-0.557,0.816,-0.189
21.445,-0.561,0.812,-0.188
21.455,-0.559,0.812,-0.186
21.465,-0.559,0.812,-0.191
21.475,-0.561,0.812,-0.189
21.484,-0.559,0.812,-0.191
21.494,-0.559,0.812,-0.191
21.504,-0.559,0.812,-0.189
21.514,-0.559,0.814,-0.189
21.524,-0.557,0.814,-0.188
21.534,-0.559,0.814,-0.189
21.544,-0.559,0.812,-0.188
21.554,-0.559,0.814,-0.186
21.564,-0.561,0.811,-0.189
21.574,-0.561,0.812,-0.188
21.584,-0.559,0.811,-0.189
21.594,-0.559,0.811,-0.189
21.604,-0.561,0.812,-0.188
21.614,-0.561,0.809,-0.189
21.624,-0.559,0.811,-0.188
21.633,-0.559,0.809,-0.186
21.643,-0.557,0.812,-0.191
21.653,-0.557,0.814,-0.189
21.663,-0.559,0.811,-0.186
21.673,-0.557,0.811,-0.191
21.683,-0.557,0.811,-0.189
21.693,-0.557,0.809,-0.188
21.703,-0.555,0.811,-0.189
21.713,-0.557,0.811,-0.189
21.723,-0.555,0.816,-0.188
21.733,-0.559,0.816,-0.189
21.743,-0.559,0.818,-0.188
21.753,-0.557,0.818,-0.186
21.763,-0.557,0.818,-0.189
21.772,-0.559,0.814,-0.188
21.782,-0.557,0.812,-0.186
21.792,-0.553,0.814,-0.191
21.802,-0.559,0.812,-0.189
21.812,-0.557,0.812,-0.189
21.822,-0.557,0.814,-0.189
21.832,-0.557,0.812,-0.189
21.842,-0.557,0.812,-0.188
21.852,-0.557,0.812,-0.189
21.862,-0.557,0.818,-0.189
21.872,-0.557,0.814,-0.188
21.882,-0.557,0.816,-0.189
21.892,-0.559,0.814,-0.193
21.902,-0.561,0.811,-0.191
21.912,-0.561,0.814,-0.186
21.921,-0.561,0.812,-0.186
21.931,-0.562,0.816,-0.186
21.941,-0.562,0.814,-0.189
21.951,-0.559,0.812,-0.188
21.961,-0.561,0.814,-0.188
21.971,-0.562,0.809,-0.188
21.981,-0.561,0.809,-0.188
21.991,-0.559,0.809,-0.186
22.001,-0.559,0.807,-0.188
22.011,-0.557,0.811,-0.184
22.021,-0.555,0.814,-0.188
22.031,-0.559,0.814,-0.184
22.041,-0.559,0.811,-0.184
22.051,-0.561,0.809,-0.188
22.060,-0.559,0.812,-0.188
22.070,-0.561,0.811,-0.191
22.080,-0.562,0.811,-0.186
22.090,-0.561,0.809,-0.189
22.100,-0.562,0.812,-0.189
22.110,-0.561,0.809,-0.186
22.120,-0.559,0.814,-0.186
22.130,-0.559,0.816,-0.188
22.140,-0.555,0.816,-0.186
22.150,-0.553,0.811,-0.189
22.160,-0.555,0.811,-0.188
22.170,-0.557,0.809,-0.188
22.180,-0.555,0.812,-0.186
22.190,-0.553,0.812,-0.189
22.200,-0.551,0.814,-0.186
22.209,-0.555,0.818,-0.188
22.219,-0.555,0.818,-0.189
22.229,-0.555,0.814,-0.186
22.239,-0.557,0.818,-0.189
22.249,-0.553,0.814,-0.189
22.259,-0.553,0.814,-0.191
22.269,-0.557,0.814,-0.189
22.279,-0.555,0.816,-0.189
22.289,-0.551,0.816,-0.188
22.299,-0.555,0.818,-0.189
22.309,-0.553,0.814,-0.188
22.319,-0.551,0.816,-0.191
22.329,-0.555,0.816,-0.188
22.339,-0.557,0.812,-0.191
22.348,-0.557,0.812,-0.193
22.358,-0.555,0.812,-0.189
22.368,-0.557,0.812,-0.189
22.378,-0.557,0.811,-0.191
22.388,-0.555,0.812,-0.188
22.398,-0.555,0.814,-0.188
22.408,-0.557,0.814,-0.189
22.418,-0.559,0.814,-0.188
22.428,-0.557,0.816,-0.189
22.438,-0.559,0.816,-0.191
22.448,-0.555,0.812,-0.189
22.458,-0.555,0.816,-0.188
22.468,-0.557,0.812,-0.191
22.478,-0.557,0.812,-0.189
22.488,-0.555,0.812,-0.189
22.497,-0.559,0.812,-0.191
22.507,-0.559,0.812,-0.191
22.517,-0.557,0.812,-0.189
22.527,-0.557,0.814,-0.188
22.537,-0.559,0.812,-0.189
22.547,-0.555,0.814,-0.188
22.557,-0.557,0.812,-0.188
22.567,-0.555,0.812,-0.189
22.577,-0.555,0.809,-0.191
22.587,-0.557,0.809,-0.189
22.597,-0.557,0.811,-0.191
22.607,-0.561,0.811,-0.191
22.617,-0.559,0.814,-0.189
22.627,-0.561,0.816,-0.189
22.636,-0.559,0.816,-0.191
22.646,-0.559,0.814,-0.191
22.656,-0.557,0.811,-0.189
22.666,-0.557,0.814,-0.189
22.676,-0.557,0.811,-0.193
22.686,-0.555,0.814,-0.191
22.696,-0.557,0.812,-0.189
22.706,-0.553,0.811,-0.189
22.716,-0.555,0.814,-0.186
22.726,-0.555,0.818,-0.189
22.736,-0.559,0.818,-0.186
22.746,-0.557,0.820,-0.188
22.756,-0.555,0.816,-0.189
22.766,-0.557,0.814,-0.188
22.776,-0.555,0.814,-0.186
22.785,-0.557,0.818,-0.188
22.795,-0.555,0.816,-0.188
22.805,-0.555,0.814,-0.186
22.815,-0.553,0.814,-0.186
22.825,-0.557,0.814,-0.188
22.835,-0.561,0.812,-0.186
22.845,-0.561,0.809,-0.186
22.855,-0.562,0.811,-0.189
22.865,-0.562,0.809,-0.188
22.875,-0.562,0.807,-0.189
22.885,-0.562,0.809,-0.186
22.895,-0.559,0.811,-0.188
22.905,-0.561,0.811,-0.186
22.915,-0.559,0.809,-0.189
22.924,-0.562,0.809,-0.188
22.934,-0.561,0.809,-0.188
22.944,-0.562,0.809,-0.188
22.954,-0.562,0.812,-0.188
22.964,-0.561,0.814,-0.186
22.974,-0.561,0.816,-0.188
22.984,-0.557,0.811,-0.182
22.994,-0.559,0.818,-0.186
23.004,-0.555,0.822,-0.184
23.014,-0.555,0.818,-0.182
23.024,-0.553,0.809,-0.188
23.034,-0.555,0.809,-0.189
23.044,-0.557,0.809,-0.188
23.054,-0.557,0.812,-0.189
23.064,-0.559,0.811,-0.186
23.073,-0.557,0.812,-0.188
23.083,-0.559,0.818,-0.189
23.093,-0.557,0.818,-0.186
23.103,-0.557,0.814,-0.188
23.113,-0.557,0.814,-0.186
23.123,-0.553,0.811,-0.188
23.133,-0.553,0.811,-0.191
23.143,-0.557,0.812,-0.188
23.153,-0.553,0.816,-0.186
23.163,-0.555,0.816,-0.188
23.173,-0.557,0.816,-0.186
23.183,-0.555,0.816,-0.186
23.193,-0.557,0.814,-0.186
23.203,-0.557,0.814,-0.188
23.213,-0.555,0.814,-0.189
23.222,-0.559,0.812,-0.188
23.232,-0.559,0.812,-0.191
23.242,-0.557,0.811,-0.193
23.252,-0.553,0.812,-0.191
23.262,-0.557,0.812,-0.189
23.272,-0.557,0.812,-0.186
23.282,-0.557,0.814,-0.189
23.292,-0.553,0.812,-0.189
23.302,-0.559,0.814,-0.193
23.312,-0.559,0.812,-0.189
23.322,-0.557,0.816,-0.189
23.332,-0.555,0.816,-0.186
23.342,-0.561,0.814,-0.189
23.352,-0.559,0.816,-0.191
23.361,-0.559,0.814,-0.191
23.371,-0.555,0.812,-0.189
23.381,-0.559,0.811,-0.188
23.391,-0.561,0.811,-0.188
23.401,-0.555,0.811,-0.188
23.411,-0.557,0.814,-0.188
23.421,-0.559,0.812,-0.189
23.431,-0.555,0.811,-0.188
23.441,-0.557,0.814,-0.186
23.451,-0.557,0.812,-0.186
23.461,-0.557,0.812,-0.186
23.471,-0.555,0.811,-0.186
23.481,-0.557,0.812,-0.186
23.491,-0.557,0.811,-0.188
23.501,-0.559,0.812,-0.188
23.510,-0.559,0.811,-0.189
23.520,-0.562,0.814,-0.188
23.530,-0.562,0.811,-0.186
23.540,-0.557,0.812,-0.188
23.550,-0.561,0.814,-0.191
23.560,-0.561,0.816,-0.189
23.570,-0.559,0.811,-0.189
23.580,-0.559,0.812,-0.188
23.590,-0.553,0.812,-0.186
23.600,-0.555,0.816,-0.184
23.610,-0.557,0.816,-0.186
23.620,-0.557,0.818,-0.186
23.630,-0.553,0.818,-0.188
23.640,-0.553,0.814,-0.188
23.649,-0.561,0.809,-0.186
23.659,-0.564,0.811,-0.186
23.669,-0.564,0.811,-0.186
23.679,-0.564,0.814,-0.186
23.689,-0.564,0.812,-0.184
23.699,-0.562,0.812,-0.186
23.709,-0.564,0.811,-0.188
23.719,-0.562,0.812,-0.186
23.729,-0.561,0.809,-0.186
23.739,-0.559,0.811,-0.186
23.749,-0.559,0.809,-0.184
23.759,-0.559,0.811,-0.188
23.769,-0.553,0.811,-0.186
23.779,-0.555,0.814,-0.186
23.789,-0.557,0.814,-0.184
23.798,-0.557,0.812,-0.184
23.808,-0.559,0.814,-0.184
23.818,-0.557,0.812,-0.184
23.828,-0.557,0.814,-0.184
23.838,-0.559,0.812,-0.184
23.848,-0.562,0.812,-0.184
23.858,-0.562,0.814,-0.186
23.868,-0.562,0.812,-0.186
23.878,-0.561,0.812,-0.184
23.888,-0.561,0.812,-0.186
23.898,-0.561,0.818,-0.182
23.908,-0.557,0.814,-0.186
23.918,-0.555,0.811,-0.186
23.928,-0.557,0.811,-0.186
23.937,-0.557,0.811,-0.184
23.947,-0.561,0.812,-0.186
23.957,-0.559,0.814,-0.186
23.967,-0.559,0.812,-0.184
23.977,-0.559,0.814,-0.184
23.987,-0.561,0.816,-0.182
23.997,-0.559,0.812,-0.184
24.007,-0.559,0.812,-0.189
24.017,-0.559,0.809,-0.186
24.027,-0.557,0.811,-0.188
24.037,-0.555,0.809,-0.188
24.047,-0.557,0.812,-0.188
24.057,-0.557,0.811,-0.186
24.067,-0.561,0.816,-0.189
24.077,-0.562,0.818,-0.186
24.086,-0.561,0.818,-0.186
24.096,-0.557,0.814,-0.188
24.106,-0.559,0.811,-0.189
24.116,-0.559,0.812,-0.189
24.126,-0.559,0.811,-0.189
24.136,-0.561,0.809,-0.189
24.146,-0.561,0.812,-0.193
24.156,-0.562,0.809,-0.193
24.166,-0.561,0.811,-0.189
24.176,-0.564,0.814,-0.189
24.186,-0.559,0.816,-0.188
24.196,-0.561,0.814,-0.188
24.206,-0.559,0.812,-0.188
24.216,-0.557,0.814,-0.186
24.225,-0.555,0.814,-0.186
24.235,-0.557,0.811,-0.186
24.245,-0.559,0.809,-0.188
24.255,-0.559,0.809,-0.186
24.265,-0.562,0.812,-0.189
24.275,-0.562,0.812,-0.186
24.285,-0.562,0.811,-0.188
24.295,-0.561,0.812,-0.188
24.305,-0.559,0.811,-0.188
24.315,-0.561,0.816,-0.188
24.325,-0.561,0.814,-0.188
24.335,-0.562,0.811,-0.186
24.345,-0.553,0.812,-0.186
24.355,-0.557,0.811,-0.188
24.365,-0.557,0.811,-0.189
24.374,-0.557,0.809,-0.189
24.384,-0.559,0.812,-0.186
24.394,-0.561,0.816,-0.188
24.404,-0.561,0.816,-0.188
24.414,-0.561,0.816,-0.189
24.424,-0.557,0.812,-0.188
24.434,-0.557,0.816,-0.189
24.444,-0.559,0.812,-0.191
24.454,-0.559,0.814,-0.188
24.464,-0.559,0.811,-0.189
24.474,-0.553,0.811,-0.189
24.484,-0.553,0.812,-0.186
24.494,-0.557,0.816,-0.188
24.504,-0.562,0.818,-0.188
24.513,-0.557,0.818,-0.184
24.523,-0.555,0.818,-0.186
24.533,-0.559,0.812,-0.189
24.543,-0.559,0.809,-0.189
24.553,-0.562,0.812,-0.186
24.563,-0.566,0.812,-0.188
24.573,-0.561,0.812,-0.186
24.583,-0.559,0.812,-0.186
24.593,-0.561,0.811,-0.184
24.603,-0.566,0.814,-0.184
24.613,-0.562,0.809,-0.189
24.623,-0.562,0.811,-0.186
24.633,-0.559,0.811,-0.186
24.643,-0.559,0.809,-0.186
24.653,-0.557,0.807,-0.184
24.662,-0.555,0.811,-0.186
24.672,-0.557,0.807,-0.184
24.682,-0.561,0.809,-0.189
24.692,-0.561,0.809,-0.188
24.702,-0.564,0.812,-0.188
24.712,-0.564,0.809,-0.191
24.722,-0.562,0.812,-0.188
24.732,-0.564,0.811,-0.189
24.742,-0.564,0.811,-0.189
24.752,-0.562,0.809,-0.184
24.762,-0.559,0.812,-0.184
24.772,-0.562,0.816,-0.186
24.782,-0.557,0.818,-0.184
24.792,-0.555,0.809,-0.188
24.801,-0.555,0.811,-0.189
24.811,-0.557,0.809,-0.189
24.821,-0.559,0.809,-0.188
24.831,-0.559,0.814,-0.188
24.841,-0.555,0.816,-0.188
24.851,-0.559,0.816,-0.186
24.861,-0.557,0.814,-0.186
24.871,-0.561,0.812,-0.189
24.881,-0.559,0.812,-0.188
24.891,-0.561,0.811,-0.191
24.901,-0.557,0.809,-0.191
24.911,-0.559,0.811,-0.193
24.921,-0.559,0.814,-0.189
24.931,-0.559,0.816,-0.189
24.941,-0.559,0.816,-0.189
24.950,-0.557,0.814,-0.189
24.960,-0.557,0.811,-0.186
24.970,-0.557,0.816,-0.189
24.980,-0.559,0.812,-0.188
24.990,-0.559,0.812,-0.193
25.000,-0.557,0.807,-0.189
25.010,-0.561,0.809,-0.193
25.020,-0.561,0.809,-0.193
25.030,-0.561,0.812,-0.193
25.040,-0.561,0.812,-0.191
25.050,-0.561,0.814,-0.193
25.060,-0.561,0.814,-0.193
25.070,-0.562,0.814,-0.188
25.080,-0.555,0.812,-0.191
25.090,-0.555,0.812,-0.189
25.099,-0.557,0.814,-0.188
25.109,-0.555,0.814,-0.188
25.119,-0.555,0.812,-0.189
25.129,-0.557,0.812,-0.189
25.139,-0.557,0.814,-0.189
25.149,-0.559,0.812,-0.188
25.159,-0.562,0.814,-0.188
25.169,-0.559,0.811,-0.189
25.179,-0.559,0.811,-0.189
25.189,-0.561,0.809,-0.191
25.199,-0.562,0.809,-0.189
25.209,-0.561,0.812,-0.189
25.219,-0.561,0.814,-0.189
25.229,-0.561,0.812,-0.188
25.238,-0.559,0.814,-0.186
25.248,-0.557,0.812,-0.191
25.258,-0.557,0.814,-0.189
25.268,-0.555,0.812,-0.188
25.278,-0.557,0.812,-0.188
25.288,-0.557,0.809,-0.188
25.298,-0.553,0.811,-0.189
25.308,-0.555,0.812,-0.189
25.318,-0.557,0.812,-0.186
25.328,-0.555,0.812,-0.186
25.338,-0.559,0.820,-0.188
25.348,-0.557,0.818,-0.188
25.358,-0.557,0.818,-0.188
25.368,-0.561,0.814,-0.191
25.378,-0.557,0.812,-0.191
25.387,-0.561,0.814,-0.188
25.397,-0.559,0.814,-0.186
25.407,-0.561,0.816,-0.188
25.417,-0.557,0.814,-0.184
25.427,-0.559,0.811,-0.188
25.437,-0.561,0.812,-0.188
25.447,-0.562,0.811,-0.188
25.457,-0.562,0.811,-0.193
25.467,-0.561,0.809,-0.184
25.477,-0.559,0.807,-0.188
25.487,-0.559,0.807,-0.186
25.497,-0.559,0.809,-0.182
25.507,-0.557,0.811,-0.189
25.517,-0.561,0.811,-0.189
25.526,-0.562,0.814,-0.188
25.536,-0.564,0.811,-0.188
25.546,-0.564,0.811,-0.189
25.556,-0.564,0.812,-0.189
25.566,-0.562,0.814,-0.189
25.576,-0.562,0.811,-0.188
25.586,-0.559,0.814,-0.186
25.596,-0.561,0.816,-0.189
25.606,-0.561,0.820,-0.188
25.616,-0.559,0.811,-0.188
25.626,-0.559,0.807,-0.189
25.636,-0.561,0.809,-0.186
25.646,-0.559,0.805,-0.189
25.656,-0.555,0.809,-0.188
25.666,-0.559,0.812,-0.189
25.675,-0.559,0.814,-0.184
25.685,-0.561,0.816,-0.188
25.695,-0.561,0.818,-0.189
25.705,-0.562,0.812,-0.189
25.715,-0.561,0.811,-0.191
25.725,-0.561,0.809,-0.193
25.735,-0.557,0.811,-0.191
25.745,-0.559,0.812,-0.189
25.755,-0.559,0.812,-0.191
25.765,-0.557,0.812,-0.191
25.775,-0.555,0.814,-0.193
25.785,-0.559,0.812,-0.189
25.795,-0.557,0.811,-0.191
25.805,-0.561,0.812,-0.191
25.814,-0.559,0.809,-0.193
25.824,-0.557,0.809,-0.191
25.834,-0.557,0.812,-0.193
25.844,-0.559,0.812,-0.197
25.854,-0.557,0.812,-0.189
25.864,-0.561,0.814,-0.195
25.874,-0.561,0.814,-0.193
25.884,-0.559,0.812,-0.189
25.894,-0.561,0.814,-0.189
25.904,-0.559,0.811,-0.191
25.914,-0.557,0.812,-0.191
25.924,-0.557,0.811,-0.189
25.934,-0.561,0.812,-0.193
25.944,-0.557,0.811,-0.191
25.954,-0.559,0.812,-0.191
25.963,-0.557,0.812,-0.193
25.973,-0.559,0.812,-0.189
25.983,-0.561,0.812,-0.191
25.993,-0.559,0.811,-0.191
26.003,-0.561,0.811,-0.193
26.013,-0.557,0.812,-0.189
26.023,-0.555,0.812,-0.191
26.033,-0.561,0.811,-0.193
26.043,-0.557,0.811,-0.189
26.053,-0.559,0.812,-0.188
26.063,-0.561,0.812,-0.189
26.073,-0.562,0.814,-0.189
26.083,-0.561,0.812,-0.189
26.093,-0.559,0.811,-0.186
26.102,-0.559,0.812,-0.191
26.112,-0.562,0.812,-0.189
26.122,-0.561,0.811,-0.189
26.132,-0.557,0.809,-0.189
26.142,-0.557,0.811,-0.189
26.152,-0.557,0.811,-0.188
26.162,-0.557,0.814,-0.188
26.172,-0.562,0.816,-0.188
26.182,-0.557,0.814,-0.189
26.192,-0.561,0.814,-0.188
26.202,-0.561,0.811,-0.191
26.212,-0.562,0.809,-0.191
26.222,-0.562,0.812,-0.189
26.232,-0.561,0.814,-0.189
26.242,-0.557,0.814,-0.189
26.251,-0.559,0.811,-0.189
26.261,-0.561,0.812,-0.188
26.271,-0.561,0.811,-0.188
26.281,-0.562,0.811,-0.191
26.291,-0.561,0.807,-0.186
26.301,-0.562,0.807,-0.189
26.311,-0.562,0.809,-0.188
26.321,-0.561,0.811,-0.188
26.331,-0.559,0.812,-0.186
26.341,-0.559,0.812,-0.184
26.351,-0.559,0.812,-0.184
26.361,-0.557,0.811,-0.184
26.371,-0.561,0.811,-0.188
26.381,-0.561,0.811,-0.188
26.390,-0.562,0.807,-0.188
26.400,-0.562,0.812,-0.188
26.410,-0.564,0.812,-0.189
26.420,-0.562,0.809,-0.186
26.430,-0.559,0.811,-0.184
26.440,-0.562,0.814,-0.186
26.450,-0.557,0.820,-0.184
26.460,-0.557,0.811,-0.184
26.470,-0.557,0.807,-0.189
26.480,-0.561,0.805,-0.189
26.490,-0.562,0.811,-0.186
26.500,-0.559,0.812,-0.186
26.510,-0.557,0.812,-0.188
26.520,-0.561,0.814,-0.188
26.530,-0.561,0.816,-0.188
26.539,-0.559,0.816,-0.184
26.549,-0.562,0.814,-0.189
26.559,-0.561,0.812,-0.189
26.569,-0.561,0.807,-0.189
26.579,-0.557,0.809,-0.188
26.589,-0.557,0.809,-0.188
26.599,-0.561,0.811,-0.193
26.609,-0.559,0.812,-0.186
26.619,-0.559,0.814,-0.189
26.629,-0.561,0.812,-0.189
26.639,-0.559,0.811,-0.188
26.649,-0.561,0.811,-0.191
26.659,-0.562,0.807,-0.191
26.669,-0.561,0.809,-0.191
26.679,-0.561,0.809,-0.189
26.688,-0.561,0.811,-0.191
26.698,-0.564,0.811,-0.193
26.708,-0.561,0.812,-0.191
26.718,-0.562,0.812,-0.191
26.728,-0.561,0.814,-0.189
26.738,-0.561,0.814,-0.189
26.748,-0.562,0.812,-0.188
26.758,-0.562,0.811,-0.186
26.768,-0.561,0.812,-0.188
26.778,-0.562,0.811,-0.186
26.788,-0.561,0.812,-0.188
26.798,-0.562,0.811,-0.189
26.808,-0.562,0.809,-0.191
26.818,-0.564,0.811,-0.191
26.827,-0.564,0.811,-0.191
26.837,-0.564,0.809,-0.191
26.847,-0.562,0.812,-0.186
26.857,-0.564,0.807,-0.188
26.867,-0.561,0.811,-0.189
26.877,-0.562,0.811,-0.188
26.887,-0.562,0.811,-0.186
26.897,-0.564,0.807,-0.189
26.907,-0.561,0.811,-0.189
26.917,-0.561,0.809,-0.188
26.927,-0.564,0.811,-0.189
26.937,-0.561,0.809,-0.188
26.947,-0.561,0.811,-0.189
26.957,-0.562,0.812,-0.188
26.967,-0.561,0.812,-0.188
26.976,-0.562,0.812,-0.189
26.986,-0.562,0.812,-0.189
26.996,-0.555,0.812,-0.188
27.006,-0.561,0.811,-0.184
27.016,-0.559,0.814,-0.188
27.026,-0.564,0.816,-0.188
27.036,-0.559,0.814,-0.189
27.046,-0.559,0.812,-0.189
27.056,-0.561,0.807,-0.189
27.066,-0.566,0.811,-0.189
27.076,-0.566,0.809,-0.188
27.086,-0.562,0.812,-0.188
27.096,-0.564,0.812,-0.188
27.106,-0.564,0.809,-0.186
27.115,-0.566,0.807,-0.186
27.125,-0.566,0.807,-0.186
27.135,-0.566,0.803,-0.186
27.145,-0.564,0.805,-0.189
27.155,-0.564,0.807,-0.188
27.165,-0.562,0.807,-0.186
27.175,-0.562,0.811,-0.186
27.185,-0.562,0.809,-0.184
27.195,-0.562,0.812,-0.184
27.205,-0.562,0.811,-0.184
27.215,-0.566,0.809,-0.188
27.225,-0.566,0.803,-0.186
27.235,-0.566,0.807,-0.188
27.245,-0.566,0.807,-0.188
27.255,-0.568,0.809,-0.189
27.264,-0.568,0.809,-0.186
27.274,-0.564,0.809,-0.184
27.284,-0.562,0.812,-0.186
27.294,-0.566,0.812,-0.184
27.304,-0.564,0.816,-0.184
27.314,-0.559,0.803,-0.184
27.324,-0.559,0.807,-0.184
27.334,-0.561,0.809,-0.189
27.344,-0.561,0.807,-0.189
27.354,-0.562,0.812,-0.189
27.364,-0.559,0.812,-0.184
27.374,-0.561,0.814,-0.186
27.384,-0.562,0.816,-0.184
27.394,-0.564,0.812,-0.184
27.403,-0.559,0.812,-0.186
27.413,-0.566,0.809,-0.188
27.423,-0.566,0.807,-0.188
27.433,-0.562,0.807,-0.188
27.443,-0.562,0.807,-0.189
27.453,-0.562,0.812,-0.188
27.463,-0.561,0.811,-0.188
27.473,-0.561,0.812,-0.188
27.483,-0.561,0.814,-0.188
27.493,-0.559,0.812,-0.188
27.503,-0.561,0.812,-0.188
27.513,-0.561,0.811,-0.188
27.523,-0.564,0.809,-0.186
27.533,-0.561,0.811,-0.189
27.543,-0.561,0.807,-0.191
27.552,-0.561,0.809,-0.191
27.562,-0.562,0.811,-0.193
27.572,-0.561,0.811,-0.191
27.582,-0.562,0.812,-0.191
27.592,-0.564,0.812,-0.191
27.602,-0.564,0.811,-0.188
27.612,-0.561,0.814,-0.189
27.622,-0.562,0.814,-0.189
27.632,-0.562,0.811,-0.189
27.642,-0.562,0.811,-0.189
27.652,-0.561,0.811,-0.193
27.662,-0.561,0.811,-0.189
27.672,-0.559,0.811,-0.189
27.682,-0.561,0.812,-0.189
27.691,-0.562,0.807,-0.191
27.701,-0.564,0.809,-0.191
27.711,-0.566,0.809,-0.191
27.721,-0.562,0.807,-0.188
27.731,-0.561,0.807,-0.193
27.741,-0.562,0.809,-0.189
27.751,-0.561,0.811,-0.189
27.761,-0.562,0.811,-0.189
27.771,-0.562,0.811,-0.189
27.781,-0.564,0.811,-0.189
27.791,-0.559,0.814,-0.191
27.801,-0.561,0.811,-0.189
27.811,-0.559,0.811,-0.188
27.821,-0.559,0.812,-0.191
27.831,-0.562,0.809,-0.191
27.840,-0.559,0.809,-0.189
27.850,-0.557,0.811,-0.189
27.860,-0.557,0.809,-0.188
27.870,-0.559,0.809,-0.189
27.880,-0.562,0.811,-0.188
27.890,-0.561,0.816,-0.189
27.900,-0.562,0.814,-0.189
27.910,-0.562,0.812,-0.191
27.920,-0.566,0.811,-0.191
27.930,-0.568,0.812,-0.189
27.940,-0.566,0.811,-0.189
27.950,-0.566,0.809,-0.188
27.960,-0.564,0.807,-0.188
27.970,-0.564,0.809,-0.191
27.979,-0.562,0.809,-0.184
27.989,-0.562,0.807,-0.188
27.999,-0.562,0.807,-0.184
28.009,-0.562,0.803,-0.186
28.019,-0.562,0.803,-0.188
28.029,-0.562,0.805,-0.186
28.039,-0.562,0.807,-0.188
28.049,-0.562,0.807,-0.184
28.059,-0.562,0.811,-0.189
28.069,-0.566,0.807,-0.186
28.079,-0.564,0.809,-0.188
28.089,-0.566,0.807,-0.186
28.099,-0.566,0.805,-0.191
28.109,-0.570,0.809,-0.191
28.119,-0.572,0.809,-0.191
28.128,-0.568,0.807,-0.188
28.138,-0.566,0.809,-0.189
28.148,-0.564,0.811,-0.186
28.158,-0.562,0.812,-0.188
28.168,-0.562,0.805,-0.188
28.178,-0.561,0.803,-0.188
28.188,-0.561,0.809,-0.189
28.198,-0.559,0.809,-0.189
28.208,-0.559,0.812,-0.189
28.218,-0.561,0.811,-0.193
28.228,-0.559,0.816,-0.193
28.238,-0.562,0.811,-0.191
28.248,-0.561,0.814,-0.186
28.258,-0.562,0.811,-0.191
28.267,-0.562,0.811,-0.195
28.277,-0.562,0.809,-0.193
28.287,-0.562,0.811,-0.193
28.297,-0.561,0.811,-0.191
28.307,-0.559,0.814,-0.195
28.317,-0.557,0.816,-0.193
28.327,-0.559,0.811,-0.195
28.337,-0.559,0.812,-0.193
28.347,-0.559,0.811,-0.191
28.357,-0.561,0.809,-0.195
28.367,-0.559,0.807,-0.195
28.377,-0.559,0.805,-0.195
28.387,-0.559,0.805,-0.193
28.397,-0.561,0.807,-0.191
28.407,-0.561,0.809,-0.195
28.416,-0.561,0.809,-0.189
28.426,-0.561,0.811,-0.195
28.436,-0.561,0.811,-0.193
28.446,-0.562,0.812,-0.197
28.456,-0.561,0.811,-0.193
28.466,-0.561,0.811,-0.195
28.476,-0.561,0.811,-0.193
28.486,-0.559,0.811,-0.191
28.496,-0.562,0.812,-0.199
28.506,-0.561,0.809,-0.197
28.516,-0.564,0.809,-0.195
28.526,-0.564,0.809,-0.193
28.536,-0.566,0.809,-0.195
28.546,-0.566,0.811,-0.197
28.556,-0.562,0.811,-0.195
28.565,-0.564,0.809,-0.193
28.575,-0.561,0.809,-0.191
28.585,-0.559,0.807,-0.191
28.595,-0.561,0.809,-0.191
28.605,-0.562,0.807,-0.191
28.615,-0.559,0.803,-0.191
28.625,-0.559,0.801,-0.189
28.635,-0.562,0.807,-0.191
28.645,-0.562,0.807,-0.191
28.655,-0.562,0.811,-0.191
28.665,-0.562,0.812,-0.189
28.675,-0.562,0.814,-0.191
28.685,-0.562,0.816,-0.191
28.695,-0.562,0.811,-0.193
28.704,-0.564,0.809,-0.193
28.714,-0.564,0.811,-0.193
28.724,-0.561,0.811,-0.191
28.734,-0.559,0.812,-0.189
28.744,-0.557,0.814,-0.191
28.754,-0.557,0.811,-0.188
28.764,-0.561,0.809,-0.189
28.774,-0.561,0.809,-0.188
28.784,-0.559,0.807,-0.189
28.794,-0.561,0.807,-0.188
28.804,-0.557,0.807,-0.188
28.814,-0.559,0.811,-0.189
28.824,-0.559,0.805,-0.189
28.834,-0.562,0.811,-0.189
28.844,-0.562,0.809,-0.189
28.853,-0.566,0.809,-0.191
28.863,-0.566,0.809,-0.191
28.873,-0.570,0.811,-0.191
28.883,-0.568,0.811,-0.195
28.893,-0.570,0.811,-0.191
28.903,-0.570,0.811,-0.189
28.913,-0.562,0.812,-0.186
28.923,-0.566,0.812,-0.189
28.933,-0.562,0.812,-0.186
28.943,-0.559,0.809,-0.189
28.953,-0.559,0.803,-0.193
28.963,-0.561,0.805,-0.191
28.973,-0.562,0.807,-0.189
28.983,-0.562,0.807,-0.186
28.992,-0.561,0.812,-0.188
29.002,-0.562,0.811,-0.191
29.012,-0.562,0.812,-0.188
29.022,-0.562,0.809,-0.188
29.032,-0.564,0.807,-0.189
29.042,-0.566,0.807,-0.191
29.052,-0.564,0.809,-0.195
29.062,-0.562,0.809,-0.193
29.072,-0.564,0.807,-0.193
29.082,-0.562,0.811,-0.189
29.092,-0.561,0.812,-0.193
29.102,-0.562,0.812,-0.189
29.112,-0.562,0.809,-0.189
29.122,-0.561,0.809,-0.193
29.132,-0.559,0.807,-0.193
29.141,-0.562,0.805,-0.193
29.151,-0.564,0.807,-0.193
29.161,-0.564,0.809,-0.195
29.171,-0.564,0.811,-0.191
29.181,-0.562,0.809,-0.193
29.191,-0.564,0.811,-0.191
29.201,-0.561,0.811,-0.191
29.211,-0.562,0.809,-0.193
29.221,-0.562,0.809,-0.191
29.231,-0.562,0.809,-0.199
29.241,-0.564,0.807,-0.197
29.251,-0.562,0.809,-0.195
29.261,-0.561,0.809,-0.195
29.271,-0.562,0.811,-0.195
29.280,-0.562,0.807,-0.193
29.290,-0.562,0.807,-0.193
29.300,-0.562,0.809,-0.191
29.310,-0.562,0.809,-0.195
29.320,-0.564,0.807,-0.195
29.330,-0.562,0.807,-0.193
29.340,-0.562,0.811,-0.193
29.350,-0.564,0.811,-0.193
29.360,-0.561,0.809,-0.191
29.370,-0.561,0.805,-0.193
29.380,-0.561,0.809,-0.193
29.390,-0.562,0.809,-0.195
29.400,-0.561,0.811,-0.191
29.410,-0.561,0.809,-0.193
29.420,-0.557,0.807,-0.191
29.429,-0.561,0.805,-0.189
29.439,-0.561,0.809,-0.191
29.449,-0.561,0.812,-0.188
29.459,-0.561,0.812,-0.189
29.469,-0.562,0.811,-0.191
29.479,-0.564,0.809,-0.193
29.489,-0.564,0.811,-0.191
29.499,-0.566,0.811,-0.189
29.509,-0.566,0.809,-0.193
29.519,-0.566,0.812,-0.189
29.529,-0.562,0.809,-0.191
29.539,-0.564,0.807,-0.188
29.549,-0.566,0.807,-0.193
29.559,-0.566,0.809,-0.191
29.568,-0.566,0.807,-0.191
29.578,-0.564,0.805,-0.189
29.588,-0.566,0.803,-0.191
29.598,-0.564,0.805,-0.193
29.608,-0.564,0.805,-0.191
29.618,-0.568,0.807,-0.189
29.628,-0.568,0.807,-0.191
29.638,-0.566,0.807,-0.189
29.648,-0.566,0.807,-0.188
29.658,-0.570,0.807,-0.189
29.668,-0.566,0.809,-0.193
29.678,-0.566,0.807,-0.191
29.688,-0.572,0.807,-0.191
29.698,-0.572,0.807,-0.191
29.708,-0.564,0.811,-0.188
29.717,-0.566,0.811,-0.189
29.727,-0.566,0.818,-0.186
29.737,-0.562,0.809,-0.189
29.747,-0.564,0.803,-0.191
29.757,-0.562,0.803,-0.193
29.767,-0.561,0.805,-0.191
29.777,-0.562,0.807,-0.189
29.787,-0.562,0.807,-0.189
29.797,-0.561,0.811,-0.189
29.807,-0.566,0.811,-0.188
29.817,-0.568,0.812,-0.191
29.827,-0.566,0.811,-0.193
29.837,-0.564,0.805,-0.195
29.847,-0.564,0.805,-0.193
29.856,-0.566,0.803,-0.195
29.866,-0.561,0.807,-0.193
29.876,-0.561,0.809,-0.191
29.886,-0.561,0.809,-0.189
29.896,-0.562,0.811,-0.191
29.906,-0.562,0.809,-0.189
29.916,-0.564,0.809,-0.193
29.926,-0.566,0.807,-0.195
29.936,-0.562,0.805,-0.193
29.946,-0.561,0.807,-0.193
29.956,-0.562,0.807,-0.191
29.966,-0.564,0.805,-0.193
29.976,-0.564,0.807,-0.193
29.986,-0.564,0.809,-0.195
29.996,-0.564,0.809,-0.193
30.005,-0.564,0.811,-0.195
30.015,-0.564,0.809,-0.195
30.025,-0.564,0.812,-0.193
30.035,-0.562,0.809,-0.197
30.045,-0.564,0.811,-0.191
30.055,-0.562,0.809,-0.193
30.065,-0.564,0.809,-0.193
30.075,-0.564,0.805,-0.197
30.085,-0.566,0.807,-0.195
30.095,-0.564,0.809,-0.193
30.105,-0.566,0.805,-0.193
30.115,-0.568,0.805,-0.191
30.125,-0.568,0.807,-0.197
30.135,-0.566,0.805,-0.189
30.145,-0.564,0.805,-0.193
30.154,-0.562,0.805,-0.193
30.164,-0.564,0.803,-0.193
30.174,-0.564,0.805,-0.191
30.184,-0.566,0.805,-0.193
30.194,-0.566,0.807,-0.193
30.204,-0.568,0.812,-0.191
30.214,-0.566,0.812,-0.193
30.224,-0.566,0.811,-0.191
30.234,-0.562,0.811,-0.189
30.244,-0.566,0.811,-0.193
30.254,-0.564,0.807,-0.191
30.264,-0.564,0.809,-0.193
30.274,-0.564,0.807,-0.189
30.284,-0.562,0.809,-0.189
30.293,-0.564,0.809,-0.189
30.303,-0.566,0.811,-0.189
30.313,-0.568,0.811,-0.188
30.323,-0.564,0.807,-0.189
30.333,-0.564,0.803,-0.191
30.343,-0.572,0.803,-0.193
30.353,-0.570,0.803,-0.189
30.363,-0.570,0.805,-0.191
30.373,-0.566,0.805,-0.189
30.383,-0.568,0.807,-0.189
30.393,-0.566,0.805,-0.189
30.403,-0.570,0.801,-0.193
30.413,-0.568,0.803,-0.189
30.423,-0.568,0.807,-0.189
30.433,-0.566,0.807,-0.191
30.442,-0.566,0.807,-0.189
30.452,-0.564,0.809,-0.188
30.462,-0.561,0.809,-0.188
30.472,-0.564,0.811,-0.189
30.482,-0.564,0.807,-0.189
30.492,-0.566,0.807,-0.186
30.502,-0.566,0.811,-0.191
30.512,-0.570,0.807,-0.189
30.522,-0.570,0.809,-0.189
30.532,-0.570,0.805,-0.191
30.542,-0.570,0.809,-0.188
30.552,-0.570,0.805,-0.193
30.562,-0.572,0.805,-0.189
30.572,-0.568,0.807,-0.186
30.581,-0.570,0.811,-0.189
30.591,-0.570,0.812,-0.184
30.601,-0.562,0.803,-0.186
30.611,-0.564,0.799,-0.191
30.621,-0.564,0.801,-0.189
30.631,-0.566,0.805,-0.188
30.641,-0.568,0.807,-0.189
30.651,-0.566,0.805,-0.188
30.661,-0.562,0.811,-0.191
30.671,-0.566,0.812,-0.191
30.681,-0.568,0.812,-0.189
30.691,-0.568,0.811,-0.188
30.701,-0.566,0.807,-0.191
30.711,-0.570,0.807,-0.189
30.721,-0.564,0.807,-0.193
30.730,-0.564,0.807,-0.191
30.740,-0.564,0.805,-0.195
30.750,-0.561,0.809,-0.193
30.760,-0.566,0.809,-0.191
30.770,-0.566,0.809,-0.188
30.780,-0.564,0.809,-0.193
30.790,-0.562,0.809,-0.191
30.800,-0.566,0.809,-0.195
30.810,-0.566,0.809,-0.191
30.820,-0.566,0.809,-0.197
30.830,-0.566,0.807,-0.193
30.840,-0.566,0.809,-0.193
30.850,-0.566,0.807,-0.193
30.860,-0.566,0.809,-0.195
30.869,-0.564,0.811,-0.195
30.879,-0.566,0.807,-0.191
30.889,-0.566,0.805,-0.193
30.899,-0.566,0.811,-0.191
30.909,-0.566,0.809,-0.193
30.919,-0.566,0.811,-0.191
30.929,-0.566,0.805,-0.188
30.939,-0.566,0.809,-0.191
30.949,-0.566,0.807,-0.191
30.959,-0.566,0.807,-0.193
30.969,-0.570,0.805,-0.191
30.979,-0.570,0.805,-0.189
30.989,-0.570,0.805,-0.189
30.999,-0.566,0.803,-0.191
31.009,-0.570,0.803,-0.189
31.018,-0.568,0.805,-0.189
31.028,-0.568,0.803,-0.191
31.038,-0.568,0.803,-0.188
31.048,-0.566,0.807,-0.189
31.058,-0.564,0.805,-0.191
31.068,-0.564,0.803,-0.189
31.078,-0.566,0.807,-0.189
31.088,-0.568,0.805,-0.189
31.098,-0.572,0.807,-0.189
31.108,-0.570,0.809,-0.191
31.118,-0.570,0.807,-0.191
31.128,-0.570,0.807,-0.191
31.138,-0.568,0.807,-0.191
31.148,-0.568,0.807,-0.189
31.157,-0.568,0.805,-0.193
31.167,-0.566,0.809,-0.193
31.177,-0.566,0.807,-0.191
31.187,-0.564,0.803,-0.188
31.197,-0.561,0.807,-0.191
31.207,-0.561,0.809,-0.186
31.217,-0.561,0.811,-0.186
31.227,-0.562,0.814,-0.189
31.237,-0.566,0.805,-0.189
31.247,-0.568,0.801,-0.191
31.257,-0.570,0.805,-0.189
31.267,-0.568,0.807,-0.186
31.277,-0.570,0.807,-0.189
31.287,-0.572,0.807,-0.188
31.297,-0.568,0.807,-0.189
31.306,-0.568,0.807,-0.189
31.316,-0.572,0.805,-0.188
31.326,-0.570,0.805,-0.188
31.336,-0.568,0.803,-0.188
31.346,-0.568,0.803,-0.189
31.356,-0.566,0.803,-0.189
31.366,-0.568,0.805,-0.188
31.376,-0.566,0.805,-0.186
31.386,-0.566,0.807,-0.186
31.396,-0.568,0.811,-0.184
31.406,-0.568,0.809,-0.188
31.416,-0.568,0.805,-0.186
31.426,-0.568,0.805,-0.186
31.436,-0.570,0.805,-0.186
31.445,-0.572,0.803,-0.186
31.455,-0.574,0.803,-0.189
31.465,-0.574,0.803,-0.191
31.475,-0.568,0.805,-0.184
31.485,-0.568,0.807,-0.189
31.495,-0.566,0.811,-0.186
31.505,-0.562,0.811,-0.186
31.515,-0.562,0.801,-0.189
31.525,-0.564,0.801,-0.189
31.535,-0.568,0.801,-0.188
31.545,-0.568,0.807,-0.189
31.555,-0.566,0.809,-0.189
31.565,-0.570,0.811,-0.186
31.575,-0.566,0.812,-0.189
31.585,-0.568,0.814,-0.188
31.594,-0.570,0.811,-0.188
31.604,-0.568,0.809,-0.191
31.614,-0.568,0.807,-0.191
31.624,-0.564,0.807,-0.191
31.634,-0.566,0.807,-0.189
31.644,-0.566,0.807,-0.191
31.654,-0.570,0.805,-0.191
31.664,-0.568,0.807,-0.189
31.674,-0.568,0.805,-0.191
31.684,-0.568,0.807,-0.191
31.694,-0.566,0.799,-0.189
31.704,-0.572,0.805,-0.193
31.714,-0.570,0.803,-0.191
31.724,-0.568,0.803,-0.189
31.734,-0.570,0.805,-0.195
31.743,-0.568,0.803,-0.193
31.753,-0.572,0.805,-0.191
31.763,-0.570,0.805,-0.193
31.773,-0.572,0.805,-0.191
31.783,-0.570,0.807,-0.195
31.793,-0.570,0.805,-0.191
31.803,-0.572,0.805,-0.193
31.813,-0.568,0.805,-0.191
31.823,-0.566,0.807,-0.191
31.833,-0.568,0.803,-0.189
31.843,-0.568,0.807,-0.191
31.853,-0.568,0.805,-0.191
31.863,-0.568,0.803,-0.193
31.873,-0.570,0.805,-0.195
31.882,-0.568,0.807,-0.189
31.892,-0.570,0.807,-0.191
31.902,-0.568,0.803,-0.189
31.912,-0.570,0.803,-0.191
31.922,-0.568,0.807,-0.189
31.932,-0.566,0.805,-0.189
31.942,-0.568,0.805,-0.188
31.952,-0.568,0.807,-0.191
31.962,-0.566,0.807,-0.188
31.972,-0.564,0.803,-0.188
31.982,-0.566,0.809,-0.189
31.992,-0.568,0.805,-0.189
32.002,-0.568,0.805,-0.191
32.012,-0.570,0.809,-0.188
32.022,-0.570,0.805,-0.191
32.031,-0.570,0.811,-0.193
32.041,-0.570,0.807,-0.191
32.051,-0.568,0.807,-0.193
32.061,-0.566,0.807,-0.193
32.071,-0.568,0.805,-0.195
32.081,-0.568,0.805,-0.191
32.091,-0.568,0.805,-0.191
32.101,-0.564,0.803,-0.186
32.111,-0.564,0.807,-0.188
32.121,-0.566,0.809,-0.191
32.131,-0.568,0.807,-0.191
32.141,-0.566,0.811,-0.189
32.151,-0.566,0.809,-0.191
32.161,-0.568,0.805,-0.189
32.170,-0.570,0.803,-0.191
32.180,-0.574,0.805,-0.193
32.190,-0.572,0.805,-0.189
32.200,-0.572,0.807,-0.189
32.210,-0.574,0.807,-0.189
32.220,-0.570,0.803,-0.189
32.230,-0.570,0.803,-0.189
32.240,-0.570,0.805,-0.191
32.250,-0.570,0.805,-0.191
32.260,-0.570,0.799,-0.188
32.270,-0.566,0.801,-0.189
32.280,-0.568,0.799,-0.188
32.290,-0.566,0.803,-0.188
32.300,-0.568,0.805,-0.188
32.310,-0.570,0.807,-0.188
32.319,-0.572,0.805,-0.191
32.329,-0.572,0.803,-0.189
32.339,-0.574,0.801,-0.189
32.349,-0.572,0.801,-0.191
32.359,-0.574,0.807,-0.191
32.369,-0.574,0.805,-0.191
32.379,-0.572,0.803,-0.191
32.389,-0.570,0.809,-0.189
32.399,-0.570,0.811,-0.191
32.409,-0.566,0.812,-0.188
32.419,-0.566,0.801,-0.191
32.429,-0.566,0.799,-0.191
32.439,-0.566,0.799,-0.191
32.449,-0.564,0.805,-0.193
32.458,-0.568,0.805,-0.189
32.468,-0.566,0.809,-0.191
32.478,-0.568,0.812,-0.188
32.488,-0.570,0.811,-0.191
32.498,-0.570,0.809,-0.193
32.508,-0.568,0.807,-0.189
32.518,-0.566,0.805,-0.193
32.528,-0.566,0.803,-0.189
32.538,-0.564,0.801,-0.193
32.548,-0.568,0.805,-0.193
32.558,-0.566,0.807,-0.195
32.568,-0.568,0.805,-0.193
32.578,-0.568,0.807,-0.195
32.588,-0.566,0.809,-0.195
32.598,-0.568,0.805,-0.193
32.607,-0.566,0.807,-0.195
32.617,-0.566,0.805,-0.193
32.627,-0.564,0.801,-0.191
32.637,-0.568,0.803,-0.193
32.647,-0.568,0.805,-0.193
32.657,-0.568,0.807,-0.193
32.667,-0.568,0.807,-0.191
32.677,-0.568,0.807,-0.195
32.687,-0.566,0.803,-0.195
32.697,-0.568,0.805,-0.189
32.707,-0.568,0.807,-0.197
32.717,-0.568,0.805,-0.193
32.727,-0.566,0.805,-0.195
32.737,-0.566,0.809,-0.193
32.746,-0.564,0.809,-0.193
32.756,-0.568,0.805,-0.195
32.766,-0.568,0.805,-0.193
32.776,-0.566,0.807,-0.195
32.786,-0.570,0.803,-0.191
32.796,-0.570,0.801,-0.195
32.806,-0.570,0.805,-0.193
32.816,-0.568,0.803,-0.195
32.826,-0.568,0.805,-0.191
32.836,-0.568,0.807,-0.191
32.846,-0.570,0.805,-0.191
32.856,-0.570,0.807,-0.193
32.866,-0.568,0.807,-0.191
32.876,-0.570,0.807,-0.189
32.886,-0.568,0.807,-0.193
32.895,-0.568,0.803,-0.193
32.905,-0.566,0.803,-0.193
32.915,-0.568,0.803,-0.195
32.925,-0.564,0.805,-0.191
32.935,-0.566,0.805,-0.193
32.945,-0.568,0.803,-0.191
32.955,-0.566,0.807,-0.193
32.965,-0.566,0.809,-0.193
32.975,-0.566,0.812,-0.195
32.985,-0.568,0.811,-0.191
32.995,-0.566,0.811,-0.193
33.005,-0.568,0.807,-0.195
33.015,-0.570,0.807,-0.191
33.025,-0.570,0.809,-0.193
33.034,-0.570,0.807,-0.189
33.044,-0.568,0.809,-0.191
33.054,-0.568,0.805,-0.193
33.064,-0.572,0.805,-0.195
33.074,-0.572,0.803,-0.193
33.084,-0.570,0.801,-0.193
33.094,-0.570,0.801,-0.191
33.104,-0.568,0.803,-0.191
33.114,-0.570,0.799,-0.191
33.124,-0.566,0.805,-0.189
33.134,-0.570,0.801,-0.191
33.144,-0.566,0.799,-0.188
33.154,-0.570,0.805,-0.191
33.164,-0.572,0.805,-0.191
33.174,-0.574,0.805,-0.191
33.183,-0.570,0.803,-0.193
33.193,-0.574,0.803,-0.193
33.203,-0.574,0.803,-0.193
33.213,-0.576,0.805,-0.195
33.223,-0.572,0.805,-0.191
33.233,-0.570,0.807,-0.193
33.243,-0.570,0.811,-0.191
33.253,-0.570,0.807,-0.193
33.263,-0.566,0.801,-0.191
33.273,-0.570,0.803,-0.193
33.283,-0.564,0.801,-0.191
33.293,-0.566,0.803,-0.191
33.303,-0.566,0.805,-0.191
33.313,-0.566,0.805,-0.191
33.322,-0.566,0.807,-0.189
33.332,-0.566,0.807,-0.191
33.342,-0.566,0.807,-0.191
33.352,-0.570,0.807,-0.189
33.362,-0.568,0.805,-0.195
33.372,-0.566,0.803,-0.193
33.382,-0.564,0.803,-0.193
33.392,-0.566,0.807,-0.193
33.402,-0.564,0.809,-0.195
33.412,-0.566,0.811,-0.191
33.422,-0.566,0.809,-0.195
33.432,-0.566,0.809,-0.191
33.442,-0.564,0.805,-0.193
33.452,-0.566,0.805,-0.193
33.462,-0.570,0.803,-0.195
33.471,-0.568,0.807,-0.195
33.481,-0.568,0.803,-0.193
33.491,-0.570,0.803,-0.191
33.501,-0.568,0.805,-0.193
33.511,-0.570,0.809,-0.195
33.521,-0.570,0.805,-0.193
33.531,-0.570,0.805,-0.193
33.541,-0.572,0.805,-0.195
33.551,-0.570,0.807,-0.195
33.561,-0.568,0.803,-0.193
33.571,-0.570,0.803,-0.197
33.581,-0.570,0.805,-0.189
33.591,-0.570,0.805,-0.197
33.601,-0.568,0.799,-0.193
33.611,-0.570,0.801,-0.195
33.620,-0.572,0.805,-0.195
33.630,-0.574,0.805,-0.195
33.640,-0.570,0.803,-0.195
33.650,-0.572,0.803,-0.195
33.660,-0.568,0.803,-0.193
33.670,-0.572,0.803,-0.191
33.680,-0.568,0.803,-0.195
33.690,-0.570,0.803,-0.191
33.700,-0.572,0.803,-0.193
33.710,-0.570,0.801,-0.197
33.720,-0.572,0.805,-0.193
33.730,-0.568,0.803,-0.193
33.740,-0.574,0.803,-0.195
33.750,-0.570,0.807,-0.195
33.759,-0.568,0.803,-0.197
33.769,-0.570,0.807,-0.191
33.779,-0.570,0.805,-0.197
33.789,-0.568,0.803,-0.193
33.799,-0.566,0.807,-0.195
33.809,-0.566,0.807,-0.188
33.819,-0.566,0.807,-0.191
33.829,-0.566,0.811,-0.191
33.839,-0.566,0.805,-0.189
33.849,-0.568,0.803,-0.195
33.859,-0.576,0.803,-0.195
33.869,-0.570,0.805,-0.191
33.879,-0.570,0.809,-0.195
33.889,-0.572,0.807,-0.189
33.899,-0.570,0.809,-0.193
33.908,-0.572,0.803,-0.193
33.918,-0.572,0.801,-0.191
33.928,-0.572,0.801,-0.191
33.938,-0.572,0.801,-0.195
33.948,-0.568,0.801,-0.195
33.958,-0.568,0.799,-0.195
33.968,-0.568,0.805,-0.193
33.978,-0.570,0.807,-0.195
33.988,-0.568,0.805,-0.193
33.998,-0.568,0.807,-0.191
34.008,-0.568,0.807,-0.188
34.018,-0.568,0.805,-0.195
34.028,-0.572,0.805,-0.191
34.038,-0.570,0.801,-0.193
34.047,-0.572,0.803,-0.195
34.057,-0.574,0.803,-0.189
34.067,-0.576,0.805,-0.195
34.077,-0.572,0.803,-0.193
34.087,-0.576,0.807,-0.193
34.097,-0.574,0.811,-0.191
34.107,-0.570,0.805,-0.193
34.117,-0.570,0.797,-0.193
34.127,-0.570,0.797,-0.195
34.137,-0.566,0.799,-0.193
34.147,-0.570,0.801,-0.193
34.157,-0.568,0.803,-0.191
34.167,-0.566,0.807,-0.193
34.177,-0.568,0.805,-0.191
34.187,-0.572,0.805,-0.191
34.196,-0.572,0.801,-0.197
34.206,-0.572,0.799,-0.195
34.216,-0.570,0.801,-0.197
34.226,-0.570,0.803,-0.197
34.236,-0.570,0.803,-0.195
34.246,-0.568,0.807,-0.195
34.256,-0.568,0.809,-0.193
34.266,-0.566,0.809,-0.195
34.276,-0.566,0.809,-0.191
34.286,-0.568,0.809,-0.195
34.296,-0.566,0.807,-0.193
34.306,-0.568,0.807,-0.195
34.316,-0.568,0.805,-0.197
34.326,-0.568,0.801,-0.199
34.335,-0.572,0.805,-0.197
34.345,-0.574,0.801,-0.199
34.355,-0.572,0.803,-0.195
34.365,-0.572,0.803,-0.195
34.375,-0.574,0.805,-0.197
34.385,-0.570,0.805,-0.193
34.395,-0.572,0.803,-0.195
34.405,-0.572,0.803,-0.197
34.415,-0.570,0.801,-0.193
34.425,-0.570,0.801,-0.191
34.435,-0.568,0.801,-0.193
34.445,-0.570,0.801,-0.193
34.455,-0.574,0.801,-0.195
34.465,-0.570,0.803,-0.195
34.475,-0.572,0.803,-0.195
34.484,-0.574,0.805,-0.195
34.494,-0.570,0.805,-0.191
34.504,-0.566,0.805,-0.195
34.514,-0.572,0.803,-0.195
34.524,-0.568,0.801,-0.197
34.534,-0.568,0.803,-0.195
34.544,-0.566,0.801,-0.195
34.554,-0.568,0.803,-0.193
34.564,-0.572,0.803,-0.195
34.574,-0.570,0.805,-0.195
34.584,-0.574,0.803,-0.193
34.594,-0.570,0.805,-0.193
34.604,-0.572,0.807,-0.193
34.614,-0.572,0.805,-0.197
34.623,-0.568,0.807,-0.195
34.633,-0.570,0.803,-0.193
34.643,-0.568,0.805,-0.195
34.653,-0.564,0.807,-0.193
34.663,-0.564,0.803,-0.193
34.673,-0.566,0.805,-0.193
34.683,-0.568,0.811,-0.188
34.693,-0.572,0.807,-0.191
34.703,-0.570,0.805,-0.193
34.713,-0.574,0.803,-0.191
34.723,-0.574,0.801,-0.197
34.733,-0.576,0.799,-0.193
34.743,-0.576,0.803,-0.193
34.753,-0.572,0.803,-0.191
34.763,-0.574,0.801,-0.191
34.772,-0.576,0.801,-0.193
34.782,-0.576,0.803,-0.191
34.792,-0.576,0.799,-0.189
34.802,-0.574,0.799,-0.193
34.812,-0.576,0.803,-0.189
34.822,-0.574,0.799,-0.188
34.832,-0.574,0.803,-0.191
34.842,-0.572,0.801,-0.189
34.852,-0.572,0.805,-0.191
34.862,-0.572,0.801,-0.186
34.872,-0.570,0.803,-0.188
34.882,-0.576,0.801,-0.186
34.892,-0.578,0.799,-0.191
34.902,-0.576,0.799,-0.193
34.911,-0.578,0.799,-0.193
34.921,-0.576,0.801,-0.193
34.931,-0.578,0.799,-0.193
34.941,-0.572,0.803,-0.186
34.951,-0.576,0.805,-0.189
34.961,-0.574,0.805,-0.188
34.971,-0.570,0.807,-0.193
34.981,-0.572,0.795,-0.193
34.991,-0.568,0.799,-0.195
35.001,-0.572,0.799,-0.189
35.011,-0.574,0.801,-0.191
35.021,-0.572,0.807,-0.191
35.031,-0.570,0.805,-0.191
35.041,-0.572,0.805,-0.193
35.051,-0.570,0.803,-0.191
35.060,-0.568,0.805,-0.191
35.070,-0.572,0.799,-0.193
35.080,-0.568,0.801,-0.193
35.090,-0.570,0.801,-0.193
35.100,-0.572,0.801,-0.193
35.110,-0.572,0.805,-0.193
35.120,-0.568,0.805,-0.193
35.130,-0.568,0.807,-0.193
35.140,-0.566,0.807,-0.191
35.150,-0.566,0.805,-0.197
35.160,-0.570,0.801,-0.193
35.170,-0.570,0.801,-0.197
35.180,-0.572,0.803,-0.195
35.190,-0.572,0.803,-0.195
35.199,-0.576,0.805,-0.195
35.209,-0.572,0.803,-0.195
35.219,-0.570,0.803,-0.195
35.229,-0.572,0.807,-0.195
35.239,-0.570,0.805,-0.195
35.249,-0.570,0.807,-0.193
35.259,-0.570,0.805,-0.193
35.269,-0.574,0.805,-0.195
35.279,-0.572,0.805,-0.199
35.289,-0.570,0.801,-0.193
35.299,-0.576,0.801,-0.195
35.309,-0.574,0.803,-0.195
35.319,-0.574,0.801,-0.195
35.329,-0.574,0.801,-0.197
35.339,-0.576,0.801,-0.193
35.348,-0.574,0.799,-0.195
35.358,-0.574,0.797,-0.193
35.368,-0.576,0.797,-0.193
35.378,-0.574,0.799,-0.195
35.388,-0.574,0.799,-0.193
35.398,-0.572,0.799,-0.189
35.408,-0.574,0.797,-0.195
35.418,-0.572,0.801,-0.193
35.428,-0.576,0.803,-0.195
35.438,-0.578,0.801,-0.191
35.448,-0.574,0.803,-0.195
35.458,-0.576,0.799,-0.193
35.468,-0.572,0.799,-0.195
35.478,-0.576,0.803,-0.197
35.488,-0.576,0.805,-0.197
35.497,-0.576,0.803,-0.195
35.507,-0.572,0.803,-0.193
35.517,-0.568,0.803,-0.197
35.527,-0.568,0.803,-0.193
35.537,-0.568,0.803,-0.193
35.547,-0.572,0.807,-0.195
35.557,-0.570,0.807,-0.193
35.567,-0.574,0.805,-0.195
35.577,-0.574,0.801,-0.197
35.587,-0.574,0.799,-0.197
35.597,-0.576,0.805,-0.195
35.607,-0.578,0.803,-0.195
35.617,-0.576,0.803,-0.195
35.627,-0.576,0.803,-0.189
35.636,-0.572,0.797,-0.193
35.646,-0.578,0.801,-0.193
35.656,-0.578,0.801,-0.191
35.666,-0.578,0.797,-0.195
35.676,-0.574,0.799,-0.191
35.686,-0.572,0.797,-0.191
35.696,-0.574,0.797,-0.191
35.706,-0.572,0.797,-0.189
35.716,-0.572,0.801,-0.191
35.726,-0.576,0.801,-0.189
35.736,-0.580,0.797,-0.193
35.746,-0.578,0.803,-0.193
35.756,-0.574,0.797,-0.195
35.766,-0.580,0.799,-0.193
35.776,-0.578,0.799,-0.195
35.785,-0.578,0.801,-0.195
35.795,-0.574,0.799,-0.191
35.805,-0.576,0.807,-0.191
35.815,-0.572,0.807,-0.191
35.825,-0.572,0.807,-0.189
35.835,-0.570,0.795,-0.193
35.845,-0.570,0.797,-0.195
35.855,-0.570,0.795,-0.191
35.865,-0.570,0.799,-0.195
35.875,-0.570,0.803,-0.191
35.885,-0.570,0.807,-0.195
35.895,-0.570,0.807,-0.193
35.905,-0.570,0.805,-0.193
35.915,-0.572,0.803,-0.193
35.924,-0.570,0.805,-0.195
35.934,-0.572,0.801,-0.197
35.944,-0.568,0.801,-0.193
35.954,-0.572,0.799,-0.195
35.964,-0.568,0.803,-0.195
35.974,-0.570,0.803,-0.197
35.984,-0.572,0.805,-0.195
35.994,-0.572,0.805,-0.195
36.004,-0.572,0.803,-0.199
36.014,-0.574,0.803,-0.197
36.024,-0.574,0.799,-0.201
36.034,-0.574,0.801,-0.199
36.044,-0.572,0.801,-0.199
36.054,-0.574,0.795,-0.199
36.064,-0.570,0.799,-0.199
36.073,-0.572,0.803,-0.195
36.083,-0.574,0.803,-0.197
36.093,-0.572,0.803,-0.199
36.103,-0.574,0.797,-0.199
36.113,-0.572,0.803,-0.195
36.123,-0.576,0.803,-0.199
36.133,-0.576,0.803,-0.197
36.143,-0.574,0.805,-0.197
36.153,-0.572,0.801,-0.197
36.163,-0.570,0.801,-0.195
36.173,-0.572,0.799,-0.199
36.183,-0.572,0.799,-0.193
36.193,-0.572,0.801,-0.197
36.203,-0.574,0.799,-0.193
36.212,-0.572,0.801,-0.195
36.222,-0.576,0.803,-0.193
36.232,-0.574,0.801,-0.195
36.242,-0.574,0.801,-0.197
36.252,-0.578,0.799,-0.193
36.262,-0.576,0.799,-0.195
36.272,-0.572,0.801,-0.193
36.282,-0.578,0.797,-0.195
36.292,-0.576,0.799,-0.195
36.302,-0.576,0.797,-0.195
36.312,-0.574,0.797,-0.195
36.322,-0.572,0.797,-0.193
36.332,-0.570,0.797,-0.191
36.342,-0.576,0.801,-0.195
36.352,-0.572,0.805,-0.193
36.361,-0.568,0.805,-0.193
36.371,-0.572,0.805,-0.197
36.381,-0.576,0.799,-0.197
36.391,-0.574,0.799,-0.197
36.401,-0.576,0.803,-0.199
36.411,-0.576,0.805,-0.199
36.421,-0.574,0.805,-0.195
36.431,-0.574,0.805,-0.193
36.441,-0.574,0.805,-0.195
36.451,-0.578,0.803,-0.193
36.461,-0.576,0.799,-0.195
36.471,-0.576,0.801,-0.197
36.481,-0.576,0.799,-0.195
36.491,-0.572,0.799,-0.195
36.500,-0.576,0.799,-0.193
36.510,-0.574,0.799,-0.197
36.520,-0.576,0.801,-0.193
36.530,-0.576,0.803,-0.191
36.540,-0.574,0.799,-0.195
36.550,-0.578,0.801,-0.195
36.560,-0.578,0.799,-0.193
36.570,-0.580,0.797,-0.195
36.580,-0.578,0.795,-0.195
36.590,-0.576,0.801,-0.191
36.600,-0.580,0.803,-0.193
36.610,-0.580,0.801,-0.193
36.620,-0.578,0.803,-0.191
36.630,-0.574,0.795,-0.195
36.640,-0.578,0.795,-0.195
36.649,-0.576,0.795,-0.195
36.659,-0.576,0.795,-0.191
36.669,-0.574,0.799,-0.193
36.679,-0.574,0.799,-0.191
36.689,-0.574,0.803,-0.191
36.699,-0.578,0.803,-0.191
36.709,-0.576,0.801,-0.193
36.719,-0.576,0.799,-0.191
36.729,-0.574,0.795,-0.193
36.739,-0.576,0.797,-0.195
36.749,-0.572,0.799,-0.197
36.759,-0.574,0.803,-0.199
36.769,-0.570,0.807,-0.197
36.779,-0.572,0.803,-0.193
36.788,-0.574,0.803,-0.193
36.798,-0.572,0.805,-0.193
36.808,-0.576,0.801,-0.195
36.818,-0.574,0.801,-0.193
36.828,-0.574,0.799,-0.197
36.838,-0.574,0.797,-0.197
36.848,-0.572,0.801,-0.197
36.858,-0.574,0.803,-0.197
36.868,-0.576,0.801,-0.195
36.878,-0.574,0.805,-0.199
36.888,-0.576,0.801,-0.195
36.898,-0.574,0.801,-0.195
36.908,-0.574,0.801,-0.193
36.918,-0.574,0.801,-0.197
36.928,-0.576,0.801,-0.197
36.937,-0.576,0.797,-0.199
36.947,-0.576,0.801,-0.195
36.957,-0.574,0.801,-0.195
36.967,-0.574,0.801,-0.197
36.977,-0.576,0.801,-0.195
36.987,-0.574,0.801,-0.195
36.997,-0.576,0.799,-0.195
37.007,-0.578,0.799,-0.197
37.017,-0.578,0.797,-0.199
37.027,-0.576,0.797,-0.197
37.037,-0.578,0.799,-0.199
37.047,-0.574,0.799,-0.195
37.057,-0.574,0.803,-0.197
37.067,-0.576,0.801,-0.193
37.077,-0.574,0.799,-0.193
37.086,-0.576,0.803,-0.197
37.096,-0.576,0.801,-0.197
37.106,-0.576,0.803,-0.195
37.116,-0.572,0.799,-0.193
37.126,-0.570,0.801,-0.195
37.136,-0.570,0.803,-0.193
37.146,-0.576,0.805,-0.193
37.156,-0.572,0.807,-0.195
37.166,-0.574,0.801,-0.195
37.176,-0.576,0.799,-0.197
37.186,-0.578,0.801,-0.195
37.196,-0.580,0.799,-0.195
37.206,-0.580,0.799,-0.195
37.216,-0.580,0.803,-0.197
37.225,-0.576,0.801,-0.191
37.235,-0.578,0.799,-0.195
37.245,-0.576,0.797,-0.195
37.255,-0.580,0.793,-0.197
37.265,-0.578,0.797,-0.195
37.275,-0.580,0.797,-0.193
37.285,-0.580,0.795,-0.193
37.295,-0.578,0.797,-0.195
37.305,-0.576,0.799,-0.191
37.315,-0.576,0.799,-0.191
37.325,-0.576,0.801,-0.189
37.335,-0.578,0.801,-0.191
37.345,-0.578,0.799,-0.195
37.355,-0.578,0.799,-0.193
37.365,-0.580,0.797,-0.197
37.374,-0.578,0.801,-0.193
37.384,-0.580,0.797,-0.197
37.394,-0.584,0.797,-0.195
37.404,-0.576,0.801,-0.191
37.414,-0.578,0.803,-0.193
37.424,-0.576,0.807,-0.193
37.434,-0.576,0.799,-0.193
37.444,-0.572,0.797,-0.195
37.454,-0.570,0.795,-0.195
37.464,-0.574,0.795,-0.193
37.474,-0.574,0.801,-0.193
37.484,-0.574,0.801,-0.195
37.494,-0.576,0.805,-0.195
37.504,-0.576,0.805,-0.191
37.513,-0.574,0.803,-0.195
37.523,-0.572,0.799,-0.193
37.533,-0.574,0.797,-0.199
37.543,-0.574,0.797,-0.195
37.553,-0.578,0.799,-0.195
37.563,-0.578,0.801,-0.193
37.573,-0.572,0.801,-0.199
37.583,-0.572,0.803,-0.197
37.593,-0.576,0.803,-0.195
37.603,-0.574,0.803,-0.195
37.613,-0.574,0.801,-0.195
37.623,-0.574,0.801,-0.197
37.633,-0.572,0.799,-0.197
37.643,-0.576,0.797,-0.201
37.653,-0.572,0.801,-0.201
37.662,-0.574,0.797,-0.201
37.672,-0.578,0.795,-0.197
37.682,-0.578,0.803,-0.195
37.692,-0.574,0.801,-0.201
37.702,-0.576,0.801,-0.195
37.712,-0.574,0.803,-0.201
37.722,-0.572,0.799,-0.195
37.732,-0.576,0.803,-0.197
37.742,-0.576,0.805,-0.195
37.752,-0.576,0.803,-0.195
37.762,-0.576,0.799,-0.193
37.772,-0.578,0.797,-0.199
37.782,-0.578,0.795,-0.195
37.792,-0.578,0.793,-0.195
37.801,-0.582,0.795,-0.195
37.811,-0.582,0.795,-0.197
37.821,-0.582,0.795,-0.193
37.831,-0.586,0.793,-0.197
37.841,-0.586,0.795,-0.193
37.851,-0.584,0.793,-0.195
37.861,-0.584,0.795,-0.197
37.871,-0.580,0.797,-0.193
37.881,-0.578,0.793,-0.195
37.891,-0.580,0.797,-0.193
37.901,-0.580,0.799,-0.193
37.911,-0.582,0.799,-0.195
37.921,-0.578,0.795,-0.195
37.931,-0.576,0.797,-0.193
37.941,-0.570,0.801,-0.193
37.950,-0.576,0.801,-0.197
37.960,-0.574,0.805,-0.195
37.970,-0.572,0.799,-0.191
37.980,-0.578,0.797,-0.195
37.990,-0.580,0.799,-0.193
38.000,-0.580,0.799,-0.193
38.010,-0.582,0.801,-0.191
38.020,-0.576,0.803,-0.193
38.030,-0.576,0.801,-0.189
38.040,-0.576,0.803,-0.193
38.050,-0.580,0.799,-0.189
38.060,-0.578,0.797,-0.197
38.070,-0.582,0.797,-0.191
38.080,-0.582,0.797,-0.193
38.089,-0.576,0.799,-0.193
38.099,-0.578,0.797,-0.191
38.109,-0.576,0.799,-0.188
38.119,-0.576,0.797,-0.189
38.129,-0.574,0.801,-0.195
38.139,-0.578,0.801,-0.191
38.149,-0.578,0.799,-0.195
38.159,-0.582,0.799,-0.189
38.169,-0.582,0.793,-0.193
38.179,-0.582,0.799,-0.191
38.189,-0.582,0.797,-0.193
38.199,-0.582,0.797,-0.191
38.209,-0.580,0.795,-0.191
38.219,-0.580,0.797,-0.191
38.229,-0.578,0.803,-0.191
38.238,-0.574,0.803,-0.191
38.248,-0.576,0.793,-0.191
38.258,-0.580,0.791,-0.193
38.268,-0.580,0.795,-0.191
38.278,-0.582,0.795,-0.193
38.288,-0.578,0.799,-0.191
38.298,-0.580,0.801,-0.193
38.308,-0.580,0.803,-0.191
38.318,-0.580,0.801,-0.193
38.328,-0.580,0.801,-0.191
38.338,-0.580,0.797,-0.195
38.348,-0.576,0.795,-0.195
38.358,-0.578,0.799,-0.193
38.368,-0.576,0.797,-0.197
38.377,-0.578,0.797,-0.197
38.387,-0.574,0.801,-0.193
38.397,-0.576,0.801,-0.195
38.407,-0.580,0.801,-0.193
38.417,-0.578,0.797,-0.195
38.427,-0.580,0.797,-0.199
38.437,-0.580,0.795,-0.199
38.447,-0.580,0.795,-0.199
38.457,-0.584,0.793,-0.201
38.467,-0.582,0.799,-0.197
38.477,-0.584,0.801,-0.199
38.487,-0.582,0.799,-0.199
38.497,-0.582,0.799,-0.203
38.507,-0.580,0.797,-0.199
38.517,-0.574,0.799,-0.197
38.526,-0.576,0.799,-0.197
38.536,-0.576,0.801,-0.197
38.546,-0.574,0.799,-0.197
38.556,-0.580,0.797,-0.197
38.566,-0.580,0.799,-0.197
38.576,-0.580,0.799,-0.199
38.586,-0.580,0.797,-0.197
38.596,-0.580,0.797,-0.197
38.606,-0.578,0.799,-0.201
38.616,-0.580,0.799,-0.199
38.626,-0.580,0.795,-0.199
38.636,-0.580,0.795,-0.199
38.646,-0.580,0.795,-0.195
38.656,-0.576,0.799,-0.195
38.666,-0.580,0.797,-0.197
38.675,-0.580,0.797,-0.195
38.685,-0.578,0.797,-0.195
38.695,-0.576,0.799,-0.195
38.705,-0.578,0.797,-0.197
38.715,-0.580,0.801,-0.197
38.725,-0.576,0.799,-0.199
38.735,-0.574,0.797,-0.195
38.745,-0.574,0.799,-0.195
38.755,-0.574,0.799,-0.195
38.765,-0.578,0.801,-0.193
38.775,-0.578,0.807,-0.189
38.785,-0.574,0.801,-0.193
38.795,-0.578,0.797,-0.197
38.805,-0.580,0.795,-0.195
38.814,-0.584,0.799,-0.195
38.824,-0.580,0.799,-0.191
38.834,-0.582,0.799,-0.193
38.844,-0.580,0.799,-0.195
38.854,-0.578,0.799,-0.191
38.864,-0.582,0.797,-0.193
38.874,-0.580,0.797,-0.197
38.884,-0.578,0.795,-0.193
38.894,-0.578,0.791,-0.193
38.904,-0.582,0.791,-0.193
38.914,-0.578,0.793,-0.193
38.924,-0.578,0.791,-0.191
38.934,-0.580,0.797,-0.191
38.944,-0.580,0.795,-0.189
38.954,-0.578,0.797,-0.193
38.963,-0.582,0.797,-0.191
38.973,-0.584,0.797,-0.197
38.983,-0.584,0.797,-0.195
38.993,-0.580,0.795,-0.197
39.003,-0.586,0.799,-0.195
39.013,-0.578,0.797,-0.193
39.023,-0.580,0.801,-0.195
39.033,-0.580,0.803,-0.193
39.043,-0.578,0.803,-0.193
39.053,-0.572,0.793,-0.193
39.063,-0.574,0.799,-0.193
39.073,-0.574,0.797,-0.195
39.083,-0.572,0.797,-0.193
39.093,-0.574,0.801,-0.195
39.102,-0.574,0.799,-0.193
39.112,-0.576,0.803,-0.193
39.122,-0.580,0.799,-0.195
39.132,-0.576,0.803,-0.195
39.142,-0.576,0.799,-0.199
39.152,-0.578,0.795,-0.195
39.162,-0.576,0.795,-0.195
39.172,-0.576,0.799,-0.199
39.182,-0.576,0.797,-0.197
39.192,-0.574,0.799,-0.197
39.202,-0.578,0.803,-0.197
39.212,-0.578,0.801,-0.197
39.222,-0.576,0.799,-0.199
39.232,-0.576,0.799,-0.197
39.242,-0.576,0.799,-0.195
39.251,-0.578,0.795,-0.201
39.261,-0.578,0.795,-0.199
39.271,-0.578,0.797,-0.201
39.281,-0.578,0.799,-0.197
39.291,-0.578,0.799,-0.199
39.301,-0.578,0.799,-0.199
39.311,-0.580,0.799,-0.199
39.321,-0.580,0.797,-0.201
39.331,-0.578,0.801,-0.199
39.341,-0.578,0.799,-0.199
39.351,-0.580,0.799,-0.201
39.361,-0.574,0.797,-0.197
39.371,-0.572,0.797,-0.197
39.381,-0.572,0.797,-0.199
39.390,-0.576,0.799,-0.199
39.400,-0.578,0.797,-0.203
39.410,-0.578,0.797,-0.197
39.420,-0.578,0.799,-0.201
39.430,-0.578,0.799,-0.195
39.440,-0.582,0.797,-0.199
39.450,-0.578,0.797,-0.199
39.460,-0.580,0.797,-0.195
39.470,-0.576,0.797,-0.199
39.480,-0.576,0.797,-0.199
39.490,-0.576,0.801,-0.197
39.500,-0.576,0.795,-0.197
39.510,-0.570,0.797,-0.197
39.520,-0.572,0.797,-0.195
39.530,-0.570,0.801,-0.195
39.539,-0.572,0.803,-0.193
39.549,-0.578,0.805,-0.197
39.559,-0.574,0.803,-0.197
39.569,-0.576,0.805,-0.197
39.579,-0.576,0.801,-0.195
39.589,-0.576,0.797,-0.197
39.599,-0.582,0.799,-0.197
39.609,-0.582,0.799,-0.191
39.619,-0.582,0.799,-0.197
39.629,-0.576,0.803,-0.193
39.639,-0.580,0.801,-0.193
39.649,-0.578,0.795,-0.197
39.659,-0.578,0.797,-0.195
39.669,-0.580,0.795,-0.195
39.678,-0.576,0.795,-0.191
39.688,-0.574,0.793,-0.193
39.698,-0.576,0.795,-0.193
39.708,-0.574,0.793,-0.193
39.718,-0.578,0.795,-0.191
39.728,-0.578,0.795,-0.193
39.738,-0.582,0.799,-0.195
39.748,-0.584,0.795,-0.193
39.758,-0.588,0.795,-0.195
39.768,-0.590,0.797,-0.195
39.778,-0.586,0.795,-0.197
39.788,-0.586,0.799,-0.193
39.798,-0.582,0.801,-0.191
39.808,-0.580,0.801,-0.193
39.818,-0.578,0.807,-0.191
39.827,-0.578,0.795,-0.195
39.837,-0.578,0.793,-0.197
39.847,-0.580,0.795,-0.197
39.857,-0.576,0.793,-0.195
39.867,-0.578,0.797,-0.193
39.877,-0.574,0.797,-0.197
39.887,-0.576,0.797,-0.193
39.897,-0.578,0.801,-0.195
39.907,-0.580,0.797,-0.197
39.917,-0.580,0.795,-0.195
39.927,-0.578,0.795,-0.197
39.937,-0.582,0.793,-0.197
39.947,-0.580,0.795,-0.197
39.957,-0.578,0.799,-0.197
39.966,-0.574,0.799,-0.197
39.976,-0.578,0.801,-0.197
39.986,-0.576,0.801,-0.195
39.996,-0.576,0.799,-0.195
40.006,-0.576,0.799,-0.197
40.016,-0.578,0.803,-0.199
40.026,-0.574,0.797,-0.199
40.036,-0.578,0.795,-0.201
40.046,-0.578,0.797,-0.199
40.056,-0.578,0.795,-0.203
40.066,-0.580,0.793,-0.201
40.076,-0.576,0.799,-0.199
40.086,-0.576,0.799,-0.201
40.096,-0.576,0.799,-0.201
40.106,-0.578,0.799,-0.199
40.115,-0.578,0.801,-0.197
40.125,-0.578,0.803,-0.199
40.135,-0.580,0.799,-0.199
40.145,-0.576,0.799,-0.199
40.155,-0.578,0.801,-0.197
40.165,-0.578,0.795,-0.199
40.175,-0.576,0.795,-0.197
40.185,-0.578,0.797,-0.201
40.195,-0.580,0.799,-0.199
40.205,-0.578,0.795,-0.197
40.215,-0.578,0.797,-0.199
40.225,-0.578,0.795,-0.199
40.235,-0.582,0.799,-0.199
40.245,-0.578,0.799,-0.199
40.254,-0.580,0.797,-0.199
40.264,-0.580,0.797,-0.197
40.274,-0.578,0.797,-0.199
40.284,-0.580,0.801,-0.201
40.294,-0.578,0.801,-0.197
40.304,-0.580,0.797,-0.199
40.314,-0.576,0.795,-0.199
40.324,-0.574,0.797,-0.195
40.334,-0.572,0.799,-0.197
40.344,-0.578,0.799,-0.193
40.354,-0.576,0.801,-0.195
40.364,-0.576,0.797,-0.197
40.374,-0.578,0.797,-0.195
40.384,-0.584,0.793,-0.197
40.394,-0.580,0.795,-0.197
40.403,-0.582,0.799,-0.195
40.413,-0.580,0.797,-0.197
40.423,-0.580,0.797,-0.195
40.433,-0.580,0.799,-0.195
40.443,-0.582,0.795,-0.197
40.453,-0.586,0.795,-0.195
40.463,-0.582,0.797,-0.197
40.473,-0.582,0.793,-0.199
40.483,-0.580,0.789,-0.197
40.493,-0.578,0.791,-0.199
40.503,-0.578,0.795,-0.193
40.513,-0.576,0.799,-0.195
40.523,-0.578,0.797,-0.195
40.533,-0.576,0.801,-0.195
40.543,-0.578,0.797,-0.195
40.552,-0.582,0.797,-0.197
40.562,-0.582,0.799,-0.195
40.572,-0.582,0.795,-0.195
40.582,-0.580,0.799,-0.195
40.592,-0.582,0.797,-0.195
40.602,-0.580,0.797,-0.193
40.612,-0.580,0.801,-0.197
40.622,-0.578,0.805,-0.197
40.632,-0.576,0.797,-0.193
40.642,-0.574,0.791,-0.195
40.652,-0.576,0.793,-0.201
40.662,-0.574,0.793,-0.197
40.672,-0.578,0.795,-0.197
40.682,-0.576,0.803,-0.193
40.691,-0.578,0.803,-0.195
40.701,-0.576,0.801,-0.193
40.711,-0.580,0.803,-0.195
40.721,-0.580,0.799,-0.195
40.731,-0.580,0.797,-0.197
40.741,-0.576,0.793,-0.199
40.751,-0.578,0.793,-0.199
40.761,-0.578,0.799,-0.197
40.771,-0.576,0.795,-0.197
40.781,-0.578,0.801,-0.197
40.791,-0.576,0.801,-0.201
40.801,-0.576,0.795,-0.193
40.811,-0.578,0.799,-0.195
40.821,-0.580,0.797,-0.197
40.831,-0.580,0.795,-0.197
40.840,-0.582,0.793,-0.195
40.850,-0.578,0.795,-0.199
40.860,-0.580,0.793,-0.199
40.870,-0.580,0.797,-0.199
40.880,-0.578,0.793,-0.195
40.890,-0.580,0.795,-0.199
40.900,-0.580,0.797,-0.195
40.910,-0.578,0.799,-0.197
40.920,-0.582,0.799,-0.197
40.930,-0.582,0.797,-0.199
40.940,-0.580,0.797,-0.195
40.950,-0.582,0.799,-0.199
40.960,-0.582,0.795,-0.195
40.970,-0.580,0.793,-0.199
40.979,-0.582,0.797,-0.197
40.989,-0.582,0.795,-0.197
40.999,-0.582,0.795,-0.197
41.009,-0.580,0.795,-0.195
41.019,-0.578,0.795,-0.197
41.029,-0.580,0.797,-0.197
41.039,-0.578,0.795,-0.195
41.049,-0.580,0.793,-0.201
41.059,-0.580,0.795,-0.197
41.069,-0.582,0.793,-0.197
41.079,-0.580,0.795,-0.199
41.089,-0.580,0.797,-0.197
41.099,-0.584,0.801,-0.197
41.109,-0.580,0.797,-0.199
41.119,-0.580,0.799,-0.197
41.128,-0.580,0.797,-0.197
41.138,-0.578,0.799,-0.197
41.148,-0.578,0.801,-0.193
41.158,-0.576,0.795,-0.195
41.168,-0.574,0.799,-0.195
41.178,-0.580,0.799,-0.197
41.188,-0.580,0.801,-0.191
41.198,-0.576,0.801,-0.195
41.208,-0.580,0.799,-0.197
41.218,-0.582,0.797,-0.195
41.228,-0.584,0.793,-0.197
41.238,-0.584,0.799,-0.193
41.248,-0.584,0.799,-0.195
41.258,-0.584,0.797,-0.195
41.267,-0.584,0.795,-0.195
41.277,-0.584,0.795,-0.195
41.287,-0.586,0.791,-0.195
41.297,-0.586,0.787,-0.197
41.307,-0.586,0.791,-0.195
41.317,-0.580,0.793,-0.197
41.327,-0.582,0.791,-0.195
41.337,-0.582,0.793,-0.195
41.347,-0.580,0.795,-0.197
41.357,-0.578,0.799,-0.195
41.367,-0.580,0.795,-0.195
41.377,-0.580,0.797,-0.193
41.387,-0.582,0.797,-0.191
41.397,-0.582,0.799,-0.193
41.407,-0.580,0.799,-0.197
41.416,-0.582,0.795,-0.193
41.426,-0.582,0.799,-0.197
41.436,-0.582,0.797,-0.197
41.446,-0.582,0.799,-0.197
41.456,-0.584,0.803,-0.195
41.466,-0.578,0.805,-0.195
41.476,-0.578,0.795,-0.197
41.486,-0.576,0.791,-0.197
41.496,-0.574,0.793,-0.195
41.506,-0.576,0.797,-0.193
41.516,-0.576,0.799,-0.197
41.526,-0.580,0.803,-0.193
41.536,-0.580,0.799,-0.195
41.546,-0.580,0.801,-0.193
41.555,-0.584,0.795,-0.195
41.565,-0.582,0.797,-0.199
41.575,-0.580,0.793,-0.197
41.585,-0.582,0.791,-0.195
41.595,-0.578,0.793,-0.197
41.605,-0.582,0.795,-0.199
41.615,-0.576,0.795,-0.193
41.625,-0.578,0.797,-0.195
41.635,-0.580,0.797,-0.199
41.645,-0.580,0.801,-0.195
41.655,-0.582,0.799,-0.191
41.665,-0.584,0.795,-0.201
41.675,-0.582,0.793,-0.199
41.685,-0.584,0.793,-0.199
41.695,-0.586,0.793,-0.201
41.704,-0.582,0.795,-0.197
41.714,-0.586,0.797,-0.197
41.724,-0.586,0.799,-0.199
41.734,-0.582,0.797,-0.195
41.744,-0.582,0.795,-0.199
41.754,-0.578,0.797,-0.199
41.764,-0.578,0.795,-0.191
41.774,-0.576,0.799,-0.197
41.784,-0.582,0.795,-0.197
41.794,-0.582,0.797,-0.195
41.804,-0.578,0.797,-0.195
41.814,-0.582,0.793,-0.195
41.824,-0.582,0.797,-0.199
41.834,-0.584,0.795,-0.197
41.843,-0.584,0.793,-0.197
41.853,-0.582,0.795,-0.197
41.863,-0.582,0.795,-0.197
41.873,-0.582,0.795,-0.201
41.883,-0.582,0.795,-0.197
41.893,-0.578,0.795,-0.197
41.903,-0.582,0.797,-0.197
41.913,-0.576,0.797,-0.199
41.923,-0.576,0.797,-0.197
41.933,-0.578,0.797,-0.197
41.943,-0.578,0.803,-0.197
41.953,-0.578,0.797,-0.197
41.963,-0.578,0.797,-0.199
41.973,-0.578,0.799,-0.199
41.983,-0.578,0.797,-0.201
41.992,-0.578,0.799,-0.195
42.002,-0.574,0.797,-0.197
42.012,-0.580,0.801,-0.203
42.022,-0.580,0.799,-0.197
42.032,-0.578,0.799,-0.197
42.042,-0.574,0.795,-0.201
42.052,-0.574,0.797,-0.197
42.062,-0.578,0.801,-0.197
42.072,-0.582,0.801,-0.195
42.082,-0.580,0.799,-0.197
42.092,-0.576,0.797,-0.199
42.102,-0.578,0.795,-0.199
42.112,-0.582,0.793,-0.195
42.122,-0.584,0.797,-0.197
42.132,-0.584,0.797,-0.197
42.141,-0.584,0.799,-0.195
42.151,-0.582,0.793,-0.197
42.161,-0.584,0.793,-0.197
42.171,-0.586,0.791,-0.197
42.181,-0.588,0.789,-0.195
42.191,-0.582,0.789,-0.195
42.201,-0.580,0.793,-0.197
42.211,-0.580,0.793,-0.197
42.221,-0.582,0.795,-0.195
42.231,-0.580,0.797,-0.191
42.241,-0.578,0.797,-0.195
42.251,-0.578,0.797,-0.195
42.261,-0.582,0.797,-0.195
42.271,-0.580,0.793,-0.197
42.280,-0.582,0.791,-0.199
42.290,-0.580,0.795,-0.197
42.300,-0.584,0.795,-0.195
42.310,-0.584,0.797,-0.197
42.320,-0.580,0.797,-0.193
42.330,-0.582,0.801,-0.191
42.340,-0.580,0.801,-0.195
42.350,-0.578,0.803,-0.195
42.360,-0.574,0.795,-0.195
42.370,-0.576,0.793,-0.195
42.380,-0.574,0.795,-0.197
42.390,-0.576,0.797,-0.197
42.400,-0.572,0.803,-0.195
42.410,-0.576,0.805,-0.191
42.420,-0.582,0.805,-0.193
42.429,-0.576,0.803,-0.197
42.439,-0.578,0.801,-0.197
42.449,-0.576,0.797,-0.199
42.459,-0.578,0.795,-0.197
42.469,-0.576,0.795,-0.197
42.479,-0.580,0.801,-0.199
42.489,-0.574,0.799,-0.197
42.499,-0.578,0.801,-0.201
42.509,-0.580,0.799,-0.197
42.519,-0.582,0.799,-0.199
42.529,-0.578,0.797,-0.195
42.539,-0.578,0.799,-0.199
42.549,-0.580,0.795,-0.201
42.559,-0.578,0.795,-0.203
42.568,-0.578,0.793,-0.195
42.578,-0.580,0.795,-0.201
42.588,-0.578,0.793,-0.199
42.598,-0.580,0.795,-0.201
42.608,-0.582,0.795,-0.201
42.618,-0.580,0.799,-0.197
42.628,-0.578,0.799,-0.199
42.638,-0.582,0.797,-0.199
42.648,-0.582,0.799,-0.199
42.658,-0.576,0.795,-0.199
42.668,-0.580,0.797,-0.197
42.678,-0.578,0.797,-0.199
42.688,-0.578,0.797,-0.201
42.698,-0.580,0.797,-0.201
42.708,-0.580,0.797,-0.197
42.717,-0.578,0.797,-0.195
42.727,-0.580,0.797,-0.199
42.737,-0.578,0.797,-0.199
42.747,-0.580,0.795,-0.197
42.757,-0.580,0.795,-0.197
42.767,-0.578,0.795,-0.197
42.777,-0.578,0.797,-0.199
42.787,-0.578,0.797,-0.199
42.797,-0.576,0.797,-0.199
42.807,-0.580,0.797,-0.193
42.817,-0.580,0.797,-0.199
42.827,-0.580,0.795,-0.197
42.837,-0.580,0.799,-0.197
42.847,-0.576,0.797,-0.197
42.856,-0.580,0.797,-0.199
42.866,-0.578,0.795,-0.195
42.876,-0.574,0.797,-0.195
42.886,-0.578,0.797,-0.195
42.896,-0.574,0.799,-0.195
42.906,-0.580,0.799,-0.199
42.916,-0.576,0.805,-0.197
42.926,-0.580,0.801,-0.197
42.936,-0.580,0.801,-0.195
42.946,-0.576,0.799,-0.195
42.956,-0.582,0.795,-0.199
42.966,-0.582,0.799,-0.195
42.976,-0.582,0.799,-0.195
42.986,-0.580,0.801,-0.193
42.996,-0.580,0.801,-0.193
43.005,-0.580,0.795,-0.195
43.015,-0.578,0.797,-0.195
43.025,-0.578,0.795,-0.195
43.035,-0.578,0.793,-0.193
43.045,-0.578,0.793,-0.191
43.055,-0.582,0.793,-0.195
43.065,-0.578,0.791,-0.195
43.075,-0.574,0.795,-0.195
43.085,-0.576,0.797,-0.195
43.095,-0.580,0.799,-0.193
43.105,-0.580,0.799,-0.195
43.115,-0.584,0.799,-0.195
43.125,-0.582,0.797,-0.199
43.135,-0.582,0.797,-0.201
43.144,-0.584,0.797,-0.201
43.154,-0.582,0.795,-0.197
43.164,-0.578,0.801,-0.193
43.174,-0.580,0.803,-0.195
43.184,-0.578,0.805,-0.193
43.194,-0.576,0.801,-0.195
43.204,-0.578,0.791,-0.195
43.214,-0.580,0.795,-0.199
43.224,-0.578,0.795,-0.197
43.234,-0.578,0.795,-0.195
43.244,-0.576,0.801,-0.195
43.254,-0.578,0.799,-0.199
43.264,-0.578,0.797,-0.197
43.274,-0.578,0.797,-0.199
43.284,-0.580,0.793,-0.199
43.293,-0.574,0.795,-0.199
43.303,-0.578,0.793,-0.199
43.313,-0.580,0.797,-0.199
43.323,-0.580,0.799,-0.197
43.333,-0.576,0.801,-0.197
43.343,-0.578,0.803,-0.197
43.353,-0.578,0.801,-0.197
43.363,-0.576,0.801,-0.195
43.373,-0.578,0.799,-0.199
43.383,-0.578,0.797,-0.199
43.393,-0.578,0.797,-0.199
43.403,-0.580,0.793,-0.201
43.413,-0.578,0.795,-0.201
43.423,-0.580,0.793,-0.199
43.432,-0.584,0.795,-0.201
43.442,-0.580,0.799,-0.199
43.452,-0.580,0.799,-0.201
43.462,-0.578,0.803,-0.201
43.472,-0.578,0.797,-0.197
43.482,-0.576,0.799,-0.201
43.492,-0.576,0.799,-0.199
43.502,-0.578,0.797,-0.199
43.512,-0.578,0.797,-0.197
43.522,-0.578,0.799,-0.201
43.532,-0.582,0.797,-0.201
43.542,-0.582,0.797,-0.199
43.552,-0.582,0.797,-0.201
43.562,-0.584,0.795,-0.197
43.572,-0.582,0.797,-0.201
43.581,-0.580,0.797,-0.197
43.591,-0.580,0.795,-0.201
43.601,-0.582,0.799,-0.195
43.611,-0.578,0.795,-0.197
43.621,-0.580,0.795,-0.197
43.631,-0.578,0.795,-0.195
43.641,-0.578,0.797,-0.197
43.651,-0.578,0.797,-0.197
43.661,-0.578,0.795,-0.197
43.671,-0.580,0.797,-0.193
43.681,-0.578,0.797,-0.197
43.691,-0.582,0.797,-0.195
43.701,-0.580,0.797,-0.197
43.711,-0.578,0.795,-0.197
43.720,-0.580,0.795,-0.197
43.730,-0.584,0.795,-0.199
43.740,-0.582,0.795,-0.197
43.750,-0.582,0.797,-0.193
43.760,-0.578,0.799,-0.193
43.770,-0.578,0.799,-0.193
43.780,-0.580,0.801,-0.195
43.790,-0.578,0.801,-0.195
43.800,-0.574,0.799,-0.193
43.810,-0.578,0.797,-0.197
43.820,-0.580,0.791,-0.201
43.830,-0.582,0.793,-0.197
43.840,-0.584,0.795,-0.197
43.850,-0.584,0.799,-0.197
43.860,-0.584,0.799,-0.195
43.869,-0.584,0.797,-0.197
43.879,-0.582,0.799,-0.195
43.889,-0.580,0.795,-0.193
43.899,-0.582,0.795,-0.193
43.909,-0.584,0.793,-0.193
43.919,-0.582,0.793,-0.197
43.929,-0.582,0.795,-0.195
43.939,-0.580,0.793,-0.197
43.949,-0.580,0.791,-0.195
43.959,-0.578,0.793,-0.193
43.969,-0.580,0.797,-0.195
43.979,-0.584,0.795,-0.197
43.989,-0.584,0.795,-0.197
43.999,-0.586,0.793,-0.197
44.009,-0.584,0.797,-0.201
44.018,-0.584,0.795,-0.197
44.028,-0.582,0.799,-0.201
44.038,-0.580,0.799,-0.197
44.048,-0.578,0.801,-0.193
44.058,-0.580,0.801,-0.199
44.068,-0.576,0.803,-0.193
44.078,-0.576,0.793,-0.197
44.088,-0.578,0.793,-0.197
44.098,-0.576,0.791,-0.199
44.108,-0.578,0.793,-0.197
44.118,-0.578,0.795,-0.193
44.128,-0.578,0.801,-0.197
44.138,-0.580,0.799,-0.199
44.148,-0.582,0.801,-0.199
44.157,-0.580,0.799,-0.197
44.167,-0.582,0.797,-0.201
44.177,-0.582,0.795,-0.199
44.187,-0.578,0.793,-0.197
44.197,-0.578,0.797,-0.199
44.207,-0.578,0.799,-0.195
44.217,-0.574,0.799,-0.199
44.227,-0.578,0.803,-0.195
44.237,-0.576,0.801,-0.195
44.247,-0.576,0.799,-0.197
44.257,-0.578,0.797,-0.197
44.267,-0.578,0.797,-0.195
44.277,-0.582,0.795,-0.197
44.287,-0.584,0.793,-0.199
44.297,-0.586,0.793,-0.201
44.306,-0.588,0.795,-0.199
44.316,-0.586,0.799,-0.201
44.326,-0.582,0.793,-0.199
44.336,-0.582,0.795,-0.199
44.346,-0.580,0.793,-0.195
44.356,-0.582,0.797,-0.197
44.366,-0.582,0.793,-0.197
44.376,-0.582,0.795,-0.197
44.386,-0.580,0.793,-0.197
44.396,-0.582,0.795,-0.197
44.406,-0.586,0.793,-0.197
44.416,-0.582,0.795,-0.195
44.426,-0.582,0.793,-0.199
44.436,-0.586,0.795,-0.197
44.445,-0.582,0.795,-0.195
44.455,-0.586,0.795,-0.197
44.465,-0.584,0.795,-0.195
44.475,-0.582,0.793,-0.197
44.485,-0.582,0.793,-0.195
44.495,-0.582,0.793,-0.195
44.505,-0.578,0.793,-0.199
44.515,-0.578,0.795,-0.199
44.525,-0.580,0.795,-0.193
44.535,-0.576,0.797,-0.195
44.545,-0.580,0.797,-0.195
44.555,-0.580,0.797,-0.195
44.565,-0.580,0.799,-0.197
44.575,-0.578,0.797,-0.199
44.585,-0.582,0.797,-0.195
44.594,-0.584,0.799,-0.195
44.604,-0.580,0.797,-0.197
44.614,-0.580,0.797,-0.195
44.624,-0.582,0.799,-0.195
44.634,-0.582,0.801,-0.195
44.644,-0.580,0.801,-0.197
44.654,-0.578,0.797,-0.197
44.664,-0.578,0.795,-0.195
44.674,-0.578,0.799,-0.193
44.684,-0.578,0.801,-0.195
44.694,-0.580,0.803,-0.193
44.704,-0.578,0.797,-0.197
44.714,-0.580,0.797,-0.199
44.724,-0.582,0.795,-0.197
44.733,-0.582,0.797,-0.193
44.743,-0.582,0.799,-0.197
44.753,-0.584,0.799,-0.195
44.763,-0.584,0.797,-0.193
44.773,-0.584,0.795,-0.197
44.783,-0.586,0.793,-0.193
44.793,-0.584,0.791,-0.195
44.803,-0.582,0.791,-0.195
44.813,-0.582,0.795,-0.191
44.823,-0.580,0.791,-0.193
44.833,-0.582,0.793,-0.191
44.843,-0.580,0.795,-0.191
44.853,-0.582,0.793,-0.195
44.863,-0.584,0.797,-0.193
44.873,-0.586,0.797,-0.197
44.882,-0.588,0.795,-0.193
44.892,-0.590,0.793,-0.195
44.902,-0.586,0.791,-0.193
44.912,-0.584,0.791,-0.195
44.922,-0.586,0.795,-0.195
44.932,-0.586,0.795,-0.191
44.942,-0.582,0.797,-0.193
44.952,-0.582,0.795,-0.193
44.962,-0.584,0.801,-0.191
44.972,-0.580,0.797,-0.193
44.982,-0.578,0.791,-0.195
44.992,-0.578,0.791,-0.193
45.002,-0.582,0.789,-0.199
45.012,-0.580,0.795,-0.193
45.021,-0.578,0.799,-0.195
45.031,-0.582,0.799,-0.195
45.041,-0.582,0.799,-0.195
45.051,-0.584,0.801,-0.193
45.061,-0.584,0.797,-0.195
45.071,-0.582,0.797,-0.199
45.081,-0.582,0.791,-0.197
45.091,-0.578,0.793,-0.197
45.101,-0.578,0.797,-0.199
45.111,-0.576,0.797,-0.195
45.121,-0.576,0.799,-0.193
45.131,-0.578,0.799,-0.193
45.141,-0.580,0.801,-0.193
45.151,-0.580,0.799,-0.195
45.161,-0.580,0.797,-0.195
45.170,-0.582,0.795,-0.197
45.180,-0.586,0.795,-0.195
45.190,-0.584,0.795,-0.201
45.200,-0.584,0.795,-0.199
45.210,-0.586,0.795,-0.201
45.220,-0.588,0.795,-0.197
45.230,-0.588,0.797,-0.197
45.240,-0.586,0.797,-0.197
45.250,-0.584,0.797,-0.195
45.260,-0.582,0.797,-0.197
45.270,-0.582,0.797,-0.193
45.280,-0.580,0.799,-0.191
45.290,-0.582,0.797,-0.193
45.300,-0.586,0.795,-0.197
45.309,-0.584,0.791,-0.195
45.319,-0.582,0.791,-0.197
45.329,-0.586,0.793,-0.197
45.339,-0.582,0.789,-0.195
45.349,-0.584,0.795,-0.193
45.359,-0.586,0.795,-0.197
45.369,-0.588,0.797,-0.195
45.379,-0.584,0.793,-0.195
45.389,-0.584,0.795,-0.197
45.399,-0.584,0.791,-0.195
45.409,-0.584,0.795,-0.197
45.419,-0.580,0.793,-0.195
45.429,-0.580,0.793,-0.195
45.439,-0.580,0.791,-0.199
45.449,-0.584,0.797,-0.193
45.458,-0.580,0.795,-0.199
45.468,-0.580,0.797,-0.197
45.478,-0.584,0.795,-0.195
45.488,-0.582,0.797,-0.197
45.498,-0.584,0.797,-0.195
45.508,-0.580,0.797,-0.199
45.518,-0.582,0.797,-0.201
45.528,-0.580,0.795,-0.199
45.538,-0.578,0.795,-0.197
45.548,-0.578,0.797,-0.197
45.558,-0.578,0.795,-0.197
45.568,-0.578,0.801,-0.195
45.578,-0.580,0.805,-0.197
45.588,-0.580,0.807,-0.193
45.598,-0.578,0.803,-0.197
45.607,-0.580,0.793,-0.197
45.617,-0.584,0.793,-0.201
45.627,-0.584,0.793,-0.199
45.637,-0.586,0.797,-0.197
45.647,-0.586,0.799,-0.195
45.657,-0.584,0.797,-0.197
45.667,-0.584,0.799,-0.193
45.677,-0.584,0.795,-0.191
45.687,-0.586,0.793,-0.195
45.697,-0.584,0.791,-0.195
45.707,-0.584,0.791,-0.193
45.717,-0.580,0.793,-0.193
45.727,-0.580,0.793,-0.193
45.737,-0.580,0.793,-0.193
45.746,-0.580,0.795,-0.193
45.756,-0.582,0.793,-0.195
45.766,-0.586,0.795,-0.193
45.776,-0.588,0.793,-0.197
45.786,-0.590,0.797,-0.195
45.796,-0.592,0.791,-0.197
45.806,-0.588,0.793,-0.197
45.816,-0.588,0.791,-0.195
45.826,-0.586,0.793,-0.197
45.836,-0.584,0.797,-0.193
45.846,-0.586,0.797,-0.191
45.856,-0.582,0.801,-0.189
45.866,-0.576,0.801,-0.191
45.876,-0.578,0.791,-0.195
45.886,-0.580,0.795,-0.193
45.895,-0.580,0.795,-0.197
45.905,-0.580,0.797,-0.195
45.915,-0.578,0.797,-0.193
45.925,-0.582,0.799,-0.193
45.935,-0.580,0.799,-0.195
45.945,-0.582,0.797,-0.193
45.955,-0.584,0.793,-0.197
45.965,-0.584,0.795,-0.201
45.975,-0.582,0.795,-0.197
45.985,-0.580,0.795,-0.199
45.995,-0.578,0.795,-0.201
46.005,-0.578,0.797,-0.195
46.015,-0.576,0.797,-0.193
46.025,-0.578,0.801,-0.199
46.034,-0.578,0.799,-0.197
46.044,-0.578,0.799,-0.197
46.054,-0.570,0.797,-0.199
46.064,-0.578,0.793,-0.199
46.074,-0.580,0.795,-0.197
46.084,-0.578,0.793,-0.199
46.094,-0.582,0.795,-0.201
46.104,-0.580,0.795,-0.201
46.114,-0.582,0.797,-0.201
46.124,-0.580,0.801,-0.197
46.134,-0.582,0.799,-0.199
46.144,-0.582,0.803,-0.199
46.154,-0.578,0.803,-0.201
46.164,-0.580,0.799,-0.197
46.174,-0.578,0.797,-0.195
46.183,-0.580,0.799,-0.197
46.193,-0.576,0.799,-0.203
46.203,-0.580,0.793,-0.201
46.213,-0.582,0.793,-0.201
46.223,-0.580,0.793,-0.197
46.233,-0.584,0.793,-0.199
46.243,-0.582,0.793,-0.197
46.253,-0.584,0.793,-0.197
46.263,-0.584,0.795,-0.199
46.273,-0.582,0.793,-0.197
46.283,-0.582,0.791,-0.197
46.293,-0.584,0.793,-0.197
46.303,-0.582,0.795,-0.195
46.313,-0.582,0.793,-0.197
46.322,-0.586,0.793,-0.197
46.332,-0.582,0.795,-0.197
46.342,-0.584,0.795,-0.197
46.352,-0.584,0.797,-0.193
46.362,-0.582,0.799,-0.197
46.372,-0.584,0.793,-0.193
46.382,-0.584,0.797,-0.197
46.392,-0.582,0.795,-0.201
46.402,-0.584,0.793,-0.199
46.412,-0.578,0.795,-0.197
46.422,-0.578,0.793,-0.195
46.432,-0.574,0.797,-0.195
46.442,-0.582,0.797,-0.193
46.452,-0.582,0.803,-0.191
46.462,-0.580,0.801,-0.193
46.471,-0.578,0.801,-0.197
46.481,-0.584,0.797,-0.197
46.491,-0.582,0.793,-0.197
46.501,-0.582,0.795,-0.195
46.511,-0.582,0.799,-0.195
46.521,-0.584,0.801,-0.193
46.531,-0.582,0.799,-0.191
46.541,-0.580,0.799,-0.195
46.551,-0.580,0.795,-0.195
46.561,-0.584,0.795,-0.195
46.571,-0.578,0.795,-0.193
46.581,-0.582,0.793,-0.197
46.591,-0.576,0.795,-0.191
46.601,-0.578,0.793,-0.193
46.610,-0.580,0.793,-0.191
46.620,-0.582,0.797,-0.193
46.630,-0.580,0.797,-0.193
46.640,-0.584,0.795,-0.199
46.650,-0.586,0.797,-0.197
46.660,-0.588,0.797,-0.195
46.670,-0.588,0.795,-0.197
46.680,-0.588,0.795,-0.197
46.690,-0.584,0.795,-0.197
46.700,-0.582,0.799,-0.197
46.710,-0.584,0.799,-0.195
46.720,-0.580,0.803,-0.193
46.730,-0.580,0.795,-0.193
46.740,-0.578,0.793,-0.195
46.750,-0.580,0.793,-0.197
46.759,-0.580,0.795,-0.197
46.769,-0.578,0.795,-0.195
46.779,-0.578,0.801,-0.197
46.789,-0.580,0.801,-0.193
46.799,-0.584,0.797,-0.195
46.809,-0.582,0.797,-0.197
46.819,-0.586,0.793,-0.199
46.829,-0.584,0.793,-0.197
46.839,-0.582,0.793,-0.199
46.849,-0.584,0.793,-0.201
46.859,-0.582,0.795,-0.201
46.869,-0.580,0.797,-0.199
46.879,-0.578,0.797,-0.199
46.889,-0.582,0.797,-0.197
46.898,-0.580,0.797,-0.197
46.908,-0.578,0.795,-0.197
46.918,-0.582,0.797,-0.201
46.928,-0.578,0.793,-0.199
46.938,-0.584,0.797,-0.203
46.948,-0.588,0.795,-0.203
46.958,-0.584,0.791,-0.203
46.968,-0.586,0.795,-0.201
46.978,-0.586,0.797,-0.201
46.988,-0.586,0.793,-0.199
46.998,-0.584,0.795,-0.201
47.008,-0.584,0.797,-0.201
47.018,-0.582,0.795,-0.201
47.028,-0.582,0.797,-0.195
47.038,-0.580,0.799,-0.199
47.047,-0.582,0.795,-0.199
47.057,-0.578,0.795,-0.201
47.067,-0.578,0.795,-0.201
47.077,-0.580,0.795,-0.203
47.087,-0.582,0.795,-0.201
47.097,-0.580,0.795,-0.195
47.107,-0.582,0.795,-0.197
47.117,-0.582,0.795,-0.199
47.127,-0.584,0.795,-0.195
47.137,-0.580,0.795,-0.201
47.147,-0.580,0.795,-0.195
47.157,-0.580,0.793,-0.201
47.167,-0.580,0.793,-0.195
47.177,-0.580,0.793,-0.199
47.187,-0.584,0.795,-0.197
47.196,-0.586,0.795,-0.199
47.206,-0.588,0.799,-0.199
47.216,-0.588,0.799,-0.197
47.226,-0.584,0.797,-0.199
47.236,-0.580,0.797,-0.197
47.246,-0.580,0.797,-0.201
47.256,-0.580,0.795,-0.199
47.266,-0.582,0.795,-0.197
47.276,-0.582,0.793,-0.199
47.286,-0.580,0.791,-0.197
47.296,-0.580,0.795,-0.195
47.306,-0.580,0.795,-0.195
47.316,-0.582,0.797,-0.195
47.326,-0.580,0.797,-0.199
47.335,-0.584,0.793,-0.199
47.345,-0.584,0.795,-0.199
47.355,-0.586,0.795,-0.195
47.365,-0.588,0.795,-0.195
47.375,-0.586,0.795,-0.197
47.385,-0.584,0.797,-0.195
47.395,-0.586,0.793,-0.193
47.405,-0.584,0.791,-0.197
47.415,-0.586,0.791,-0.197
47.425,-0.586,0.793,-0.191
47.435,-0.582,0.789,-0.193
47.445,-0.580,0.791,-0.193
47.455,-0.584,0.791,-0.193
47.465,-0.582,0.793,-0.193
47.475,-0.584,0.793,-0.197
47.484,-0.582,0.795,-0.197
47.494,-0.584,0.795,-0.197
47.504,-0.586,0.795,-0.195
47.514,-0.586,0.793,-0.195
47.524,-0.588,0.795,-0.195
47.534,-0.588,0.793,-0.197
47.544,-0.588,0.793,-0.193
47.554,-0.588,0.791,-0.197
47.564,-0.586,0.791,-0.193
47.574,-0.582,0.795,-0.195
47.584,-0.584,0.799,-0.195
47.594,-0.582,0.801,-0.193
47.604,-0.582,0.793,-0.195
47.614,-0.582,0.791,-0.197
47.623,-0.584,0.789,-0.197
47.633,-0.582,0.791,-0.195
47.643,-0.580,0.795,-0.199
47.653,-0.582,0.799,-0.197
47.663,-0.582,0.797,-0.197
47.673,-0.584,0.797,-0.197
47.683,-0.582,0.799,-0.197
47.693,-0.582,0.793,-0.199
47.703,-0.586,0.793,-0.199
47.713,-0.582,0.797,-0.203
47.723,-0.582,0.795,-0.197
47.733,-0.580,0.799,-0.199
47.743,-0.580,0.799,-0.197
47.753,-0.582,0.797,-0.199
47.763,-0.580,0.799,-0.195
47.772,-0.580,0.795,-0.197
47.782,-0.580,0.797,-0.199
47.792,-0.584,0.793,-0.197
47.802,-0.584,0.791,-0.201
47.812,-0.588,0.793,-0.205
47.822,-0.584,0.793,-0.199
47.832,-0.584,0.795,-0.199
47.842,-0.586,0.793,-0.199
47.852,-0.586,0.795,-0.201
47.862,-0.584,0.795,-0.199
47.872,-0.584,0.797,-0.201
47.882,-0.586,0.795,-0.201
47.892,-0.584,0.797,-0.199
47.902,-0.582,0.795,-0.197
47.911,-0.582,0.793,-0.199
47.921,-0.584,0.793,-0.197
47.931,-0.586,0.793,-0.197
47.941,-0.584,0.795,-0.199
47.951,-0.586,0.793,-0.201
47.961,-0.584,0.795,-0.199
47.971,-0.584,0.793,-0.197
47.981,-0.588,0.795,-0.197
47.991,-0.584,0.791,-0.195
48.001,-0.584,0.793,-0.195
48.011,-0.584,0.793,-0.197
48.021,-0.582,0.795,-0.197
48.031,-0.582,0.791,-0.197
48.041,-0.580,0.793,-0.197
48.051,-0.584,0.793,-0.195
48.060,-0.584,0.793,-0.195
48.070,-0.586,0.795,-0.197
48.080,-0.586,0.797,-0.201
48.090,-0.588,0.795,-0.193
48.100,-0.588,0.797,-0.195
48.110,-0.584,0.795,-0.199
48.120,-0.582,0.795,-0.197
48.130,-0.586,0.793,-0.197
48.140,-0.584,0.797,-0.197
48.150,-0.582,0.795,-0.195
48.160,-0.582,0.795,-0.197
48.170,-0.582,0.793,-0.197
48.180,-0.582,0.795,-0.197
48.190,-0.586,0.797,-0.193
48.199,-0.584,0.799,-0.197
48.209,-0.586,0.799,-0.195
48.219,-0.584,0.793,-0.197
48.229,-0.584,0.795,-0.199
48.239,-0.586,0.791,-0.195
48.249,-0.586,0.797,-0.195
48.259,-0.586,0.793,-0.193
48.269,-0.584,0.795,-0.193
48.279,-0.588,0.793,-0.195
48.289,-0.590,0.795,-0.197
48.299,-0.588,0.791,-0.193
48.309,-0.590,0.789,-0.195
48.319,-0.590,0.789,-0.195
48.329,-0.588,0.791,-0.195
48.339,-0.586,0.789,-0.191
48.348,-0.584,0.791,-0.201
48.358,-0.586,0.793,-0.193
48.368,-0.586,0.795,-0.199
48.378,-0.588,0.793,-0.189
48.388,-0.588,0.793,-0.197
48.398,-0.590,0.791,-0.195
48.408,-0.590,0.793,-0.197
48.418,-0.590,0.791,-0.201
48.428,-0.590,0.795,-0.197
48.438,-0.590,0.797,-0.195
48.448,-0.584,0.795,-0.193
48.458,-0.586,0.795,-0.193
48.468,-0.586,0.797,-0.195
48.478,-0.588,0.797,-0.193
48.487,-0.580,0.787,-0.197
48.497,-0.584,0.787,-0.197
48.507,-0.586,0.789,-0.195
48.517,-0.586,0.791,-0.197
48.527,-0.584,0.791,-0.195
48.537,-0.586,0.797,-0.195
48.547,-0.588,0.795,-0.195
48.557,-0.586,0.795,-0.193
48.567,-0.586,0.793,-0.193
48.577,-0.590,0.791,-0.199
48.587,-0.584,0.791,-0.195
48.597,-0.586,0.791,-0.199
48.607,-0.582,0.793,-0.197
48.617,-0.582,0.797,-0.197
48.627,-0.584,0.799,-0.197
48.636,-0.580,0.797,-0.195
48.646,-0.584,0.797,-0.197
48.656,-0.584,0.797,-0.197
48.666,-0.582,0.793,-0.197
48.676,-0.586,0.795,-0.197
48.686,-0.584,0.793,-0.199
48.696,-0.586,0.795,-0.203
48.706,-0.588,0.793,-0.201
48.716,-0.586,0.793,-0.199
48.726,-0.584,0.793,-0.199
48.736,-0.586,0.795,-0.197
48.746,-0.586,0.795,-0.201
48.756,-0.586,0.795,-0.199
48.766,-0.586,0.797,-0.201
48.775,-0.584,0.795,-0.199
48.785,-0.584,0.797,-0.197
48.795,-0.584,0.797,-0.197
48.805,-0.586,0.793,-0.197
48.815,-0.586,0.791,-0.197
48.825,-0.584,0.791,-0.197
48.835,-0.588,0.793,-0.199
48.845,-0.588,0.793,-0.197
48.855,-0.590,0.787,-0.199
48.865,-0.590,0.789,-0.203
48.875,-0.590,0.789,-0.199
48.885,-0.590,0.789,-0.197
48.895,-0.586,0.789,-0.197
48.905,-0.586,0.789,-0.195
48.915,-0.586,0.791,-0.199
48.924,-0.584,0.791,-0.195
48.934,-0.588,0.793,-0.195
48.944,-0.586,0.791,-0.193
48.954,-0.588,0.795,-0.193
