df_hash,22ZHK4.SNEL2E
device,HZ2X61
project_hash,29R7
project_name,istanbul_aydin_university
person_hash,29R7.ZR5A
person_label,v107
date_time_start,2026-03-02_13-49-02.582000_+03
date_time_start_unix,1772444942.582
date_time_end,2026-03-02_13-57-50.804000_+03
length_difference_noticed,no

time,acc_x,acc_y,acc_z
5.029,-0.480,0.863,0.029
5.039,-0.484,0.863,0.023
5.049,-0.480,0.859,0.023
5.059,-0.480,0.855,0.021
5.068,-0.477,0.848,0.023
5.078,-0.482,0.855,0.029
5.088,-0.479,0.859,0.027
5.098,-0.484,0.861,0.029
5.108,-0.486,0.865,0.023
5.118,-0.482,0.857,0.025
5.128,-0.475,0.850,0.029
5.138,-0.471,0.854,0.033
5.148,-0.477,0.857,0.031
5.158,-0.471,0.865,0.029
5.168,-0.477,0.877,0.025
5.178,-0.482,0.883,0.025
5.188,-0.492,0.879,0.025
5.197,-0.492,0.873,0.025
5.207,-0.482,0.863,0.031
5.217,-0.482,0.859,0.031
5.227,-0.484,0.852,0.031
5.237,-0.488,0.848,0.031
5.247,-0.482,0.848,0.033
5.257,-0.477,0.850,0.031
5.267,-0.475,0.854,0.031
5.277,-0.479,0.859,0.025
5.287,-0.480,0.854,0.029
5.297,-0.479,0.854,0.029
5.307,-0.473,0.861,0.031
5.317,-0.473,0.861,0.031
5.327,-0.482,0.867,0.031
5.336,-0.488,0.863,0.033
5.346,-0.486,0.863,0.031
5.356,-0.479,0.855,0.031
5.366,-0.475,0.850,0.035
5.376,-0.469,0.863,0.035
5.386,-0.477,0.865,0.027
5.396,-0.488,0.873,0.025
5.406,-0.484,0.869,0.025
5.416,-0.479,0.863,0.033
5.426,-0.473,0.863,0.035
5.436,-0.479,0.861,0.035
5.446,-0.482,0.867,0.033
5.456,-0.484,0.865,0.029
5.465,-0.480,0.863,0.031
5.475,-0.477,0.867,0.031
5.485,-0.477,0.857,0.029
5.495,-0.479,0.857,0.035
5.505,-0.477,0.859,0.033
5.515,-0.479,0.855,0.033
5.525,-0.479,0.857,0.031
5.535,-0.477,0.861,0.033
5.545,-0.480,0.857,0.029
5.555,-0.482,0.863,0.033
5.565,-0.482,0.867,0.035
5.575,-0.484,0.865,0.035
5.585,-0.479,0.867,0.029
5.595,-0.480,0.859,0.031
5.604,-0.479,0.855,0.033
5.614,-0.475,0.850,0.035
5.624,-0.471,0.852,0.035
5.634,-0.473,0.859,0.035
5.644,-0.482,0.867,0.031
5.654,-0.486,0.867,0.029
5.664,-0.490,0.861,0.031
5.674,-0.480,0.857,0.037
5.684,-0.473,0.857,0.035
5.694,-0.471,0.861,0.035
5.704,-0.477,0.865,0.033
5.714,-0.473,0.873,0.029
5.724,-0.471,0.877,0.027
5.734,-0.477,0.877,0.027
5.743,-0.488,0.875,0.029
5.753,-0.492,0.865,0.033
5.763,-0.477,0.855,0.037
5.773,-0.471,0.848,0.037
5.783,-0.473,0.852,0.033
5.793,-0.479,0.850,0.031
5.803,-0.480,0.859,0.031
5.813,-0.475,0.861,0.031
5.823,-0.473,0.859,0.031
5.833,-0.471,0.861,0.035
5.843,-0.477,0.855,0.033
5.853,-0.479,0.859,0.035
5.863,-0.473,0.867,0.033
5.872,-0.480,0.863,0.031
5.882,-0.484,0.854,0.031
5.892,-0.479,0.852,0.037
5.902,-0.473,0.854,0.037
5.912,-0.471,0.861,0.035
5.922,-0.475,0.873,0.033
5.932,-0.486,0.869,0.027
5.942,-0.486,0.869,0.027
5.952,-0.482,0.865,0.035
5.962,-0.475,0.861,0.039
5.972,-0.477,0.861,0.039
5.982,-0.482,0.861,0.035
5.992,-0.486,0.863,0.033
6.002,-0.484,0.859,0.023
6.011,-0.480,0.857,0.029
6.021,-0.477,0.857,0.029
6.031,-0.482,0.857,0.033
6.041,-0.480,0.859,0.037
6.051,-0.480,0.857,0.035
6.061,-0.482,0.859,0.033
6.071,-0.480,0.859,0.031
6.081,-0.480,0.861,0.031
6.091,-0.480,0.861,0.029
6.101,-0.480,0.857,0.031
6.111,-0.480,0.857,0.029
6.121,-0.480,0.859,0.029
6.131,-0.477,0.852,0.031
6.140,-0.477,0.855,0.035
6.150,-0.477,0.855,0.031
6.160,-0.479,0.857,0.031
6.170,-0.482,0.859,0.029
6.180,-0.484,0.863,0.031
6.190,-0.480,0.854,0.035
6.200,-0.480,0.857,0.037
6.210,-0.479,0.861,0.035
6.220,-0.480,0.867,0.033
6.230,-0.482,0.869,0.033
6.240,-0.477,0.869,0.035
6.250,-0.475,0.869,0.033
6.260,-0.486,0.871,0.033
6.270,-0.494,0.867,0.033
6.279,-0.494,0.859,0.035
6.289,-0.484,0.850,0.035
6.299,-0.479,0.852,0.035
6.309,-0.479,0.846,0.033
6.319,-0.482,0.850,0.033
6.329,-0.482,0.852,0.033
6.339,-0.477,0.854,0.033
6.349,-0.475,0.852,0.031
6.359,-0.480,0.857,0.037
6.369,-0.480,0.863,0.037
6.379,-0.479,0.863,0.035
6.389,-0.482,0.867,0.033
6.399,-0.480,0.867,0.029
6.408,-0.482,0.855,0.033
6.418,-0.479,0.859,0.035
6.428,-0.479,0.857,0.037
6.438,-0.475,0.857,0.035
6.448,-0.477,0.863,0.033
6.458,-0.475,0.861,0.031
6.468,-0.484,0.863,0.033
6.478,-0.480,0.861,0.031
6.488,-0.479,0.857,0.035
6.498,-0.477,0.863,0.037
6.508,-0.479,0.867,0.033
6.518,-0.480,0.871,0.029
6.528,-0.480,0.867,0.025
6.538,-0.479,0.859,0.029
6.547,-0.475,0.854,0.033
6.557,-0.473,0.855,0.037
6.567,-0.479,0.852,0.035
6.577,-0.480,0.857,0.033
6.587,-0.477,0.863,0.031
6.597,-0.477,0.859,0.029
6.607,-0.479,0.861,0.035
6.617,-0.475,0.867,0.039
6.627,-0.479,0.867,0.035
6.637,-0.480,0.867,0.033
6.647,-0.477,0.863,0.031
6.657,-0.475,0.852,0.037
6.667,-0.473,0.854,0.041
6.677,-0.475,0.852,0.039
6.686,-0.480,0.859,0.039
6.696,-0.480,0.863,0.037
6.706,-0.479,0.863,0.035
6.716,-0.479,0.855,0.037
6.726,-0.473,0.859,0.043
6.736,-0.473,0.863,0.045
6.746,-0.477,0.867,0.045
6.756,-0.473,0.873,0.041
6.766,-0.475,0.871,0.039
6.776,-0.475,0.873,0.037
6.786,-0.480,0.873,0.037
6.796,-0.488,0.867,0.039
6.806,-0.488,0.863,0.041
6.815,-0.482,0.855,0.043
6.825,-0.480,0.850,0.045
6.835,-0.480,0.854,0.045
6.845,-0.484,0.850,0.043
6.855,-0.480,0.855,0.047
6.865,-0.479,0.861,0.049
6.875,-0.484,0.859,0.045
6.885,-0.479,0.855,0.041
6.895,-0.477,0.861,0.039
6.905,-0.477,0.859,0.039
6.915,-0.477,0.865,0.043
6.925,-0.484,0.863,0.043
6.935,-0.486,0.852,0.039
6.945,-0.480,0.857,0.043
6.954,-0.477,0.854,0.049
6.964,-0.475,0.859,0.049
6.974,-0.475,0.865,0.043
6.984,-0.480,0.867,0.039
6.994,-0.484,0.863,0.039
7.004,-0.482,0.865,0.043
7.014,-0.477,0.863,0.045
7.024,-0.480,0.865,0.045
7.034,-0.482,0.863,0.043
7.044,-0.479,0.865,0.043
7.054,-0.482,0.861,0.043
7.064,-0.482,0.861,0.045
7.074,-0.482,0.859,0.045
7.083,-0.480,0.855,0.045
7.093,-0.479,0.855,0.045
7.103,-0.480,0.855,0.043
7.113,-0.479,0.859,0.041
7.123,-0.480,0.865,0.041
7.133,-0.479,0.865,0.041
7.143,-0.479,0.861,0.037
7.153,-0.479,0.859,0.041
7.163,-0.475,0.859,0.043
7.173,-0.477,0.859,0.043
7.183,-0.479,0.855,0.041
7.193,-0.477,0.857,0.045
7.203,-0.477,0.857,0.045
7.213,-0.479,0.855,0.047
7.222,-0.480,0.863,0.047
7.232,-0.480,0.863,0.045
7.242,-0.479,0.855,0.045
7.252,-0.477,0.855,0.047
7.262,-0.475,0.855,0.049
7.272,-0.477,0.865,0.049
7.282,-0.473,0.875,0.047
7.292,-0.477,0.883,0.045
7.302,-0.484,0.879,0.045
7.312,-0.488,0.875,0.043
7.322,-0.484,0.869,0.051
7.332,-0.482,0.861,0.053
7.342,-0.482,0.855,0.049
7.351,-0.484,0.854,0.049
7.361,-0.482,0.852,0.043
7.371,-0.477,0.854,0.047
7.381,-0.475,0.854,0.047
7.391,-0.477,0.854,0.047
7.401,-0.477,0.857,0.047
7.411,-0.479,0.855,0.051
7.421,-0.477,0.854,0.049
7.431,-0.477,0.859,0.047
7.441,-0.479,0.861,0.047
7.451,-0.484,0.865,0.047
7.461,-0.482,0.863,0.039
7.471,-0.482,0.861,0.045
7.481,-0.479,0.855,0.047
7.490,-0.477,0.861,0.051
7.500,-0.480,0.865,0.047
7.510,-0.486,0.863,0.039
7.520,-0.488,0.861,0.037
7.530,-0.486,0.857,0.045
7.540,-0.477,0.854,0.049
7.550,-0.477,0.852,0.051
7.560,-0.479,0.859,0.047
7.570,-0.482,0.865,0.041
7.580,-0.482,0.867,0.043
7.590,-0.484,0.867,0.041
7.600,-0.480,0.867,0.043
7.610,-0.482,0.859,0.045
7.619,-0.484,0.857,0.045
7.629,-0.482,0.857,0.045
7.639,-0.486,0.854,0.043
7.649,-0.486,0.854,0.045
7.659,-0.484,0.852,0.045
7.669,-0.486,0.850,0.043
7.679,-0.482,0.852,0.047
7.689,-0.480,0.852,0.047
7.699,-0.482,0.857,0.045
7.709,-0.484,0.859,0.047
7.719,-0.488,0.857,0.043
7.729,-0.482,0.861,0.045
7.739,-0.480,0.863,0.047
7.749,-0.482,0.861,0.049
7.758,-0.486,0.865,0.049
7.768,-0.486,0.867,0.045
7.778,-0.484,0.855,0.043
7.788,-0.482,0.855,0.049
7.798,-0.482,0.857,0.049
7.808,-0.484,0.861,0.051
7.818,-0.480,0.867,0.043
7.828,-0.484,0.869,0.039
7.838,-0.484,0.865,0.035
7.848,-0.488,0.861,0.033
7.858,-0.488,0.857,0.039
7.868,-0.490,0.854,0.039
7.878,-0.490,0.852,0.041
7.888,-0.484,0.846,0.041
7.897,-0.482,0.848,0.039
7.907,-0.484,0.850,0.033
7.917,-0.484,0.852,0.041
7.927,-0.486,0.854,0.041
7.937,-0.484,0.854,0.043
7.947,-0.484,0.859,0.043
7.957,-0.486,0.855,0.045
7.967,-0.486,0.859,0.043
7.977,-0.484,0.865,0.041
7.987,-0.486,0.857,0.047
7.997,-0.488,0.854,0.045
8.007,-0.482,0.855,0.047
8.017,-0.479,0.852,0.051
8.026,-0.475,0.857,0.049
8.036,-0.473,0.865,0.045
8.046,-0.482,0.869,0.043
8.056,-0.486,0.869,0.039
8.066,-0.484,0.865,0.045
8.076,-0.482,0.863,0.045
8.086,-0.484,0.859,0.051
8.096,-0.486,0.855,0.049
8.106,-0.486,0.857,0.043
8.116,-0.482,0.857,0.047
8.126,-0.484,0.859,0.043
8.136,-0.488,0.861,0.045
8.146,-0.480,0.859,0.045
8.156,-0.482,0.859,0.043
8.165,-0.484,0.859,0.045
8.175,-0.480,0.857,0.047
8.185,-0.484,0.857,0.047
8.195,-0.482,0.855,0.045
8.205,-0.484,0.859,0.045
8.215,-0.484,0.857,0.043
8.225,-0.484,0.857,0.047
8.235,-0.484,0.857,0.045
8.245,-0.479,0.859,0.047
8.255,-0.480,0.857,0.047
8.265,-0.480,0.854,0.043
8.275,-0.479,0.855,0.045
8.285,-0.471,0.857,0.047
8.294,-0.479,0.857,0.051
8.304,-0.480,0.863,0.049
8.314,-0.484,0.863,0.051
8.324,-0.486,0.861,0.045
8.334,-0.479,0.861,0.045
8.344,-0.475,0.861,0.047
8.354,-0.475,0.867,0.055
8.364,-0.477,0.873,0.047
8.374,-0.482,0.877,0.043
8.384,-0.484,0.871,0.039
8.394,-0.480,0.863,0.041
8.404,-0.479,0.861,0.051
8.414,-0.480,0.857,0.053
8.424,-0.482,0.859,0.051
8.433,-0.482,0.859,0.047
8.443,-0.480,0.857,0.039
8.453,-0.477,0.857,0.041
8.463,-0.480,0.857,0.045
8.473,-0.480,0.857,0.047
8.483,-0.479,0.854,0.049
8.493,-0.475,0.854,0.047
8.503,-0.475,0.857,0.047
8.513,-0.480,0.861,0.049
8.523,-0.480,0.867,0.047
8.533,-0.486,0.865,0.043
8.543,-0.480,0.859,0.043
8.553,-0.471,0.855,0.051
8.562,-0.475,0.852,0.049
8.572,-0.471,0.861,0.051
8.582,-0.475,0.869,0.043
8.592,-0.480,0.867,0.047
8.602,-0.484,0.867,0.043
8.612,-0.482,0.867,0.045
8.622,-0.477,0.865,0.049
8.632,-0.479,0.865,0.049
8.642,-0.482,0.861,0.051
8.652,-0.479,0.857,0.045
8.662,-0.473,0.859,0.043
8.672,-0.475,0.861,0.043
8.682,-0.477,0.861,0.047
8.692,-0.477,0.863,0.049
8.701,-0.475,0.863,0.045
8.711,-0.477,0.859,0.047
8.721,-0.477,0.865,0.045
8.731,-0.479,0.861,0.049
8.741,-0.480,0.857,0.049
8.751,-0.479,0.863,0.047
8.761,-0.477,0.863,0.049
8.771,-0.477,0.861,0.043
8.781,-0.477,0.863,0.049
8.791,-0.477,0.863,0.049
8.801,-0.477,0.863,0.047
8.811,-0.479,0.863,0.047
8.821,-0.480,0.857,0.043
8.830,-0.479,0.854,0.043
8.840,-0.475,0.855,0.049
8.850,-0.473,0.865,0.051
8.860,-0.475,0.865,0.053
8.870,-0.480,0.869,0.047
8.880,-0.484,0.865,0.047
8.890,-0.479,0.865,0.047
8.900,-0.477,0.859,0.049
8.910,-0.473,0.857,0.051
8.920,-0.471,0.863,0.053
8.930,-0.471,0.873,0.047
8.940,-0.477,0.877,0.047
8.950,-0.480,0.875,0.041
8.960,-0.479,0.865,0.041
8.969,-0.475,0.865,0.045
8.979,-0.477,0.861,0.047
8.989,-0.480,0.861,0.047
8.999,-0.482,0.855,0.047
9.009,-0.477,0.855,0.043
9.019,-0.477,0.854,0.045
9.029,-0.477,0.852,0.047
9.039,-0.477,0.857,0.051
9.049,-0.477,0.855,0.049
9.059,-0.473,0.857,0.047
9.069,-0.471,0.855,0.047
9.079,-0.475,0.867,0.049
9.089,-0.479,0.869,0.047
9.099,-0.484,0.867,0.045
9.108,-0.484,0.861,0.047
9.118,-0.475,0.859,0.051
9.128,-0.473,0.854,0.051
9.138,-0.473,0.861,0.055
9.148,-0.473,0.873,0.049
9.158,-0.480,0.871,0.045
9.168,-0.482,0.867,0.041
9.178,-0.482,0.867,0.043
9.188,-0.480,0.863,0.051
9.198,-0.477,0.859,0.049
9.208,-0.479,0.861,0.049
9.218,-0.480,0.859,0.045
9.228,-0.475,0.859,0.045
9.237,-0.475,0.859,0.043
9.247,-0.475,0.861,0.045
9.257,-0.473,0.859,0.049
9.267,-0.475,0.859,0.043
9.277,-0.473,0.859,0.051
9.287,-0.469,0.857,0.049
9.297,-0.473,0.863,0.049
9.307,-0.477,0.865,0.047
9.317,-0.479,0.867,0.045
9.327,-0.479,0.867,0.045
9.337,-0.475,0.861,0.047
9.347,-0.475,0.861,0.045
9.357,-0.471,0.863,0.045
9.367,-0.475,0.863,0.051
9.376,-0.477,0.861,0.047
9.386,-0.475,0.861,0.047
9.396,-0.477,0.863,0.049
9.406,-0.479,0.863,0.047
9.416,-0.480,0.857,0.049
9.426,-0.477,0.859,0.051
9.436,-0.477,0.859,0.049
9.446,-0.475,0.857,0.051
9.456,-0.479,0.865,0.049
9.466,-0.480,0.867,0.049
9.476,-0.482,0.867,0.043
9.486,-0.477,0.859,0.045
9.496,-0.475,0.855,0.047
9.505,-0.465,0.855,0.051
9.515,-0.465,0.865,0.053
9.525,-0.465,0.877,0.045
9.535,-0.480,0.877,0.041
9.545,-0.482,0.879,0.041
9.555,-0.484,0.869,0.047
9.565,-0.479,0.865,0.049
9.575,-0.479,0.865,0.047
9.585,-0.480,0.857,0.049
9.595,-0.479,0.854,0.039
9.605,-0.475,0.850,0.041
9.615,-0.473,0.848,0.043
9.625,-0.475,0.852,0.047
9.635,-0.477,0.854,0.047
9.644,-0.475,0.854,0.045
9.654,-0.471,0.857,0.045
9.664,-0.469,0.863,0.045
9.674,-0.475,0.865,0.047
9.684,-0.480,0.871,0.049
9.694,-0.486,0.863,0.049
9.704,-0.479,0.863,0.047
9.714,-0.477,0.855,0.053
9.724,-0.469,0.861,0.053
9.734,-0.471,0.871,0.051
9.744,-0.482,0.877,0.045
9.754,-0.484,0.867,0.043
9.764,-0.479,0.865,0.045
9.773,-0.471,0.863,0.051
9.783,-0.477,0.865,0.051
9.793,-0.480,0.863,0.049
9.803,-0.480,0.859,0.043
9.813,-0.477,0.855,0.045
9.823,-0.473,0.855,0.047
9.833,-0.475,0.859,0.053
9.843,-0.479,0.865,0.051
9.853,-0.479,0.859,0.043
9.863,-0.475,0.863,0.047
9.873,-0.475,0.861,0.047
9.883,-0.475,0.861,0.049
9.893,-0.477,0.861,0.049
9.903,-0.477,0.857,0.051
9.912,-0.473,0.859,0.053
9.922,-0.475,0.859,0.051
9.932,-0.475,0.863,0.047
9.942,-0.480,0.869,0.047
9.952,-0.482,0.867,0.045
9.962,-0.482,0.863,0.047
9.972,-0.480,0.859,0.049
9.982,-0.479,0.857,0.049
9.992,-0.480,0.854,0.049
10.002,-0.480,0.854,0.047
10.012,-0.477,0.859,0.049
10.022,-0.477,0.859,0.049
10.032,-0.482,0.861,0.049
10.042,-0.486,0.865,0.051
10.051,-0.486,0.857,0.049
10.061,-0.480,0.857,0.051
10.071,-0.479,0.857,0.055
10.081,-0.480,0.861,0.055
10.091,-0.477,0.865,0.051
10.101,-0.475,0.879,0.045
10.111,-0.482,0.881,0.047
10.121,-0.496,0.869,0.039
10.131,-0.492,0.861,0.043
10.141,-0.488,0.859,0.053
10.151,-0.484,0.848,0.053
10.161,-0.486,0.844,0.051
10.171,-0.488,0.844,0.049
10.180,-0.484,0.848,0.045
10.190,-0.479,0.854,0.043
10.200,-0.482,0.854,0.045
10.210,-0.484,0.857,0.049
10.220,-0.482,0.855,0.055
10.230,-0.482,0.861,0.051
10.240,-0.477,0.857,0.049
10.250,-0.482,0.861,0.051
10.260,-0.484,0.859,0.047
10.270,-0.486,0.855,0.047
10.280,-0.484,0.857,0.049
10.290,-0.479,0.852,0.055
10.300,-0.473,0.861,0.051
10.310,-0.480,0.871,0.047
10.319,-0.496,0.869,0.047
10.329,-0.496,0.867,0.045
10.339,-0.486,0.859,0.049
10.349,-0.482,0.857,0.055
10.359,-0.486,0.859,0.055
10.369,-0.488,0.855,0.049
10.379,-0.490,0.861,0.047
10.389,-0.486,0.859,0.045
10.399,-0.480,0.854,0.045
10.409,-0.484,0.859,0.049
10.419,-0.490,0.855,0.049
10.429,-0.486,0.859,0.049
10.439,-0.488,0.854,0.049
10.448,-0.482,0.854,0.051
10.458,-0.480,0.854,0.051
10.468,-0.484,0.857,0.051
10.478,-0.484,0.863,0.051
10.488,-0.488,0.859,0.045
10.498,-0.484,0.861,0.041
10.508,-0.488,0.861,0.047
10.518,-0.490,0.855,0.049
10.528,-0.490,0.854,0.049
10.538,-0.488,0.855,0.049
10.548,-0.482,0.857,0.049
10.558,-0.486,0.850,0.049
10.568,-0.482,0.857,0.049
10.578,-0.488,0.863,0.049
10.587,-0.494,0.859,0.051
10.597,-0.500,0.854,0.053
10.607,-0.496,0.857,0.053
10.617,-0.488,0.852,0.053
10.627,-0.488,0.850,0.053
10.637,-0.486,0.855,0.051
10.647,-0.482,0.865,0.049
10.657,-0.482,0.877,0.049
10.667,-0.490,0.871,0.043
10.677,-0.502,0.869,0.043
10.687,-0.498,0.863,0.045
10.697,-0.492,0.854,0.051
10.707,-0.488,0.846,0.049
10.716,-0.486,0.846,0.049
10.726,-0.490,0.848,0.049
10.736,-0.492,0.848,0.045
10.746,-0.490,0.852,0.043
10.756,-0.490,0.848,0.045
10.766,-0.492,0.852,0.049
10.776,-0.494,0.852,0.047
10.786,-0.490,0.854,0.045
10.796,-0.488,0.855,0.049
10.806,-0.490,0.861,0.045
10.816,-0.496,0.854,0.047
10.826,-0.496,0.848,0.047
10.836,-0.490,0.848,0.047
10.846,-0.488,0.842,0.049
10.855,-0.486,0.855,0.051
10.865,-0.494,0.865,0.045
10.875,-0.504,0.865,0.043
10.885,-0.504,0.861,0.045
10.895,-0.494,0.854,0.053
10.905,-0.488,0.850,0.053
10.915,-0.492,0.855,0.057
10.925,-0.498,0.859,0.045
10.935,-0.502,0.857,0.045
10.945,-0.498,0.857,0.043
10.955,-0.494,0.852,0.043
10.965,-0.490,0.850,0.049
10.975,-0.494,0.850,0.053
10.984,-0.496,0.850,0.055
10.994,-0.496,0.850,0.053
11.004,-0.494,0.854,0.045
11.014,-0.494,0.850,0.045
11.024,-0.498,0.854,0.043
11.034,-0.496,0.857,0.045
11.044,-0.496,0.854,0.045
11.054,-0.494,0.855,0.051
11.064,-0.500,0.852,0.047
11.074,-0.498,0.854,0.049
11.084,-0.498,0.848,0.049
11.094,-0.498,0.844,0.051
11.104,-0.498,0.848,0.049
11.114,-0.500,0.848,0.049
11.123,-0.502,0.855,0.051
11.133,-0.500,0.857,0.051
11.143,-0.506,0.848,0.049
11.153,-0.500,0.850,0.053
11.163,-0.494,0.848,0.053
11.173,-0.488,0.852,0.051
11.183,-0.490,0.861,0.047
11.193,-0.492,0.869,0.045
11.203,-0.500,0.869,0.043
11.213,-0.506,0.865,0.043
11.223,-0.508,0.855,0.047
11.233,-0.502,0.848,0.051
11.243,-0.496,0.844,0.051
11.253,-0.498,0.840,0.049
11.262,-0.496,0.838,0.049
11.272,-0.496,0.844,0.049
11.282,-0.494,0.846,0.049
11.292,-0.496,0.850,0.047
11.302,-0.494,0.855,0.049
11.312,-0.492,0.855,0.049
11.322,-0.492,0.852,0.047
11.332,-0.492,0.857,0.051
11.342,-0.494,0.861,0.047
11.352,-0.500,0.859,0.045
11.362,-0.502,0.852,0.053
11.372,-0.496,0.846,0.051
11.382,-0.488,0.844,0.055
11.391,-0.488,0.852,0.053
11.401,-0.492,0.863,0.049
11.411,-0.502,0.863,0.045
11.421,-0.504,0.861,0.047
11.431,-0.498,0.855,0.049
11.441,-0.492,0.855,0.057
11.451,-0.490,0.852,0.057
11.461,-0.494,0.855,0.049
11.471,-0.498,0.857,0.045
11.481,-0.500,0.855,0.045
11.491,-0.494,0.852,0.047
11.501,-0.494,0.852,0.053
11.511,-0.494,0.852,0.053
11.521,-0.494,0.850,0.051
11.530,-0.494,0.852,0.049
11.540,-0.492,0.854,0.047
11.550,-0.494,0.855,0.045
11.560,-0.494,0.855,0.047
11.570,-0.490,0.854,0.051
11.580,-0.492,0.852,0.049
11.590,-0.492,0.852,0.049
11.600,-0.498,0.852,0.049
11.610,-0.498,0.850,0.049
11.620,-0.492,0.846,0.055
11.630,-0.488,0.848,0.053
11.640,-0.490,0.852,0.051
11.650,-0.494,0.857,0.051
11.659,-0.494,0.863,0.043
11.669,-0.500,0.857,0.049
11.679,-0.498,0.855,0.049
11.689,-0.492,0.852,0.057
11.699,-0.490,0.852,0.055
11.709,-0.490,0.855,0.055
11.719,-0.488,0.865,0.051
11.729,-0.488,0.869,0.045
11.739,-0.494,0.865,0.043
11.749,-0.504,0.859,0.047
11.759,-0.496,0.855,0.057
11.769,-0.496,0.850,0.059
11.779,-0.496,0.850,0.055
11.789,-0.496,0.854,0.049
11.798,-0.494,0.848,0.047
11.808,-0.492,0.848,0.043
11.818,-0.492,0.846,0.049
11.828,-0.490,0.844,0.053
11.838,-0.488,0.852,0.055
11.848,-0.488,0.854,0.055
11.858,-0.488,0.852,0.051
11.868,-0.490,0.861,0.051
11.878,-0.496,0.863,0.051
11.888,-0.498,0.859,0.053
11.898,-0.504,0.852,0.051
11.908,-0.498,0.850,0.051
11.918,-0.492,0.844,0.053
11.927,-0.486,0.848,0.053
11.937,-0.486,0.855,0.051
11.947,-0.494,0.863,0.047
11.957,-0.502,0.857,0.047
11.967,-0.496,0.857,0.053
11.977,-0.494,0.855,0.057
11.987,-0.494,0.855,0.053
11.997,-0.498,0.852,0.049
12.007,-0.498,0.854,0.045
12.017,-0.496,0.850,0.047
12.027,-0.496,0.850,0.053
12.037,-0.492,0.846,0.053
12.047,-0.492,0.852,0.053
12.057,-0.498,0.854,0.053
12.066,-0.494,0.852,0.053
12.076,-0.492,0.854,0.051
12.086,-0.496,0.855,0.055
12.096,-0.492,0.857,0.051
12.106,-0.496,0.857,0.053
12.116,-0.498,0.854,0.051
12.126,-0.492,0.850,0.049
12.136,-0.490,0.850,0.049
12.146,-0.488,0.848,0.051
12.156,-0.494,0.846,0.053
12.166,-0.494,0.854,0.051
12.176,-0.494,0.854,0.051
12.186,-0.490,0.859,0.055
12.195,-0.498,0.859,0.053
12.205,-0.494,0.855,0.053
12.215,-0.496,0.852,0.057
12.225,-0.490,0.848,0.055
12.235,-0.494,0.852,0.059
12.245,-0.490,0.859,0.057
12.255,-0.486,0.869,0.055
12.265,-0.492,0.873,0.049
12.275,-0.500,0.869,0.047
12.285,-0.500,0.859,0.047
12.295,-0.502,0.855,0.057
12.305,-0.500,0.854,0.059
12.315,-0.502,0.848,0.057
12.325,-0.502,0.842,0.051
12.334,-0.496,0.840,0.051
12.344,-0.492,0.840,0.051
12.354,-0.492,0.840,0.055
12.364,-0.494,0.848,0.053
12.374,-0.498,0.852,0.055
12.384,-0.494,0.855,0.051
12.394,-0.490,0.854,0.051
12.404,-0.486,0.857,0.051
12.414,-0.490,0.865,0.053
12.424,-0.498,0.859,0.051
12.434,-0.498,0.855,0.053
12.444,-0.492,0.852,0.051
12.454,-0.486,0.838,0.055
12.464,-0.480,0.850,0.057
12.473,-0.482,0.859,0.059
12.483,-0.492,0.865,0.053
12.493,-0.498,0.863,0.049
12.503,-0.492,0.863,0.051
12.513,-0.494,0.855,0.059
12.523,-0.494,0.857,0.057
12.533,-0.494,0.855,0.059
12.543,-0.494,0.857,0.059
12.553,-0.494,0.855,0.053
12.563,-0.490,0.859,0.051
12.573,-0.490,0.859,0.051
12.583,-0.492,0.857,0.049
12.593,-0.492,0.850,0.051
12.602,-0.490,0.848,0.047
12.612,-0.490,0.848,0.049
12.622,-0.492,0.850,0.051
12.632,-0.494,0.852,0.049
12.642,-0.496,0.854,0.051
12.652,-0.492,0.852,0.049
12.662,-0.494,0.857,0.047
12.672,-0.496,0.857,0.045
12.682,-0.496,0.857,0.045
12.692,-0.498,0.854,0.049
12.702,-0.490,0.848,0.049
12.712,-0.488,0.846,0.047
12.722,-0.486,0.852,0.047
12.732,-0.492,0.852,0.049
12.741,-0.494,0.854,0.049
12.751,-0.496,0.854,0.047
12.761,-0.490,0.859,0.051
12.771,-0.488,0.855,0.051
12.781,-0.488,0.855,0.053
12.791,-0.488,0.859,0.053
12.801,-0.486,0.867,0.051
12.811,-0.486,0.869,0.049
12.821,-0.492,0.865,0.041
12.831,-0.492,0.863,0.043
12.841,-0.488,0.855,0.051
12.851,-0.492,0.857,0.057
12.861,-0.492,0.852,0.055
12.870,-0.494,0.850,0.053
12.880,-0.490,0.850,0.047
12.890,-0.488,0.850,0.047
12.900,-0.484,0.848,0.049
12.910,-0.488,0.850,0.053
12.920,-0.490,0.852,0.051
12.930,-0.488,0.850,0.049
12.940,-0.482,0.852,0.051
12.950,-0.480,0.855,0.053
12.960,-0.488,0.859,0.053
12.970,-0.490,0.859,0.049
12.980,-0.488,0.855,0.051
12.990,-0.484,0.857,0.051
13.000,-0.484,0.850,0.053
13.009,-0.484,0.854,0.055
13.019,-0.484,0.863,0.051
13.029,-0.492,0.865,0.047
13.039,-0.494,0.865,0.049
13.049,-0.490,0.861,0.051
13.059,-0.486,0.859,0.055
13.069,-0.486,0.857,0.057
13.079,-0.490,0.854,0.055
13.089,-0.490,0.854,0.055
13.099,-0.488,0.855,0.051
13.109,-0.490,0.855,0.051
13.119,-0.488,0.855,0.051
13.129,-0.490,0.857,0.053
13.138,-0.488,0.859,0.053
13.148,-0.484,0.857,0.053
13.158,-0.486,0.855,0.055
13.168,-0.488,0.855,0.051
13.178,-0.488,0.857,0.053
13.188,-0.484,0.857,0.051
13.198,-0.486,0.857,0.053
13.208,-0.486,0.857,0.053
13.218,-0.484,0.855,0.053
13.228,-0.486,0.857,0.053
13.238,-0.486,0.857,0.051
13.248,-0.482,0.857,0.051
13.258,-0.486,0.854,0.053
13.268,-0.488,0.850,0.051
13.277,-0.484,0.852,0.053
13.287,-0.486,0.857,0.055
13.297,-0.490,0.863,0.055
13.307,-0.490,0.863,0.053
13.317,-0.496,0.855,0.053
13.327,-0.488,0.852,0.057
13.337,-0.482,0.852,0.057
13.347,-0.479,0.857,0.055
13.357,-0.480,0.873,0.053
13.367,-0.486,0.871,0.049
13.377,-0.490,0.867,0.045
13.387,-0.490,0.861,0.045
13.397,-0.490,0.857,0.053
13.407,-0.492,0.855,0.057
13.416,-0.496,0.854,0.057
13.426,-0.496,0.854,0.049
13.436,-0.490,0.850,0.045
13.446,-0.486,0.848,0.047
13.456,-0.484,0.852,0.047
13.466,-0.490,0.850,0.049
13.476,-0.490,0.850,0.053
13.486,-0.490,0.850,0.051
13.496,-0.486,0.854,0.053
13.506,-0.486,0.855,0.053
13.516,-0.488,0.863,0.053
13.526,-0.494,0.863,0.049
13.536,-0.492,0.861,0.049
13.545,-0.486,0.855,0.053
13.555,-0.482,0.852,0.057
13.565,-0.480,0.861,0.055
13.575,-0.488,0.867,0.051
13.585,-0.494,0.863,0.049
13.595,-0.492,0.863,0.047
13.605,-0.486,0.859,0.049
13.615,-0.482,0.855,0.051
13.625,-0.486,0.855,0.057
13.635,-0.488,0.854,0.053
13.645,-0.488,0.855,0.053
13.655,-0.484,0.857,0.053
13.665,-0.486,0.855,0.049
13.675,-0.486,0.855,0.051
13.684,-0.486,0.859,0.051
13.694,-0.486,0.861,0.051
13.704,-0.488,0.855,0.051
13.714,-0.486,0.857,0.057
13.724,-0.482,0.854,0.051
13.734,-0.484,0.855,0.051
13.744,-0.488,0.857,0.051
13.754,-0.488,0.857,0.051
13.764,-0.486,0.859,0.051
13.774,-0.488,0.859,0.051
13.784,-0.488,0.857,0.051
13.794,-0.488,0.854,0.051
13.804,-0.488,0.855,0.049
13.813,-0.488,0.855,0.049
13.823,-0.488,0.852,0.047
13.833,-0.484,0.848,0.053
13.843,-0.484,0.857,0.055
13.853,-0.488,0.859,0.055
13.863,-0.496,0.865,0.055
13.873,-0.496,0.865,0.049
13.883,-0.496,0.855,0.053
13.893,-0.488,0.852,0.053
13.903,-0.486,0.850,0.057
13.913,-0.486,0.857,0.061
13.923,-0.484,0.869,0.053
13.933,-0.488,0.873,0.051
13.943,-0.492,0.869,0.043
13.952,-0.488,0.861,0.045
13.962,-0.488,0.857,0.051
13.972,-0.492,0.857,0.057
13.982,-0.498,0.854,0.057
13.992,-0.496,0.850,0.049
14.002,-0.490,0.850,0.049
14.012,-0.482,0.848,0.049
14.022,-0.484,0.852,0.049
14.032,-0.488,0.854,0.053
14.042,-0.484,0.854,0.051
14.052,-0.484,0.852,0.049
14.062,-0.482,0.855,0.051
14.072,-0.484,0.861,0.053
14.081,-0.492,0.861,0.055
14.091,-0.496,0.855,0.051
14.101,-0.488,0.857,0.055
14.111,-0.479,0.854,0.059
14.121,-0.479,0.854,0.057
14.131,-0.482,0.865,0.059
14.141,-0.490,0.871,0.051
14.151,-0.494,0.871,0.047
14.161,-0.492,0.867,0.045
14.171,-0.484,0.859,0.055
14.181,-0.482,0.863,0.051
14.191,-0.488,0.861,0.057
14.201,-0.490,0.855,0.051
14.211,-0.482,0.854,0.045
14.220,-0.480,0.852,0.049
14.230,-0.479,0.846,0.051
14.240,-0.482,0.850,0.053
14.250,-0.484,0.855,0.055
14.260,-0.486,0.863,0.055
14.270,-0.484,0.865,0.049
14.280,-0.484,0.867,0.049
14.290,-0.486,0.865,0.049
14.300,-0.486,0.861,0.047
14.310,-0.486,0.857,0.051
14.320,-0.484,0.852,0.053
14.330,-0.480,0.852,0.049
14.340,-0.482,0.854,0.053
14.349,-0.482,0.854,0.047
14.359,-0.488,0.857,0.047
14.369,-0.486,0.861,0.049
14.379,-0.484,0.861,0.049
14.389,-0.480,0.855,0.047
14.399,-0.480,0.852,0.051
14.409,-0.479,0.855,0.055
14.419,-0.480,0.861,0.051
14.429,-0.490,0.861,0.055
14.439,-0.486,0.867,0.053
14.449,-0.486,0.863,0.049
14.459,-0.480,0.852,0.049
14.469,-0.480,0.850,0.053
14.479,-0.480,0.852,0.055
14.488,-0.473,0.863,0.055
14.498,-0.475,0.877,0.057
14.508,-0.486,0.877,0.045
14.518,-0.492,0.873,0.045
14.528,-0.488,0.867,0.049
14.538,-0.486,0.857,0.051
14.548,-0.488,0.855,0.057
14.558,-0.496,0.857,0.053
14.568,-0.492,0.848,0.053
14.578,-0.484,0.846,0.053
14.588,-0.480,0.848,0.055
14.598,-0.482,0.852,0.055
14.608,-0.484,0.852,0.053
14.618,-0.486,0.854,0.053
14.627,-0.480,0.854,0.057
14.637,-0.477,0.861,0.057
14.647,-0.480,0.863,0.057
14.657,-0.492,0.861,0.053
14.667,-0.490,0.859,0.051
14.677,-0.482,0.854,0.059
14.687,-0.475,0.850,0.062
14.697,-0.473,0.859,0.061
14.707,-0.480,0.871,0.057
14.717,-0.492,0.871,0.051
14.727,-0.492,0.869,0.049
14.737,-0.488,0.861,0.053
14.747,-0.480,0.859,0.061
14.756,-0.482,0.861,0.061
14.766,-0.488,0.861,0.061
14.776,-0.494,0.857,0.057
14.786,-0.488,0.859,0.057
14.796,-0.482,0.857,0.053
14.806,-0.482,0.861,0.059
14.816,-0.484,0.863,0.057
14.826,-0.486,0.859,0.059
14.836,-0.480,0.857,0.057
14.846,-0.479,0.854,0.059
14.856,-0.482,0.857,0.059
14.866,-0.484,0.861,0.059
14.876,-0.486,0.857,0.057
14.886,-0.484,0.857,0.051
14.895,-0.486,0.855,0.053
14.905,-0.486,0.857,0.055
14.915,-0.486,0.861,0.055
14.925,-0.482,0.859,0.055
14.935,-0.482,0.854,0.057
14.945,-0.480,0.852,0.057
14.955,-0.482,0.850,0.059
14.965,-0.479,0.852,0.059
14.975,-0.482,0.857,0.061
14.985,-0.490,0.863,0.055
14.995,-0.492,0.867,0.057
15.005,-0.490,0.863,0.059
15.015,-0.488,0.850,0.059
15.024,-0.480,0.852,0.064
15.034,-0.482,0.852,0.064
15.044,-0.477,0.857,0.062
15.054,-0.477,0.877,0.064
15.064,-0.486,0.881,0.055
15.074,-0.496,0.877,0.047
15.084,-0.494,0.871,0.055
15.094,-0.492,0.861,0.062
15.104,-0.488,0.854,0.062
15.114,-0.482,0.846,0.062
15.124,-0.488,0.846,0.062
15.134,-0.484,0.852,0.059
15.144,-0.484,0.854,0.061
15.154,-0.484,0.854,0.057
15.163,-0.482,0.855,0.059
15.173,-0.486,0.857,0.061
15.183,-0.482,0.854,0.059
15.193,-0.482,0.855,0.059
15.203,-0.486,0.859,0.064
15.213,-0.492,0.857,0.059
15.223,-0.486,0.852,0.059
15.233,-0.480,0.854,0.059
15.243,-0.475,0.848,0.061
15.253,-0.479,0.863,0.059
15.263,-0.484,0.867,0.053
15.273,-0.492,0.863,0.053
15.283,-0.496,0.863,0.053
15.292,-0.488,0.857,0.059
15.302,-0.484,0.855,0.062
15.312,-0.490,0.857,0.059
15.322,-0.492,0.859,0.059
15.332,-0.492,0.863,0.055
15.342,-0.492,0.859,0.051
15.352,-0.488,0.859,0.057
15.362,-0.486,0.855,0.055
15.372,-0.488,0.854,0.055
15.382,-0.486,0.855,0.055
15.392,-0.486,0.854,0.057
15.402,-0.484,0.857,0.055
15.412,-0.486,0.859,0.059
15.422,-0.486,0.859,0.053
15.431,-0.484,0.861,0.055
15.441,-0.484,0.861,0.055
15.451,-0.484,0.859,0.055
15.461,-0.486,0.861,0.049
15.471,-0.488,0.859,0.051
15.481,-0.488,0.854,0.053
15.491,-0.482,0.850,0.057
15.501,-0.484,0.852,0.057
15.511,-0.484,0.852,0.057
15.521,-0.488,0.857,0.053
15.531,-0.488,0.863,0.053
15.541,-0.492,0.857,0.051
15.551,-0.492,0.848,0.055
15.560,-0.486,0.852,0.057
15.570,-0.486,0.850,0.053
15.580,-0.484,0.865,0.059
15.590,-0.482,0.871,0.053
15.600,-0.488,0.875,0.051
15.610,-0.492,0.875,0.053
15.620,-0.500,0.863,0.049
15.630,-0.498,0.855,0.057
15.640,-0.490,0.852,0.057
15.650,-0.488,0.846,0.061
15.660,-0.490,0.844,0.059
15.670,-0.492,0.844,0.053
15.680,-0.488,0.848,0.057
15.690,-0.490,0.854,0.059
15.699,-0.486,0.854,0.059
15.709,-0.486,0.855,0.062
15.719,-0.488,0.857,0.057
15.729,-0.486,0.857,0.055
15.739,-0.488,0.863,0.053
15.749,-0.494,0.861,0.055
15.759,-0.496,0.852,0.059
15.769,-0.490,0.852,0.059
15.779,-0.484,0.848,0.055
15.789,-0.486,0.852,0.059
15.799,-0.486,0.859,0.057
15.809,-0.494,0.859,0.053
15.819,-0.502,0.855,0.055
15.829,-0.500,0.859,0.059
15.838,-0.494,0.855,0.057
15.848,-0.494,0.852,0.055
15.858,-0.500,0.857,0.053
15.868,-0.504,0.857,0.051
15.878,-0.500,0.855,0.049
15.888,-0.496,0.846,0.053
15.898,-0.490,0.848,0.057
15.908,-0.492,0.848,0.059
15.918,-0.496,0.857,0.053
15.928,-0.498,0.857,0.053
15.938,-0.496,0.859,0.049
15.948,-0.492,0.854,0.047
15.958,-0.494,0.850,0.051
15.967,-0.492,0.850,0.055
15.977,-0.494,0.852,0.055
15.987,-0.496,0.852,0.049
15.997,-0.492,0.848,0.047
16.007,-0.488,0.848,0.051
16.017,-0.492,0.848,0.057
16.027,-0.494,0.852,0.053
16.037,-0.496,0.854,0.055
16.047,-0.500,0.855,0.051
16.057,-0.498,0.855,0.051
16.067,-0.494,0.850,0.057
16.077,-0.498,0.848,0.059
16.087,-0.498,0.854,0.062
16.097,-0.496,0.854,0.057
16.106,-0.492,0.857,0.055
16.116,-0.484,0.863,0.053
16.126,-0.488,0.869,0.053
16.136,-0.502,0.871,0.049
16.146,-0.510,0.873,0.053
16.156,-0.510,0.855,0.055
16.166,-0.500,0.848,0.055
16.176,-0.492,0.840,0.055
16.186,-0.492,0.836,0.051
16.196,-0.498,0.842,0.057
16.206,-0.500,0.848,0.051
16.216,-0.494,0.850,0.053
16.226,-0.496,0.850,0.051
16.235,-0.494,0.850,0.057
16.245,-0.498,0.855,0.055
16.255,-0.498,0.855,0.053
16.265,-0.498,0.859,0.053
16.275,-0.492,0.859,0.053
16.285,-0.498,0.852,0.051
16.295,-0.496,0.848,0.055
16.305,-0.492,0.850,0.057
16.315,-0.494,0.852,0.055
16.325,-0.494,0.859,0.051
16.335,-0.502,0.857,0.049
16.345,-0.508,0.852,0.053
16.355,-0.500,0.854,0.059
16.365,-0.494,0.854,0.059
16.374,-0.494,0.855,0.057
16.384,-0.498,0.859,0.055
16.394,-0.500,0.857,0.047
16.404,-0.498,0.855,0.051
16.414,-0.496,0.852,0.049
16.424,-0.494,0.850,0.053
16.434,-0.490,0.848,0.057
16.444,-0.490,0.850,0.053
16.454,-0.494,0.850,0.051
16.464,-0.494,0.854,0.051
16.474,-0.494,0.855,0.051
16.484,-0.496,0.852,0.053
16.494,-0.500,0.855,0.053
16.503,-0.494,0.857,0.051
16.513,-0.496,0.855,0.049
16.523,-0.496,0.850,0.049
16.533,-0.492,0.844,0.053
16.543,-0.488,0.842,0.055
16.553,-0.488,0.850,0.057
16.563,-0.494,0.852,0.057
16.573,-0.500,0.857,0.053
16.583,-0.502,0.857,0.051
16.593,-0.494,0.850,0.055
16.603,-0.492,0.844,0.059
16.613,-0.492,0.850,0.062
16.623,-0.494,0.855,0.057
16.633,-0.492,0.859,0.059
16.642,-0.486,0.867,0.055
16.652,-0.494,0.869,0.047
16.662,-0.506,0.869,0.053
16.672,-0.508,0.863,0.053
16.682,-0.500,0.854,0.053
16.692,-0.492,0.848,0.057
16.702,-0.496,0.844,0.055
16.712,-0.498,0.842,0.055
16.722,-0.498,0.848,0.051
16.732,-0.494,0.848,0.055
16.742,-0.490,0.844,0.053
16.752,-0.488,0.844,0.055
16.762,-0.492,0.848,0.051
16.772,-0.492,0.854,0.057
16.781,-0.496,0.855,0.051
16.791,-0.494,0.859,0.053
16.801,-0.492,0.861,0.053
16.811,-0.496,0.852,0.053
16.821,-0.496,0.855,0.055
16.831,-0.494,0.854,0.053
16.841,-0.494,0.850,0.053
16.851,-0.490,0.857,0.055
16.861,-0.498,0.857,0.051
16.871,-0.504,0.852,0.051
16.881,-0.496,0.857,0.053
16.891,-0.492,0.854,0.061
16.901,-0.492,0.855,0.061
16.910,-0.494,0.861,0.059
16.920,-0.498,0.865,0.051
16.930,-0.498,0.865,0.047
16.940,-0.496,0.855,0.049
16.950,-0.486,0.850,0.053
16.960,-0.486,0.854,0.057
16.970,-0.492,0.854,0.057
16.980,-0.498,0.855,0.057
16.990,-0.492,0.850,0.053
17.000,-0.486,0.852,0.053
17.010,-0.484,0.854,0.051
17.020,-0.492,0.855,0.053
17.030,-0.496,0.855,0.053
17.040,-0.496,0.859,0.049
17.049,-0.492,0.852,0.051
17.059,-0.488,0.852,0.049
17.069,-0.488,0.850,0.051
17.079,-0.492,0.852,0.059
17.089,-0.492,0.855,0.055
17.099,-0.492,0.859,0.051
17.109,-0.496,0.859,0.053
17.119,-0.498,0.854,0.055
17.129,-0.492,0.848,0.055
17.139,-0.484,0.852,0.055
17.149,-0.486,0.855,0.059
17.159,-0.488,0.869,0.051
17.169,-0.490,0.873,0.049
17.178,-0.494,0.867,0.045
17.188,-0.498,0.861,0.049
17.198,-0.498,0.854,0.057
17.208,-0.500,0.854,0.059
17.218,-0.506,0.854,0.061
17.228,-0.502,0.852,0.053
17.238,-0.502,0.848,0.051
17.248,-0.498,0.844,0.047
17.258,-0.492,0.848,0.053
17.268,-0.488,0.848,0.053
17.278,-0.490,0.846,0.053
17.288,-0.486,0.850,0.055
17.298,-0.488,0.852,0.053
17.308,-0.488,0.857,0.051
17.317,-0.488,0.859,0.055
17.327,-0.492,0.857,0.053
17.337,-0.496,0.855,0.049
17.347,-0.494,0.857,0.049
17.357,-0.492,0.850,0.051
17.367,-0.490,0.855,0.055
17.377,-0.486,0.861,0.051
17.387,-0.494,0.861,0.051
17.397,-0.500,0.859,0.049
17.407,-0.498,0.854,0.055
17.417,-0.488,0.855,0.057
17.427,-0.490,0.857,0.059
17.437,-0.498,0.857,0.053
17.446,-0.504,0.863,0.053
17.456,-0.498,0.859,0.051
17.466,-0.492,0.857,0.049
17.476,-0.490,0.854,0.053
17.486,-0.488,0.850,0.055
17.496,-0.490,0.852,0.051
17.506,-0.486,0.850,0.049
17.516,-0.486,0.852,0.049
17.526,-0.494,0.855,0.047
17.536,-0.498,0.857,0.049
17.546,-0.496,0.857,0.045
17.556,-0.494,0.852,0.051
17.566,-0.488,0.850,0.049
17.576,-0.490,0.852,0.053
17.585,-0.492,0.852,0.047
17.595,-0.494,0.850,0.049
17.605,-0.494,0.857,0.053
17.615,-0.496,0.852,0.053
17.625,-0.496,0.854,0.055
17.635,-0.492,0.861,0.055
17.645,-0.498,0.854,0.051
17.655,-0.496,0.854,0.055
17.665,-0.486,0.859,0.053
17.675,-0.486,0.857,0.057
17.685,-0.486,0.875,0.053
17.695,-0.492,0.877,0.049
17.705,-0.500,0.865,0.045
17.714,-0.498,0.859,0.047
17.724,-0.492,0.855,0.055
17.734,-0.498,0.854,0.057
17.744,-0.510,0.855,0.053
17.754,-0.510,0.855,0.047
17.764,-0.502,0.844,0.045
17.774,-0.490,0.842,0.051
17.784,-0.486,0.840,0.053
17.794,-0.492,0.846,0.055
17.804,-0.494,0.852,0.051
17.814,-0.492,0.854,0.047
17.824,-0.486,0.854,0.047
17.834,-0.484,0.857,0.051
17.844,-0.486,0.863,0.057
17.853,-0.488,0.861,0.051
17.863,-0.490,0.859,0.049
17.873,-0.484,0.854,0.051
17.883,-0.480,0.846,0.053
17.893,-0.473,0.846,0.059
17.903,-0.473,0.859,0.059
17.913,-0.482,0.863,0.057
17.923,-0.492,0.865,0.055
17.933,-0.488,0.867,0.055
17.943,-0.486,0.865,0.057
17.953,-0.486,0.863,0.057
17.963,-0.488,0.863,0.057
17.973,-0.488,0.861,0.057
17.983,-0.482,0.863,0.053
17.992,-0.486,0.859,0.055
18.002,-0.482,0.859,0.055
18.012,-0.484,0.852,0.057
18.022,-0.480,0.855,0.057
18.032,-0.479,0.859,0.061
18.042,-0.482,0.859,0.057
18.052,-0.480,0.859,0.055
18.062,-0.484,0.861,0.059
18.072,-0.480,0.859,0.057
18.082,-0.480,0.863,0.057
18.092,-0.484,0.861,0.055
18.102,-0.484,0.859,0.055
18.112,-0.480,0.861,0.057
18.121,-0.480,0.859,0.057
18.131,-0.479,0.857,0.059
18.141,-0.475,0.855,0.061
18.151,-0.479,0.859,0.059
18.161,-0.486,0.861,0.059
18.171,-0.486,0.867,0.061
18.181,-0.484,0.865,0.059
18.191,-0.482,0.857,0.059
18.201,-0.480,0.859,0.061
18.211,-0.480,0.863,0.064
18.221,-0.480,0.871,0.061
18.231,-0.479,0.875,0.053
18.241,-0.484,0.869,0.049
18.251,-0.479,0.869,0.049
18.260,-0.482,0.857,0.055
18.270,-0.482,0.859,0.059
18.280,-0.484,0.859,0.061
18.290,-0.484,0.861,0.055
18.300,-0.482,0.857,0.051
18.310,-0.480,0.852,0.049
18.320,-0.471,0.852,0.051
18.330,-0.475,0.859,0.057
18.340,-0.475,0.859,0.055
18.350,-0.475,0.855,0.051
18.360,-0.473,0.857,0.051
18.370,-0.469,0.857,0.051
18.380,-0.473,0.867,0.055
18.389,-0.480,0.867,0.053
18.399,-0.486,0.861,0.051
18.409,-0.479,0.861,0.053
18.419,-0.473,0.857,0.057
18.429,-0.475,0.855,0.057
18.439,-0.471,0.867,0.057
18.449,-0.480,0.873,0.051
18.459,-0.482,0.869,0.049
18.469,-0.480,0.865,0.047
18.479,-0.475,0.871,0.051
18.489,-0.475,0.869,0.051
18.499,-0.482,0.861,0.051
18.509,-0.480,0.861,0.047
18.519,-0.482,0.859,0.045
18.528,-0.479,0.863,0.047
18.538,-0.479,0.859,0.049
18.548,-0.477,0.861,0.045
18.558,-0.477,0.857,0.043
18.568,-0.475,0.861,0.045
18.578,-0.475,0.861,0.049
18.588,-0.477,0.863,0.047
18.598,-0.479,0.861,0.045
18.608,-0.480,0.865,0.045
18.618,-0.477,0.865,0.043
18.628,-0.479,0.869,0.041
18.638,-0.477,0.865,0.041
18.648,-0.475,0.863,0.043
18.657,-0.473,0.859,0.043
18.667,-0.479,0.863,0.047
18.677,-0.475,0.857,0.043
18.687,-0.473,0.855,0.043
18.697,-0.469,0.855,0.043
18.707,-0.475,0.857,0.045
18.717,-0.477,0.861,0.045
18.727,-0.482,0.871,0.047
18.737,-0.477,0.869,0.047
18.747,-0.477,0.867,0.043
18.757,-0.473,0.863,0.047
18.767,-0.471,0.865,0.045
18.777,-0.467,0.875,0.043
18.787,-0.475,0.875,0.041
18.796,-0.475,0.877,0.035
18.806,-0.475,0.871,0.037
18.816,-0.471,0.867,0.043
18.826,-0.477,0.863,0.047
18.836,-0.479,0.859,0.049
18.846,-0.477,0.859,0.045
18.856,-0.473,0.859,0.041
18.866,-0.467,0.861,0.039
18.876,-0.471,0.861,0.039
18.886,-0.475,0.861,0.043
18.896,-0.473,0.857,0.043
18.906,-0.469,0.859,0.045
18.916,-0.469,0.859,0.047
18.925,-0.471,0.865,0.045
18.935,-0.471,0.867,0.047
18.945,-0.475,0.869,0.043
18.955,-0.473,0.863,0.045
18.965,-0.465,0.861,0.047
18.975,-0.463,0.861,0.049
18.985,-0.467,0.871,0.045
18.995,-0.473,0.879,0.045
19.005,-0.475,0.875,0.037
19.015,-0.473,0.869,0.043
19.025,-0.467,0.867,0.047
19.035,-0.469,0.869,0.051
19.045,-0.471,0.865,0.051
19.055,-0.469,0.869,0.045
19.064,-0.469,0.867,0.043
19.074,-0.463,0.865,0.045
19.084,-0.467,0.867,0.045
19.094,-0.463,0.871,0.047
19.104,-0.467,0.865,0.047
19.114,-0.467,0.865,0.047
19.124,-0.465,0.867,0.049
19.134,-0.469,0.867,0.049
19.144,-0.471,0.865,0.047
19.154,-0.473,0.867,0.051
19.164,-0.469,0.869,0.053
19.174,-0.469,0.869,0.049
19.184,-0.467,0.869,0.047
19.194,-0.469,0.867,0.047
19.203,-0.469,0.869,0.047
19.213,-0.471,0.869,0.045
19.223,-0.467,0.867,0.045
19.233,-0.473,0.859,0.047
19.243,-0.467,0.857,0.047
19.253,-0.463,0.863,0.049
19.263,-0.465,0.865,0.051
19.273,-0.471,0.867,0.047
19.283,-0.475,0.873,0.051
19.293,-0.475,0.873,0.047
19.303,-0.471,0.863,0.045
19.313,-0.467,0.863,0.049
19.323,-0.465,0.863,0.053
19.332,-0.465,0.871,0.049
19.342,-0.465,0.875,0.045
19.352,-0.469,0.877,0.041
19.362,-0.471,0.875,0.039
19.372,-0.473,0.867,0.045
19.382,-0.475,0.869,0.045
19.392,-0.477,0.869,0.049
19.402,-0.477,0.863,0.045
19.412,-0.473,0.859,0.039
19.422,-0.467,0.855,0.041
19.432,-0.469,0.855,0.041
19.442,-0.471,0.861,0.047
19.452,-0.477,0.861,0.047
19.462,-0.471,0.863,0.051
19.471,-0.471,0.857,0.047
19.481,-0.473,0.863,0.049
19.491,-0.473,0.869,0.051
19.501,-0.477,0.869,0.045
19.511,-0.477,0.863,0.045
19.521,-0.467,0.863,0.045
19.531,-0.465,0.861,0.051
19.541,-0.463,0.867,0.053
19.551,-0.467,0.877,0.049
19.561,-0.473,0.875,0.045
19.571,-0.475,0.873,0.045
19.581,-0.471,0.871,0.045
19.591,-0.469,0.867,0.049
19.600,-0.471,0.863,0.053
19.610,-0.475,0.863,0.053
19.620,-0.471,0.861,0.051
19.630,-0.469,0.861,0.047
19.640,-0.469,0.863,0.045
19.650,-0.471,0.865,0.051
19.660,-0.473,0.869,0.049
19.670,-0.473,0.865,0.045
19.680,-0.471,0.867,0.049
19.690,-0.471,0.865,0.047
19.700,-0.471,0.867,0.047
19.710,-0.469,0.873,0.051
19.720,-0.471,0.871,0.043
19.730,-0.475,0.871,0.043
19.739,-0.473,0.863,0.041
19.749,-0.467,0.861,0.045
19.759,-0.465,0.859,0.045
19.769,-0.469,0.861,0.043
19.779,-0.475,0.861,0.043
19.789,-0.477,0.861,0.043
19.799,-0.475,0.863,0.041
19.809,-0.473,0.859,0.045
19.819,-0.471,0.863,0.041
19.829,-0.473,0.859,0.047
19.839,-0.473,0.863,0.047
19.849,-0.473,0.865,0.043
19.859,-0.473,0.873,0.047
19.868,-0.471,0.875,0.045
19.878,-0.475,0.863,0.045
19.888,-0.469,0.859,0.047
19.898,-0.467,0.855,0.049
19.908,-0.463,0.859,0.051
19.918,-0.459,0.873,0.049
19.928,-0.471,0.885,0.043
19.938,-0.484,0.885,0.037
19.948,-0.484,0.883,0.037
19.958,-0.479,0.873,0.041
19.968,-0.473,0.861,0.053
19.978,-0.475,0.859,0.047
19.988,-0.475,0.852,0.047
19.998,-0.475,0.852,0.045
20.007,-0.469,0.854,0.043
20.017,-0.469,0.852,0.043
20.027,-0.473,0.857,0.047
20.037,-0.475,0.857,0.043
20.047,-0.477,0.857,0.047
20.057,-0.475,0.861,0.049
20.067,-0.475,0.867,0.049
20.077,-0.477,0.869,0.047
20.087,-0.477,0.861,0.049
20.097,-0.479,0.865,0.051
20.107,-0.473,0.857,0.053
20.117,-0.471,0.859,0.055
20.127,-0.471,0.869,0.053
20.137,-0.480,0.873,0.047
20.146,-0.484,0.875,0.043
20.156,-0.484,0.869,0.053
20.166,-0.473,0.863,0.057
20.176,-0.475,0.865,0.061
20.186,-0.484,0.865,0.055
20.196,-0.486,0.865,0.057
20.206,-0.480,0.863,0.049
20.216,-0.473,0.861,0.049
20.226,-0.473,0.863,0.053
20.236,-0.480,0.859,0.053
20.246,-0.480,0.863,0.055
20.256,-0.477,0.863,0.055
20.266,-0.477,0.861,0.057
20.275,-0.479,0.859,0.053
20.285,-0.479,0.861,0.051
20.295,-0.480,0.861,0.055
20.305,-0.477,0.865,0.055
20.315,-0.479,0.861,0.055
20.325,-0.480,0.863,0.053
20.335,-0.479,0.867,0.053
20.345,-0.480,0.863,0.051
20.355,-0.482,0.861,0.053
20.365,-0.480,0.859,0.053
20.375,-0.480,0.861,0.057
20.385,-0.482,0.861,0.049
20.395,-0.482,0.855,0.051
20.405,-0.477,0.855,0.055
20.414,-0.475,0.855,0.055
20.424,-0.475,0.863,0.059
20.434,-0.484,0.869,0.049
20.444,-0.484,0.869,0.051
20.454,-0.484,0.861,0.051
20.464,-0.477,0.855,0.053
20.474,-0.475,0.855,0.062
20.484,-0.473,0.861,0.057
20.494,-0.473,0.873,0.055
20.504,-0.475,0.885,0.051
20.514,-0.488,0.877,0.047
20.524,-0.490,0.869,0.049
20.534,-0.488,0.865,0.055
20.543,-0.488,0.857,0.059
20.553,-0.484,0.854,0.059
20.563,-0.486,0.852,0.057
20.573,-0.484,0.850,0.051
20.583,-0.482,0.848,0.049
20.593,-0.479,0.854,0.053
20.603,-0.479,0.854,0.053
20.613,-0.480,0.861,0.055
20.623,-0.482,0.855,0.051
20.633,-0.480,0.857,0.051
20.643,-0.477,0.863,0.051
20.653,-0.486,0.865,0.051
20.663,-0.486,0.859,0.053
20.673,-0.484,0.854,0.055
20.682,-0.477,0.854,0.059
20.692,-0.473,0.857,0.055
20.702,-0.475,0.869,0.053
20.712,-0.482,0.873,0.047
20.722,-0.494,0.869,0.047
20.732,-0.486,0.863,0.055
20.742,-0.477,0.855,0.057
20.752,-0.479,0.859,0.057
20.762,-0.486,0.865,0.057
20.772,-0.492,0.859,0.051
20.782,-0.486,0.857,0.049
20.792,-0.480,0.855,0.053
20.802,-0.480,0.859,0.055
20.811,-0.484,0.861,0.055
20.821,-0.486,0.863,0.055
20.831,-0.488,0.857,0.055
20.841,-0.484,0.859,0.055
20.851,-0.482,0.857,0.055
20.861,-0.480,0.857,0.057
20.871,-0.484,0.863,0.057
20.881,-0.484,0.854,0.053
20.891,-0.479,0.857,0.049
20.901,-0.484,0.857,0.055
20.911,-0.484,0.857,0.055
20.921,-0.488,0.857,0.057
20.931,-0.488,0.861,0.053
20.941,-0.488,0.855,0.051
20.950,-0.482,0.852,0.053
20.960,-0.479,0.857,0.057
20.970,-0.482,0.857,0.061
20.980,-0.492,0.865,0.059
20.990,-0.496,0.865,0.055
21.000,-0.492,0.855,0.055
21.010,-0.488,0.848,0.055
21.020,-0.477,0.848,0.059
21.030,-0.479,0.852,0.059
21.040,-0.480,0.867,0.057
21.050,-0.480,0.877,0.053
21.060,-0.482,0.875,0.051
21.070,-0.494,0.873,0.049
21.079,-0.502,0.865,0.053
21.089,-0.500,0.857,0.057
21.099,-0.492,0.852,0.059
21.109,-0.492,0.842,0.059
21.119,-0.494,0.842,0.051
21.129,-0.490,0.846,0.049
21.139,-0.488,0.850,0.053
21.149,-0.492,0.852,0.051
21.159,-0.494,0.855,0.059
21.169,-0.486,0.855,0.053
21.179,-0.486,0.854,0.053
21.189,-0.492,0.857,0.055
21.199,-0.494,0.861,0.055
21.209,-0.496,0.852,0.055
21.218,-0.492,0.850,0.055
21.228,-0.486,0.852,0.059
21.238,-0.484,0.852,0.059
21.248,-0.484,0.859,0.057
21.258,-0.492,0.867,0.049
21.268,-0.500,0.861,0.055
21.278,-0.500,0.863,0.057
21.288,-0.492,0.855,0.061
21.298,-0.492,0.854,0.064
21.308,-0.492,0.855,0.059
21.318,-0.496,0.861,0.059
21.328,-0.494,0.859,0.055
21.338,-0.496,0.859,0.053
21.348,-0.494,0.855,0.055
21.357,-0.494,0.850,0.057
21.367,-0.492,0.854,0.061
21.377,-0.496,0.854,0.057
21.387,-0.496,0.848,0.057
21.397,-0.494,0.855,0.055
21.407,-0.494,0.855,0.057
21.417,-0.494,0.854,0.059
21.427,-0.494,0.857,0.057
21.437,-0.492,0.854,0.051
21.447,-0.492,0.852,0.055
21.457,-0.490,0.854,0.057
21.467,-0.492,0.852,0.061
21.477,-0.490,0.852,0.064
21.486,-0.492,0.854,0.059
21.496,-0.494,0.854,0.055
21.506,-0.496,0.854,0.057
21.516,-0.498,0.855,0.057
21.526,-0.502,0.855,0.059
21.536,-0.502,0.850,0.061
21.546,-0.494,0.848,0.061
21.556,-0.494,0.852,0.062
21.566,-0.494,0.854,0.059
21.576,-0.494,0.863,0.059
21.586,-0.494,0.873,0.055
21.596,-0.506,0.867,0.055
21.606,-0.514,0.861,0.057
21.616,-0.508,0.857,0.055
21.625,-0.498,0.850,0.062
21.635,-0.498,0.842,0.059
21.645,-0.500,0.844,0.057
21.655,-0.502,0.842,0.049
21.665,-0.496,0.846,0.051
21.675,-0.496,0.852,0.053
21.685,-0.500,0.850,0.053
21.695,-0.496,0.850,0.051
21.705,-0.496,0.850,0.055
21.715,-0.496,0.848,0.055
21.725,-0.494,0.850,0.053
21.735,-0.496,0.855,0.053
21.745,-0.504,0.850,0.049
21.754,-0.500,0.846,0.053
21.764,-0.494,0.846,0.053
21.774,-0.496,0.844,0.051
21.784,-0.490,0.850,0.049
21.794,-0.500,0.855,0.047
21.804,-0.512,0.854,0.049
21.814,-0.508,0.852,0.057
21.824,-0.504,0.852,0.059
21.834,-0.498,0.852,0.059
21.844,-0.502,0.855,0.055
21.854,-0.506,0.855,0.053
21.864,-0.508,0.859,0.055
21.874,-0.502,0.857,0.055
21.884,-0.500,0.852,0.057
21.893,-0.500,0.850,0.059
21.903,-0.500,0.850,0.061
21.913,-0.498,0.848,0.059
21.923,-0.502,0.846,0.057
21.933,-0.496,0.848,0.055
21.943,-0.498,0.852,0.057
21.953,-0.502,0.852,0.061
21.963,-0.502,0.855,0.059
21.973,-0.506,0.854,0.057
21.983,-0.502,0.850,0.059
21.993,-0.500,0.848,0.059
22.003,-0.498,0.848,0.062
22.013,-0.502,0.850,0.061
22.022,-0.502,0.852,0.057
22.032,-0.508,0.852,0.059
22.042,-0.508,0.850,0.057
22.052,-0.506,0.840,0.059
22.062,-0.504,0.838,0.064
22.072,-0.504,0.842,0.064
22.082,-0.502,0.848,0.064
22.092,-0.502,0.857,0.057
22.102,-0.502,0.867,0.059
22.112,-0.500,0.869,0.059
22.122,-0.510,0.867,0.061
22.132,-0.514,0.863,0.066
22.142,-0.514,0.854,0.062
22.152,-0.510,0.848,0.066
22.161,-0.502,0.842,0.062
22.171,-0.504,0.832,0.062
22.181,-0.504,0.836,0.064
22.191,-0.500,0.836,0.064
22.201,-0.506,0.848,0.062
22.211,-0.502,0.852,0.064
22.221,-0.502,0.850,0.061
22.231,-0.500,0.855,0.062
22.241,-0.500,0.854,0.059
22.251,-0.498,0.857,0.059
22.261,-0.502,0.859,0.057
22.271,-0.510,0.852,0.055
22.281,-0.508,0.846,0.059
22.290,-0.502,0.840,0.061
22.300,-0.498,0.842,0.064
22.310,-0.498,0.854,0.062
22.320,-0.508,0.854,0.057
22.330,-0.516,0.857,0.055
22.340,-0.506,0.855,0.059
22.350,-0.500,0.850,0.062
22.360,-0.498,0.854,0.062
22.370,-0.504,0.859,0.059
22.380,-0.510,0.850,0.053
22.390,-0.506,0.850,0.053
22.400,-0.504,0.842,0.053
22.410,-0.500,0.838,0.057
22.420,-0.498,0.842,0.061
22.429,-0.502,0.844,0.059
22.439,-0.508,0.848,0.057
22.449,-0.502,0.854,0.055
22.459,-0.502,0.852,0.055
22.469,-0.500,0.854,0.059
22.479,-0.502,0.855,0.057
22.489,-0.504,0.854,0.055
22.499,-0.502,0.854,0.055
22.509,-0.496,0.848,0.055
22.519,-0.492,0.840,0.057
22.529,-0.492,0.842,0.059
22.539,-0.496,0.850,0.059
22.549,-0.502,0.854,0.057
22.559,-0.506,0.854,0.057
22.568,-0.504,0.850,0.057
22.578,-0.500,0.844,0.062
22.588,-0.492,0.844,0.064
22.598,-0.490,0.848,0.066
22.608,-0.502,0.848,0.059
22.618,-0.496,0.871,0.055
22.628,-0.488,0.877,0.051
22.638,-0.494,0.871,0.047
22.648,-0.502,0.861,0.055
22.658,-0.502,0.855,0.061
22.668,-0.500,0.852,0.066
22.678,-0.500,0.850,0.066
22.688,-0.500,0.842,0.057
22.697,-0.500,0.840,0.059
22.707,-0.498,0.842,0.059
22.717,-0.498,0.842,0.062
22.727,-0.494,0.850,0.062
22.737,-0.494,0.850,0.059
22.747,-0.494,0.855,0.059
22.757,-0.496,0.854,0.061
22.767,-0.496,0.854,0.059
22.777,-0.492,0.855,0.061
22.787,-0.498,0.857,0.059
22.797,-0.500,0.852,0.059
22.807,-0.496,0.852,0.057
22.817,-0.492,0.848,0.062
22.827,-0.490,0.854,0.059
22.836,-0.494,0.861,0.057
22.846,-0.506,0.855,0.057
22.856,-0.508,0.855,0.057
22.866,-0.500,0.848,0.061
22.876,-0.496,0.854,0.066
22.886,-0.500,0.859,0.061
22.896,-0.506,0.863,0.057
22.906,-0.504,0.857,0.055
22.916,-0.500,0.859,0.055
22.926,-0.496,0.854,0.059
22.936,-0.492,0.846,0.061
22.946,-0.494,0.854,0.062
22.956,-0.498,0.854,0.061
22.965,-0.500,0.852,0.057
22.975,-0.496,0.848,0.057
22.985,-0.492,0.850,0.057
22.995,-0.496,0.848,0.059
23.005,-0.504,0.850,0.059
23.015,-0.506,0.852,0.061
23.025,-0.502,0.850,0.061
23.035,-0.496,0.846,0.061
23.045,-0.492,0.850,0.061
23.055,-0.496,0.854,0.064
23.065,-0.498,0.854,0.059
23.075,-0.496,0.861,0.059
23.085,-0.496,0.859,0.055
23.095,-0.500,0.850,0.059
23.104,-0.496,0.846,0.059
23.114,-0.490,0.842,0.062
23.124,-0.492,0.848,0.066
23.134,-0.494,0.854,0.064
23.144,-0.496,0.867,0.068
23.154,-0.498,0.869,0.057
23.164,-0.502,0.865,0.061
23.174,-0.502,0.867,0.059
23.184,-0.508,0.857,0.061
23.194,-0.502,0.857,0.061
23.204,-0.502,0.850,0.062
23.214,-0.502,0.846,0.062
23.224,-0.502,0.846,0.062
23.233,-0.496,0.842,0.062
23.243,-0.492,0.838,0.062
23.253,-0.490,0.844,0.066
23.263,-0.492,0.850,0.064
23.273,-0.494,0.852,0.064
23.283,-0.492,0.854,0.064
23.293,-0.490,0.863,0.062
23.303,-0.496,0.865,0.066
23.313,-0.506,0.861,0.062
23.323,-0.502,0.850,0.061
23.333,-0.494,0.844,0.064
23.343,-0.486,0.850,0.070
23.353,-0.488,0.857,0.064
23.363,-0.500,0.863,0.062
23.372,-0.510,0.859,0.061
23.382,-0.506,0.852,0.062
23.392,-0.494,0.854,0.070
23.402,-0.488,0.852,0.068
23.412,-0.500,0.854,0.064
23.422,-0.502,0.863,0.059
23.432,-0.498,0.859,0.059
23.442,-0.492,0.854,0.062
23.452,-0.486,0.855,0.062
23.462,-0.488,0.855,0.064
23.472,-0.496,0.855,0.061
23.482,-0.494,0.859,0.061
23.492,-0.492,0.855,0.061
23.502,-0.492,0.848,0.059
23.511,-0.494,0.848,0.064
23.521,-0.492,0.850,0.064
23.531,-0.500,0.854,0.064
23.541,-0.502,0.855,0.061
23.551,-0.502,0.855,0.057
23.561,-0.496,0.854,0.057
23.571,-0.490,0.848,0.061
23.581,-0.492,0.848,0.064
23.591,-0.490,0.852,0.062
23.601,-0.498,0.848,0.064
23.611,-0.498,0.857,0.059
23.621,-0.498,0.857,0.057
23.631,-0.496,0.854,0.059
23.640,-0.488,0.850,0.064
23.650,-0.490,0.854,0.064
23.660,-0.494,0.859,0.066
23.670,-0.486,0.865,0.061
23.680,-0.486,0.871,0.055
23.690,-0.492,0.863,0.053
23.700,-0.496,0.857,0.057
23.710,-0.504,0.859,0.066
23.720,-0.502,0.854,0.068
23.730,-0.502,0.854,0.061
23.740,-0.504,0.850,0.057
23.750,-0.498,0.844,0.057
23.760,-0.490,0.842,0.061
23.770,-0.490,0.844,0.059
23.779,-0.492,0.844,0.057
23.789,-0.494,0.850,0.061
23.799,-0.490,0.848,0.059
23.809,-0.490,0.850,0.059
23.819,-0.486,0.854,0.059
23.829,-0.488,0.861,0.059
23.839,-0.496,0.861,0.061
23.849,-0.500,0.857,0.059
23.859,-0.492,0.852,0.061
23.869,-0.490,0.846,0.064
23.879,-0.486,0.861,0.066
23.889,-0.490,0.859,0.062
23.899,-0.502,0.861,0.059
23.908,-0.502,0.859,0.057
23.918,-0.496,0.857,0.062
23.928,-0.490,0.855,0.070
23.938,-0.494,0.854,0.070
23.948,-0.500,0.854,0.066
23.958,-0.496,0.857,0.066
23.968,-0.496,0.859,0.062
23.978,-0.490,0.855,0.055
23.988,-0.494,0.861,0.057
23.998,-0.492,0.859,0.059
24.008,-0.490,0.854,0.061
24.018,-0.484,0.854,0.062
24.028,-0.482,0.850,0.064
24.038,-0.486,0.852,0.059
24.047,-0.492,0.855,0.062
24.057,-0.494,0.859,0.059
24.067,-0.494,0.861,0.061
24.077,-0.492,0.857,0.061
24.087,-0.492,0.857,0.061
24.097,-0.498,0.861,0.061
24.107,-0.496,0.854,0.061
24.117,-0.490,0.850,0.068
24.127,-0.484,0.854,0.062
24.137,-0.488,0.852,0.061
24.147,-0.496,0.854,0.062
24.157,-0.494,0.863,0.064
24.167,-0.490,0.855,0.061
24.176,-0.488,0.857,0.062
24.186,-0.486,0.855,0.064
24.196,-0.490,0.859,0.068
24.206,-0.488,0.869,0.061
24.216,-0.486,0.869,0.057
24.226,-0.490,0.871,0.051
24.236,-0.496,0.867,0.051
24.246,-0.498,0.861,0.055
24.256,-0.492,0.855,0.059
24.266,-0.494,0.854,0.059
24.276,-0.496,0.850,0.059
24.286,-0.494,0.844,0.053
24.296,-0.490,0.850,0.055
24.306,-0.486,0.846,0.055
24.315,-0.484,0.850,0.055
24.325,-0.486,0.848,0.057
24.335,-0.488,0.852,0.055
24.345,-0.486,0.848,0.061
24.355,-0.486,0.855,0.057
24.365,-0.486,0.859,0.059
24.375,-0.488,0.861,0.057
24.385,-0.490,0.857,0.055
24.395,-0.490,0.859,0.059
24.405,-0.488,0.854,0.061
24.415,-0.480,0.854,0.062
24.425,-0.475,0.861,0.066
24.435,-0.480,0.865,0.057
24.444,-0.486,0.865,0.055
24.454,-0.484,0.863,0.055
24.464,-0.480,0.865,0.061
24.474,-0.480,0.863,0.062
24.484,-0.486,0.859,0.062
24.494,-0.486,0.859,0.059
24.504,-0.482,0.857,0.061
24.514,-0.480,0.859,0.061
24.524,-0.484,0.863,0.064
24.534,-0.482,0.865,0.062
24.544,-0.482,0.863,0.057
24.554,-0.480,0.861,0.059
24.564,-0.480,0.861,0.061
24.574,-0.477,0.863,0.062
24.583,-0.475,0.863,0.064
24.593,-0.477,0.861,0.062
24.603,-0.479,0.865,0.059
24.613,-0.479,0.867,0.059
24.623,-0.480,0.865,0.062
24.633,-0.477,0.861,0.057
24.643,-0.479,0.859,0.059
24.653,-0.479,0.861,0.061
24.663,-0.479,0.859,0.062
24.673,-0.480,0.859,0.061
24.683,-0.479,0.857,0.061
24.693,-0.471,0.861,0.062
24.703,-0.475,0.863,0.059
24.713,-0.477,0.865,0.061
24.722,-0.480,0.867,0.061
24.732,-0.480,0.861,0.061
24.742,-0.477,0.859,0.064
24.752,-0.473,0.855,0.066
24.762,-0.475,0.859,0.066
24.772,-0.473,0.873,0.064
24.782,-0.480,0.877,0.059
24.792,-0.484,0.875,0.055
24.802,-0.480,0.871,0.057
24.812,-0.477,0.863,0.066
24.822,-0.479,0.863,0.064
24.832,-0.482,0.857,0.061
24.842,-0.484,0.857,0.059
24.851,-0.480,0.855,0.059
24.861,-0.475,0.855,0.061
24.871,-0.475,0.855,0.059
24.881,-0.479,0.859,0.062
24.891,-0.479,0.859,0.062
24.901,-0.479,0.857,0.061
24.911,-0.473,0.855,0.061
24.921,-0.473,0.865,0.059
24.931,-0.477,0.867,0.061
24.941,-0.484,0.865,0.061
24.951,-0.484,0.863,0.059
24.961,-0.475,0.863,0.061
24.971,-0.473,0.857,0.062
24.981,-0.469,0.865,0.062
24.990,-0.479,0.873,0.059
25.000,-0.482,0.869,0.059
25.010,-0.482,0.863,0.057
25.020,-0.479,0.865,0.061
25.030,-0.475,0.861,0.064
25.040,-0.479,0.859,0.062
25.050,-0.480,0.863,0.062
25.060,-0.480,0.863,0.059
25.070,-0.479,0.861,0.061
25.080,-0.477,0.863,0.062
25.090,-0.473,0.865,0.061
25.100,-0.475,0.867,0.061
25.110,-0.475,0.865,0.061
25.119,-0.469,0.861,0.059
25.129,-0.471,0.861,0.062
25.139,-0.471,0.859,0.062
25.149,-0.477,0.863,0.064
25.159,-0.475,0.861,0.062
25.169,-0.479,0.861,0.062
25.179,-0.480,0.867,0.059
25.189,-0.480,0.869,0.059
25.199,-0.480,0.863,0.055
25.209,-0.475,0.865,0.061
25.219,-0.479,0.867,0.061
25.229,-0.475,0.857,0.064
25.239,-0.479,0.863,0.061
25.249,-0.479,0.857,0.061
25.258,-0.473,0.855,0.059
25.268,-0.469,0.859,0.062
25.278,-0.473,0.859,0.062
25.288,-0.475,0.863,0.066
25.298,-0.482,0.869,0.062
25.308,-0.480,0.869,0.057
25.318,-0.477,0.865,0.061
25.328,-0.475,0.861,0.066
25.338,-0.473,0.863,0.066
25.348,-0.469,0.871,0.066
25.358,-0.475,0.879,0.061
25.368,-0.480,0.875,0.055
25.378,-0.482,0.871,0.055
25.387,-0.477,0.865,0.057
25.397,-0.479,0.865,0.066
25.407,-0.486,0.861,0.062
25.417,-0.488,0.861,0.061
25.427,-0.488,0.857,0.057
25.437,-0.480,0.855,0.053
25.447,-0.479,0.855,0.059
25.457,-0.479,0.859,0.061
25.467,-0.479,0.854,0.059
25.477,-0.477,0.850,0.062
25.487,-0.473,0.854,0.061
25.497,-0.475,0.857,0.057
25.507,-0.479,0.867,0.057
25.517,-0.484,0.865,0.057
25.526,-0.482,0.863,0.057
25.536,-0.475,0.867,0.057
25.546,-0.471,0.855,0.064
25.556,-0.473,0.854,0.062
25.566,-0.475,0.869,0.066
25.576,-0.480,0.867,0.057
25.586,-0.482,0.867,0.055
25.596,-0.479,0.869,0.059
25.606,-0.471,0.863,0.066
25.616,-0.473,0.863,0.066
25.626,-0.475,0.867,0.062
25.636,-0.479,0.865,0.061
25.646,-0.475,0.865,0.059
25.656,-0.475,0.869,0.061
25.665,-0.477,0.865,0.061
25.675,-0.480,0.863,0.059
25.685,-0.475,0.861,0.061
25.695,-0.469,0.861,0.059
25.705,-0.463,0.857,0.061
25.715,-0.471,0.865,0.055
25.725,-0.479,0.869,0.061
25.735,-0.480,0.865,0.061
25.745,-0.477,0.863,0.064
25.755,-0.480,0.855,0.062
25.765,-0.479,0.861,0.062
25.775,-0.480,0.861,0.057
25.785,-0.482,0.861,0.062
25.794,-0.486,0.863,0.057
25.804,-0.482,0.859,0.062
25.814,-0.484,0.859,0.062
25.824,-0.482,0.861,0.064
25.834,-0.484,0.861,0.061
25.844,-0.480,0.859,0.061
25.854,-0.475,0.857,0.064
25.864,-0.475,0.854,0.064
25.874,-0.480,0.857,0.068
25.884,-0.482,0.867,0.066
25.894,-0.486,0.871,0.064
25.904,-0.484,0.863,0.062
25.914,-0.475,0.859,0.064
25.924,-0.471,0.861,0.066
25.933,-0.471,0.863,0.070
25.943,-0.471,0.879,0.068
25.953,-0.479,0.883,0.059
25.963,-0.486,0.881,0.055
25.973,-0.490,0.871,0.059
25.983,-0.482,0.865,0.064
25.993,-0.482,0.859,0.068
26.003,-0.482,0.855,0.066
26.013,-0.486,0.850,0.064
26.023,-0.482,0.850,0.061
26.033,-0.475,0.852,0.062
26.043,-0.477,0.854,0.064
26.053,-0.475,0.855,0.062
26.062,-0.475,0.861,0.062
26.072,-0.471,0.859,0.064
26.082,-0.471,0.859,0.064
26.092,-0.469,0.871,0.062
26.102,-0.477,0.873,0.062
26.112,-0.484,0.865,0.062
26.122,-0.477,0.863,0.061
26.132,-0.467,0.855,0.062
26.142,-0.467,0.854,0.068
26.152,-0.469,0.869,0.064
26.162,-0.479,0.877,0.061
26.172,-0.488,0.873,0.061
26.182,-0.482,0.871,0.057
26.192,-0.473,0.865,0.061
26.201,-0.471,0.861,0.068
26.211,-0.479,0.865,0.064
26.221,-0.480,0.865,0.062
26.231,-0.479,0.865,0.057
26.241,-0.477,0.861,0.059
26.251,-0.475,0.863,0.059
26.261,-0.479,0.865,0.064
26.271,-0.475,0.863,0.062
26.281,-0.475,0.861,0.061
26.291,-0.475,0.857,0.062
26.301,-0.473,0.859,0.064
26.311,-0.473,0.859,0.064
26.321,-0.475,0.865,0.068
26.330,-0.479,0.867,0.064
26.340,-0.479,0.865,0.061
26.350,-0.475,0.867,0.061
26.360,-0.479,0.865,0.057
26.370,-0.477,0.863,0.062
26.380,-0.479,0.865,0.061
26.390,-0.480,0.859,0.062
26.400,-0.479,0.859,0.062
26.410,-0.475,0.855,0.062
26.420,-0.475,0.854,0.062
26.430,-0.469,0.857,0.062
26.440,-0.473,0.861,0.062
26.450,-0.480,0.867,0.062
26.460,-0.486,0.863,0.061
26.469,-0.482,0.863,0.064
26.479,-0.477,0.859,0.062
26.489,-0.469,0.855,0.070
26.499,-0.465,0.863,0.068
26.509,-0.465,0.875,0.064
26.519,-0.471,0.883,0.059
26.529,-0.480,0.885,0.061
26.539,-0.490,0.879,0.061
26.549,-0.486,0.869,0.062
26.559,-0.477,0.859,0.070
26.569,-0.473,0.850,0.066
26.579,-0.475,0.850,0.066
26.589,-0.475,0.852,0.061
26.598,-0.475,0.857,0.061
26.608,-0.475,0.863,0.062
26.618,-0.477,0.865,0.064
26.628,-0.477,0.861,0.064
26.638,-0.475,0.861,0.061
26.648,-0.471,0.861,0.068
26.658,-0.475,0.865,0.066
26.668,-0.477,0.867,0.064
26.678,-0.480,0.863,0.062
26.688,-0.479,0.863,0.062
26.698,-0.471,0.857,0.066
26.708,-0.469,0.861,0.064
26.718,-0.467,0.873,0.062
26.728,-0.475,0.875,0.057
26.737,-0.488,0.873,0.059
26.747,-0.482,0.867,0.059
26.757,-0.467,0.861,0.068
26.767,-0.467,0.857,0.068
26.777,-0.473,0.863,0.068
26.787,-0.482,0.865,0.062
26.797,-0.479,0.869,0.061
26.807,-0.477,0.865,0.059
26.817,-0.473,0.859,0.062
26.827,-0.471,0.861,0.064
26.837,-0.475,0.861,0.061
26.847,-0.477,0.859,0.066
26.857,-0.473,0.859,0.062
26.867,-0.475,0.857,0.061
26.876,-0.475,0.861,0.061
26.886,-0.477,0.863,0.061
26.896,-0.477,0.871,0.061
26.906,-0.477,0.865,0.061
26.916,-0.475,0.861,0.061
26.926,-0.475,0.861,0.061
26.936,-0.475,0.861,0.059
26.946,-0.477,0.859,0.062
26.956,-0.475,0.855,0.066
26.966,-0.473,0.859,0.064
26.976,-0.471,0.863,0.061
26.986,-0.479,0.869,0.064
26.996,-0.479,0.869,0.064
27.005,-0.479,0.869,0.062
27.015,-0.480,0.859,0.062
27.025,-0.477,0.854,0.062
27.035,-0.469,0.855,0.066
27.045,-0.471,0.863,0.064
27.055,-0.473,0.869,0.068
27.065,-0.473,0.881,0.064
27.075,-0.479,0.881,0.061
27.085,-0.492,0.875,0.061
27.095,-0.488,0.867,0.064
27.105,-0.480,0.859,0.066
27.115,-0.477,0.855,0.066
27.125,-0.479,0.852,0.068
27.135,-0.477,0.852,0.062
27.144,-0.477,0.857,0.064
27.154,-0.477,0.855,0.066
27.164,-0.475,0.861,0.064
27.174,-0.479,0.857,0.066
27.184,-0.477,0.859,0.066
27.194,-0.473,0.861,0.066
27.204,-0.477,0.867,0.066
27.214,-0.480,0.871,0.062
27.224,-0.484,0.865,0.062
27.234,-0.482,0.859,0.062
27.244,-0.477,0.857,0.064
27.254,-0.471,0.854,0.062
27.264,-0.473,0.861,0.062
27.273,-0.477,0.867,0.062
27.283,-0.484,0.865,0.059
27.293,-0.490,0.865,0.061
27.303,-0.480,0.861,0.064
27.313,-0.477,0.857,0.074
27.323,-0.479,0.861,0.068
27.333,-0.486,0.865,0.062
27.343,-0.488,0.867,0.059
27.353,-0.484,0.863,0.059
27.363,-0.482,0.859,0.062
27.373,-0.479,0.855,0.066
27.383,-0.480,0.854,0.064
27.393,-0.484,0.855,0.062
27.403,-0.480,0.861,0.064
27.412,-0.479,0.867,0.061
27.422,-0.479,0.863,0.062
27.432,-0.486,0.859,0.062
27.442,-0.482,0.861,0.066
27.452,-0.480,0.857,0.061
27.462,-0.480,0.857,0.066
27.472,-0.482,0.863,0.061
27.482,-0.477,0.865,0.062
27.492,-0.477,0.855,0.062
27.502,-0.475,0.855,0.066
27.512,-0.477,0.859,0.062
27.522,-0.484,0.867,0.064
27.532,-0.488,0.865,0.062
27.541,-0.484,0.861,0.062
27.551,-0.480,0.852,0.070
27.561,-0.477,0.855,0.066
27.571,-0.479,0.857,0.070
27.581,-0.482,0.867,0.062
27.591,-0.473,0.877,0.059
27.601,-0.473,0.881,0.059
27.611,-0.486,0.879,0.061
27.621,-0.500,0.875,0.066
27.631,-0.496,0.865,0.064
27.641,-0.484,0.852,0.062
27.651,-0.480,0.844,0.064
27.661,-0.482,0.844,0.066
27.671,-0.486,0.848,0.062
27.680,-0.484,0.852,0.064
27.690,-0.482,0.852,0.066
27.700,-0.475,0.857,0.062
27.710,-0.473,0.861,0.061
27.720,-0.477,0.861,0.064
27.730,-0.482,0.865,0.062
27.740,-0.480,0.863,0.059
27.750,-0.484,0.867,0.062
27.760,-0.490,0.857,0.062
27.770,-0.492,0.852,0.066
27.780,-0.482,0.850,0.068
27.790,-0.479,0.852,0.070
27.800,-0.480,0.861,0.062
27.809,-0.486,0.863,0.062
27.819,-0.488,0.863,0.061
27.829,-0.484,0.865,0.062
27.839,-0.480,0.859,0.068
27.849,-0.479,0.867,0.066
27.859,-0.486,0.869,0.066
27.869,-0.484,0.867,0.062
27.879,-0.484,0.861,0.061
27.889,-0.479,0.863,0.061
27.899,-0.479,0.859,0.062
27.909,-0.480,0.861,0.066
27.919,-0.477,0.857,0.064
27.929,-0.475,0.855,0.066
27.939,-0.473,0.857,0.059
27.948,-0.479,0.855,0.062
27.958,-0.479,0.863,0.064
27.968,-0.482,0.863,0.062
27.978,-0.482,0.863,0.061
27.988,-0.480,0.865,0.062
27.998,-0.480,0.863,0.062
28.008,-0.477,0.859,0.062
28.018,-0.475,0.857,0.064
28.028,-0.475,0.857,0.064
28.038,-0.475,0.855,0.066
28.048,-0.475,0.863,0.066
28.058,-0.482,0.867,0.064
28.068,-0.488,0.865,0.062
28.078,-0.480,0.857,0.066
28.087,-0.477,0.854,0.068
28.097,-0.477,0.855,0.068
28.107,-0.482,0.863,0.072
28.117,-0.475,0.875,0.068
28.127,-0.473,0.881,0.062
28.137,-0.477,0.881,0.057
28.147,-0.482,0.875,0.061
28.157,-0.488,0.865,0.068
28.167,-0.484,0.863,0.068
28.177,-0.482,0.855,0.068
28.187,-0.480,0.852,0.064
28.197,-0.484,0.852,0.064
28.207,-0.480,0.852,0.064
28.216,-0.477,0.855,0.068
28.226,-0.477,0.857,0.064
28.236,-0.477,0.861,0.066
28.246,-0.477,0.863,0.062
28.256,-0.479,0.861,0.062
28.266,-0.477,0.867,0.066
28.276,-0.477,0.873,0.062
28.286,-0.484,0.859,0.068
28.296,-0.484,0.863,0.066
28.306,-0.479,0.859,0.068
28.316,-0.473,0.861,0.068
28.326,-0.471,0.865,0.064
28.336,-0.475,0.863,0.062
28.346,-0.484,0.869,0.062
28.355,-0.488,0.863,0.064
28.365,-0.484,0.861,0.070
28.375,-0.479,0.861,0.070
28.385,-0.479,0.861,0.068
28.395,-0.480,0.865,0.064
28.405,-0.480,0.865,0.064
28.415,-0.482,0.863,0.061
28.425,-0.475,0.861,0.064
28.435,-0.473,0.863,0.068
28.445,-0.473,0.859,0.068
28.455,-0.475,0.859,0.064
28.465,-0.475,0.861,0.062
28.475,-0.480,0.859,0.062
28.484,-0.475,0.865,0.066
28.494,-0.477,0.863,0.062
28.504,-0.479,0.857,0.064
28.514,-0.479,0.859,0.066
28.524,-0.477,0.863,0.064
28.534,-0.479,0.861,0.064
28.544,-0.475,0.865,0.066
28.554,-0.473,0.857,0.062
28.564,-0.469,0.861,0.066
28.574,-0.473,0.863,0.066
28.584,-0.479,0.861,0.064
28.594,-0.480,0.865,0.068
28.604,-0.482,0.861,0.068
28.614,-0.479,0.852,0.070
28.623,-0.473,0.855,0.076
28.633,-0.473,0.861,0.070
28.643,-0.471,0.873,0.068
28.653,-0.473,0.887,0.064
28.663,-0.475,0.881,0.055
28.673,-0.479,0.877,0.059
28.683,-0.482,0.865,0.066
28.693,-0.477,0.857,0.070
28.703,-0.479,0.854,0.070
28.713,-0.484,0.855,0.066
28.723,-0.482,0.854,0.064
28.733,-0.479,0.855,0.064
28.743,-0.471,0.857,0.070
28.752,-0.471,0.863,0.064
28.762,-0.477,0.859,0.062
28.772,-0.473,0.859,0.062
28.782,-0.475,0.861,0.062
28.792,-0.471,0.861,0.068
28.802,-0.473,0.871,0.070
28.812,-0.482,0.863,0.064
28.822,-0.482,0.857,0.064
28.832,-0.475,0.857,0.066
28.842,-0.467,0.855,0.072
28.852,-0.467,0.865,0.068
28.862,-0.471,0.875,0.062
28.872,-0.482,0.871,0.062
28.882,-0.482,0.871,0.064
28.891,-0.475,0.861,0.068
28.901,-0.475,0.859,0.074
28.911,-0.477,0.861,0.070
28.921,-0.484,0.867,0.068
28.931,-0.482,0.865,0.066
28.941,-0.477,0.867,0.070
28.951,-0.475,0.869,0.070
28.961,-0.477,0.865,0.066
28.971,-0.479,0.865,0.070
28.981,-0.475,0.861,0.068
28.991,-0.477,0.857,0.066
29.001,-0.475,0.857,0.070
29.011,-0.475,0.855,0.070
29.021,-0.475,0.861,0.066
29.030,-0.477,0.863,0.068
29.040,-0.475,0.865,0.068
29.050,-0.475,0.867,0.066
29.060,-0.475,0.865,0.068
29.070,-0.473,0.865,0.068
29.080,-0.479,0.863,0.070
29.090,-0.473,0.859,0.066
29.100,-0.469,0.859,0.070
29.110,-0.471,0.863,0.070
29.120,-0.479,0.867,0.068
29.130,-0.480,0.867,0.070
29.140,-0.479,0.865,0.066
29.150,-0.477,0.857,0.072
29.159,-0.471,0.863,0.076
29.169,-0.471,0.865,0.074
29.179,-0.471,0.879,0.072
29.189,-0.471,0.883,0.066
29.199,-0.475,0.881,0.061
29.209,-0.477,0.873,0.064
29.219,-0.473,0.861,0.070
29.229,-0.477,0.861,0.074
29.239,-0.480,0.861,0.074
29.249,-0.484,0.859,0.068
29.259,-0.480,0.859,0.062
29.269,-0.477,0.859,0.064
29.279,-0.473,0.854,0.070
29.289,-0.475,0.859,0.070
29.298,-0.471,0.855,0.070
29.308,-0.471,0.859,0.066
29.318,-0.473,0.859,0.066
29.328,-0.473,0.859,0.066
29.338,-0.473,0.865,0.072
29.348,-0.477,0.863,0.074
29.358,-0.480,0.863,0.072
29.368,-0.475,0.863,0.072
29.378,-0.473,0.861,0.076
29.388,-0.465,0.869,0.078
29.398,-0.471,0.877,0.074
29.408,-0.482,0.879,0.068
29.418,-0.482,0.875,0.070
29.427,-0.473,0.871,0.072
29.437,-0.467,0.867,0.074
29.447,-0.473,0.863,0.070
29.457,-0.477,0.859,0.072
29.467,-0.475,0.859,0.072
29.477,-0.469,0.863,0.072
29.487,-0.471,0.863,0.074
29.497,-0.473,0.869,0.074
29.507,-0.471,0.873,0.072
29.517,-0.469,0.867,0.070
29.527,-0.465,0.863,0.074
29.537,-0.465,0.865,0.076
29.547,-0.469,0.865,0.074
29.557,-0.473,0.867,0.078
29.566,-0.473,0.871,0.074
29.576,-0.477,0.867,0.072
29.586,-0.473,0.865,0.072
29.596,-0.477,0.865,0.072
29.606,-0.473,0.857,0.074
29.616,-0.469,0.854,0.074
29.626,-0.465,0.861,0.078
29.636,-0.461,0.861,0.072
29.646,-0.467,0.867,0.076
29.656,-0.473,0.875,0.074
29.666,-0.477,0.877,0.076
29.676,-0.473,0.883,0.076
29.686,-0.471,0.869,0.072
29.695,-0.469,0.863,0.074
29.705,-0.463,0.863,0.076
29.715,-0.463,0.869,0.078
29.725,-0.465,0.877,0.076
29.735,-0.469,0.879,0.070
29.745,-0.475,0.877,0.062
29.755,-0.473,0.875,0.070
29.765,-0.471,0.869,0.072
29.775,-0.477,0.867,0.080
29.785,-0.479,0.863,0.074
29.795,-0.479,0.859,0.072
29.805,-0.471,0.855,0.068
29.815,-0.463,0.855,0.068
29.825,-0.461,0.861,0.070
29.834,-0.469,0.861,0.072
29.844,-0.469,0.863,0.072
29.854,-0.465,0.867,0.072
29.864,-0.465,0.867,0.070
29.874,-0.461,0.871,0.072
29.884,-0.465,0.875,0.072
29.894,-0.467,0.869,0.070
29.904,-0.465,0.865,0.072
29.914,-0.461,0.855,0.076
29.924,-0.461,0.854,0.074
29.934,-0.463,0.863,0.074
29.944,-0.469,0.873,0.066
29.954,-0.475,0.873,0.062
29.963,-0.475,0.873,0.061
29.973,-0.465,0.873,0.064
29.983,-0.463,0.867,0.066
29.993,-0.461,0.867,0.070
30.003,-0.469,0.875,0.068
30.013,-0.465,0.873,0.066
30.023,-0.457,0.873,0.059
30.033,-0.455,0.867,0.055
30.043,-0.459,0.869,0.055
30.053,-0.459,0.873,0.059
30.063,-0.461,0.871,0.061
30.073,-0.457,0.871,0.062
30.083,-0.459,0.867,0.064
30.093,-0.465,0.867,0.062
30.102,-0.465,0.867,0.062
30.112,-0.469,0.871,0.061
30.122,-0.467,0.867,0.059
30.132,-0.465,0.865,0.059
30.142,-0.467,0.867,0.062
30.152,-0.465,0.865,0.061
30.162,-0.463,0.865,0.057
30.172,-0.461,0.865,0.061
30.182,-0.457,0.865,0.062
30.192,-0.455,0.865,0.061
30.202,-0.457,0.873,0.064
30.212,-0.461,0.877,0.062
30.222,-0.461,0.875,0.062
30.232,-0.465,0.875,0.059
30.241,-0.463,0.871,0.061
30.251,-0.461,0.867,0.064
30.261,-0.459,0.869,0.066
30.271,-0.459,0.871,0.068
30.281,-0.457,0.883,0.064
30.291,-0.463,0.877,0.055
30.301,-0.467,0.877,0.053
30.311,-0.467,0.875,0.062
30.321,-0.465,0.873,0.066
30.331,-0.469,0.865,0.068
30.341,-0.471,0.867,0.064
30.351,-0.467,0.867,0.062
30.361,-0.459,0.865,0.062
30.370,-0.459,0.865,0.066
30.380,-0.463,0.865,0.064
30.390,-0.461,0.865,0.064
30.400,-0.459,0.861,0.066
30.410,-0.459,0.863,0.066
30.420,-0.459,0.867,0.068
30.430,-0.463,0.873,0.066
30.440,-0.469,0.873,0.062
30.450,-0.469,0.871,0.064
30.460,-0.463,0.871,0.066
30.470,-0.459,0.869,0.068
30.480,-0.455,0.875,0.068
30.490,-0.457,0.877,0.066
30.500,-0.467,0.881,0.062
30.509,-0.465,0.879,0.061
30.519,-0.463,0.873,0.064
30.529,-0.459,0.869,0.068
30.539,-0.461,0.867,0.070
30.549,-0.465,0.865,0.066
30.559,-0.463,0.867,0.066
30.569,-0.461,0.871,0.064
30.579,-0.459,0.867,0.061
30.589,-0.463,0.871,0.064
30.599,-0.461,0.871,0.062
30.609,-0.465,0.873,0.064
30.619,-0.463,0.873,0.066
30.629,-0.465,0.869,0.064
30.638,-0.463,0.863,0.066
30.648,-0.463,0.865,0.066
30.658,-0.461,0.867,0.066
30.668,-0.465,0.871,0.061
30.678,-0.461,0.871,0.059
30.688,-0.461,0.873,0.059
30.698,-0.463,0.871,0.062
30.708,-0.467,0.869,0.064
30.718,-0.469,0.871,0.062
30.728,-0.467,0.867,0.062
30.738,-0.463,0.863,0.061
30.748,-0.461,0.865,0.064
30.758,-0.461,0.865,0.064
30.768,-0.465,0.873,0.064
30.777,-0.467,0.877,0.062
30.787,-0.467,0.875,0.061
30.797,-0.465,0.873,0.062
30.807,-0.463,0.863,0.062
30.817,-0.463,0.863,0.068
30.827,-0.461,0.869,0.068
30.837,-0.457,0.879,0.066
30.847,-0.455,0.881,0.059
30.857,-0.461,0.879,0.059
30.867,-0.465,0.877,0.061
30.877,-0.465,0.873,0.062
30.887,-0.471,0.871,0.066
30.897,-0.473,0.867,0.066
30.906,-0.469,0.863,0.064
30.916,-0.467,0.861,0.061
30.926,-0.461,0.859,0.062
30.936,-0.461,0.863,0.064
30.946,-0.467,0.865,0.066
30.956,-0.469,0.865,0.066
30.966,-0.467,0.867,0.068
30.976,-0.459,0.867,0.066
30.986,-0.459,0.871,0.064
30.996,-0.463,0.873,0.062
31.006,-0.469,0.867,0.061
31.016,-0.465,0.867,0.062
31.026,-0.461,0.865,0.066
31.036,-0.459,0.869,0.068
31.045,-0.461,0.875,0.068
31.055,-0.467,0.877,0.061
31.065,-0.471,0.879,0.061
31.075,-0.469,0.881,0.062
31.085,-0.467,0.869,0.062
31.095,-0.465,0.871,0.066
31.105,-0.465,0.867,0.066
31.115,-0.469,0.867,0.064
31.125,-0.465,0.867,0.062
31.135,-0.461,0.861,0.064
31.145,-0.463,0.867,0.061
31.155,-0.463,0.871,0.066
31.165,-0.471,0.869,0.066
31.174,-0.469,0.867,0.066
31.184,-0.465,0.875,0.064
31.194,-0.465,0.869,0.062
31.204,-0.465,0.867,0.066
31.214,-0.463,0.869,0.064
31.224,-0.467,0.869,0.062
31.234,-0.465,0.867,0.066
31.244,-0.463,0.867,0.062
31.254,-0.463,0.869,0.064
31.264,-0.463,0.873,0.061
31.274,-0.463,0.871,0.061
31.284,-0.463,0.867,0.061
31.294,-0.463,0.871,0.061
31.304,-0.463,0.865,0.062
31.313,-0.461,0.861,0.064
31.323,-0.459,0.861,0.064
31.333,-0.461,0.869,0.068
31.343,-0.463,0.867,0.064
31.353,-0.465,0.873,0.064
31.363,-0.465,0.879,0.064
31.373,-0.469,0.873,0.062
31.383,-0.467,0.869,0.066
31.393,-0.457,0.867,0.070
31.403,-0.449,0.875,0.066
31.413,-0.451,0.885,0.061
31.423,-0.467,0.887,0.059
31.433,-0.475,0.883,0.059
31.443,-0.473,0.877,0.064
31.452,-0.465,0.871,0.066
31.462,-0.463,0.871,0.070
31.472,-0.467,0.863,0.066
31.482,-0.469,0.859,0.064
31.492,-0.459,0.861,0.066
31.502,-0.459,0.861,0.066
31.512,-0.461,0.863,0.066
31.522,-0.465,0.865,0.066
31.532,-0.463,0.863,0.062
31.542,-0.455,0.863,0.064
31.552,-0.453,0.873,0.070
31.562,-0.461,0.873,0.064
31.572,-0.469,0.869,0.066
31.581,-0.467,0.871,0.068
31.591,-0.461,0.867,0.064
31.601,-0.461,0.865,0.070
31.611,-0.459,0.879,0.072
31.621,-0.465,0.883,0.064
31.631,-0.475,0.881,0.064
31.641,-0.473,0.871,0.068
31.651,-0.463,0.871,0.070
31.661,-0.457,0.869,0.072
31.671,-0.469,0.873,0.070
31.681,-0.473,0.869,0.070
31.691,-0.469,0.867,0.066
31.701,-0.463,0.867,0.068
31.711,-0.461,0.865,0.068
31.720,-0.463,0.867,0.070
31.730,-0.467,0.871,0.068
31.740,-0.465,0.867,0.070
31.750,-0.459,0.867,0.074
31.760,-0.457,0.867,0.070
31.770,-0.463,0.871,0.072
31.780,-0.465,0.871,0.070
31.790,-0.463,0.873,0.070
31.800,-0.465,0.871,0.066
31.810,-0.467,0.869,0.064
31.820,-0.461,0.873,0.068
31.830,-0.465,0.869,0.070
31.840,-0.465,0.865,0.070
31.849,-0.463,0.865,0.072
31.859,-0.461,0.857,0.072
31.869,-0.459,0.863,0.072
31.879,-0.461,0.869,0.072
31.889,-0.467,0.873,0.070
31.899,-0.471,0.875,0.074
31.909,-0.473,0.877,0.074
31.919,-0.473,0.869,0.074
31.929,-0.469,0.861,0.074
31.939,-0.463,0.861,0.076
31.949,-0.465,0.863,0.078
31.959,-0.461,0.871,0.074
31.969,-0.455,0.885,0.072
31.979,-0.467,0.887,0.068
31.988,-0.471,0.885,0.064
31.998,-0.475,0.879,0.066
32.008,-0.473,0.867,0.072
32.018,-0.469,0.863,0.078
32.028,-0.465,0.857,0.074
32.038,-0.461,0.852,0.068
32.048,-0.463,0.857,0.066
32.058,-0.461,0.861,0.066
32.068,-0.467,0.865,0.066
32.078,-0.465,0.865,0.070
32.088,-0.465,0.867,0.070
32.098,-0.463,0.869,0.068
32.108,-0.459,0.871,0.070
32.117,-0.465,0.873,0.068
32.127,-0.473,0.865,0.070
32.137,-0.469,0.867,0.070
32.147,-0.461,0.863,0.078
32.157,-0.457,0.863,0.074
32.167,-0.457,0.875,0.070
32.177,-0.461,0.879,0.066
32.187,-0.473,0.877,0.061
32.197,-0.480,0.873,0.068
32.207,-0.467,0.867,0.072
32.217,-0.463,0.863,0.076
32.227,-0.475,0.863,0.076
32.237,-0.475,0.865,0.066
32.247,-0.473,0.865,0.066
32.256,-0.469,0.865,0.066
32.266,-0.465,0.865,0.070
32.276,-0.465,0.871,0.068
32.286,-0.471,0.869,0.070
32.296,-0.469,0.867,0.070
32.306,-0.465,0.867,0.068
32.316,-0.463,0.867,0.070
32.326,-0.471,0.867,0.068
32.336,-0.471,0.867,0.068
32.346,-0.469,0.865,0.064
32.356,-0.463,0.863,0.064
32.366,-0.467,0.867,0.068
32.376,-0.473,0.865,0.068
32.386,-0.471,0.869,0.066
32.395,-0.471,0.859,0.068
32.405,-0.465,0.861,0.068
32.415,-0.463,0.865,0.072
32.425,-0.465,0.867,0.070
32.435,-0.471,0.869,0.070
32.445,-0.475,0.879,0.070
32.455,-0.475,0.873,0.066
32.465,-0.477,0.863,0.066
32.475,-0.473,0.857,0.074
32.485,-0.469,0.857,0.074
32.495,-0.469,0.861,0.074
32.505,-0.471,0.873,0.072
32.515,-0.467,0.885,0.068
32.524,-0.475,0.887,0.064
32.534,-0.484,0.885,0.066
32.544,-0.488,0.875,0.066
32.554,-0.482,0.863,0.072
32.564,-0.473,0.861,0.074
32.574,-0.473,0.855,0.072
32.584,-0.473,0.852,0.066
32.594,-0.471,0.861,0.066
32.604,-0.471,0.855,0.064
32.614,-0.467,0.863,0.066
32.624,-0.469,0.865,0.068
32.634,-0.469,0.861,0.068
32.644,-0.473,0.865,0.068
32.654,-0.467,0.865,0.066
32.663,-0.469,0.871,0.064
32.673,-0.473,0.869,0.062
32.683,-0.477,0.863,0.066
32.693,-0.465,0.865,0.068
32.703,-0.463,0.863,0.068
32.713,-0.461,0.871,0.070
32.723,-0.469,0.873,0.064
32.733,-0.477,0.871,0.062
32.743,-0.477,0.869,0.062
32.753,-0.469,0.863,0.072
32.763,-0.465,0.861,0.072
32.773,-0.471,0.861,0.070
32.783,-0.477,0.867,0.070
32.792,-0.479,0.865,0.064
32.802,-0.475,0.865,0.064
32.812,-0.475,0.865,0.066
32.822,-0.473,0.869,0.068
32.832,-0.477,0.865,0.068
32.842,-0.475,0.867,0.064
32.852,-0.471,0.863,0.066
32.862,-0.473,0.863,0.068
32.872,-0.475,0.865,0.066
32.882,-0.477,0.869,0.062
32.892,-0.479,0.867,0.062
32.902,-0.477,0.865,0.064
32.912,-0.475,0.863,0.061
32.922,-0.473,0.859,0.061
32.931,-0.475,0.861,0.064
32.941,-0.473,0.855,0.064
32.951,-0.473,0.855,0.064
32.961,-0.473,0.857,0.066
32.971,-0.477,0.865,0.066
32.981,-0.482,0.865,0.066
32.991,-0.484,0.869,0.064
33.001,-0.486,0.859,0.068
33.011,-0.482,0.855,0.070
33.021,-0.475,0.855,0.072
33.031,-0.475,0.861,0.072
33.041,-0.471,0.869,0.066
33.051,-0.473,0.879,0.068
33.060,-0.480,0.883,0.064
33.070,-0.490,0.879,0.064
33.080,-0.494,0.871,0.066
33.090,-0.484,0.863,0.072
33.100,-0.477,0.855,0.070
33.110,-0.479,0.850,0.068
33.120,-0.479,0.852,0.066
33.130,-0.477,0.854,0.062
33.140,-0.477,0.857,0.064
33.150,-0.475,0.861,0.066
33.160,-0.477,0.863,0.068
33.170,-0.477,0.861,0.064
33.180,-0.477,0.863,0.064
33.190,-0.482,0.863,0.064
33.199,-0.480,0.865,0.068
33.209,-0.482,0.863,0.066
33.219,-0.486,0.855,0.061
33.229,-0.480,0.859,0.064
33.239,-0.479,0.854,0.062
33.249,-0.477,0.861,0.066
33.259,-0.480,0.867,0.064
33.269,-0.492,0.867,0.061
33.279,-0.484,0.861,0.062
33.289,-0.482,0.857,0.066
33.299,-0.479,0.863,0.070
33.309,-0.479,0.869,0.068
33.319,-0.488,0.865,0.064
33.328,-0.484,0.867,0.062
33.338,-0.480,0.861,0.061
33.348,-0.480,0.859,0.061
33.358,-0.480,0.859,0.068
33.368,-0.479,0.861,0.064
33.378,-0.477,0.863,0.066
33.388,-0.484,0.863,0.062
33.398,-0.479,0.865,0.061
33.408,-0.477,0.863,0.062
33.418,-0.482,0.859,0.062
33.428,-0.482,0.857,0.061
33.438,-0.482,0.854,0.066
33.448,-0.480,0.855,0.062
33.458,-0.484,0.857,0.064
33.467,-0.486,0.859,0.064
33.477,-0.486,0.857,0.066
33.487,-0.484,0.861,0.066
33.497,-0.482,0.857,0.064
33.507,-0.482,0.863,0.066
33.517,-0.486,0.861,0.066
33.527,-0.480,0.861,0.068
33.537,-0.479,0.850,0.066
33.547,-0.471,0.854,0.070
33.557,-0.473,0.857,0.070
33.567,-0.477,0.871,0.068
33.577,-0.477,0.879,0.062
33.587,-0.479,0.881,0.061
33.597,-0.486,0.879,0.062
33.606,-0.496,0.869,0.066
33.616,-0.488,0.863,0.070
33.626,-0.482,0.854,0.072
33.636,-0.477,0.850,0.068
33.646,-0.482,0.848,0.064
33.656,-0.480,0.850,0.066
33.666,-0.480,0.857,0.066
33.676,-0.479,0.859,0.068
33.686,-0.477,0.861,0.066
33.696,-0.477,0.861,0.064
33.706,-0.477,0.855,0.066
33.716,-0.473,0.861,0.064
33.726,-0.475,0.867,0.064
33.735,-0.480,0.873,0.066
33.745,-0.490,0.865,0.066
33.755,-0.482,0.859,0.062
33.765,-0.475,0.855,0.070
33.775,-0.473,0.852,0.066
33.785,-0.473,0.867,0.068
33.795,-0.484,0.871,0.059
33.805,-0.490,0.867,0.059
33.815,-0.488,0.861,0.061
33.825,-0.477,0.857,0.068
33.835,-0.471,0.861,0.074
33.845,-0.490,0.854,0.068
33.855,-0.490,0.861,0.062
33.865,-0.479,0.871,0.062
33.874,-0.477,0.857,0.059
33.884,-0.471,0.863,0.064
33.894,-0.477,0.861,0.066
33.904,-0.477,0.865,0.066
33.914,-0.477,0.861,0.066
33.924,-0.475,0.863,0.064
33.934,-0.479,0.855,0.064
33.944,-0.477,0.855,0.068
33.954,-0.479,0.861,0.066
33.964,-0.482,0.867,0.066
33.974,-0.484,0.869,0.066
33.984,-0.480,0.865,0.064
33.994,-0.477,0.863,0.064
34.003,-0.480,0.859,0.064
34.013,-0.480,0.861,0.068
34.023,-0.479,0.861,0.066
34.033,-0.480,0.861,0.064
34.043,-0.480,0.863,0.062
34.053,-0.482,0.865,0.061
34.063,-0.480,0.859,0.062
34.073,-0.480,0.855,0.068
34.083,-0.475,0.859,0.070
34.093,-0.475,0.861,0.070
34.103,-0.475,0.871,0.068
34.113,-0.475,0.883,0.062
34.123,-0.479,0.883,0.061
34.133,-0.488,0.871,0.059
34.142,-0.490,0.863,0.066
34.152,-0.484,0.859,0.066
34.162,-0.479,0.852,0.072
34.172,-0.480,0.850,0.072
34.182,-0.484,0.848,0.062
34.192,-0.480,0.852,0.066
34.202,-0.477,0.857,0.066
34.212,-0.477,0.859,0.064
34.222,-0.475,0.869,0.064
34.232,-0.477,0.865,0.066
34.242,-0.480,0.863,0.068
34.252,-0.479,0.865,0.070
34.262,-0.477,0.867,0.066
34.271,-0.480,0.867,0.068
34.281,-0.482,0.859,0.068
34.291,-0.477,0.859,0.064
34.301,-0.473,0.857,0.064
34.311,-0.467,0.861,0.068
34.321,-0.471,0.877,0.062
34.331,-0.482,0.869,0.059
34.341,-0.486,0.873,0.061
34.351,-0.477,0.865,0.066
34.361,-0.469,0.859,0.068
34.371,-0.473,0.863,0.068
34.381,-0.479,0.861,0.068
34.391,-0.480,0.861,0.066
34.401,-0.473,0.865,0.062
34.410,-0.473,0.871,0.064
34.420,-0.477,0.865,0.066
34.430,-0.475,0.863,0.066
34.440,-0.475,0.861,0.062
34.450,-0.475,0.861,0.068
34.460,-0.473,0.863,0.070
34.470,-0.475,0.861,0.064
34.480,-0.477,0.865,0.066
34.490,-0.477,0.863,0.064
34.500,-0.473,0.865,0.062
34.510,-0.471,0.863,0.064
34.520,-0.471,0.859,0.068
34.530,-0.471,0.859,0.066
34.539,-0.473,0.863,0.066
34.549,-0.473,0.861,0.066
34.559,-0.469,0.865,0.070
34.569,-0.475,0.867,0.070
34.579,-0.477,0.871,0.066
34.589,-0.479,0.871,0.066
34.599,-0.479,0.867,0.066
34.609,-0.477,0.859,0.068
34.619,-0.473,0.859,0.072
34.629,-0.469,0.861,0.074
34.639,-0.469,0.867,0.074
34.649,-0.471,0.885,0.066
34.659,-0.475,0.881,0.061
34.669,-0.480,0.877,0.059
34.678,-0.480,0.867,0.066
34.688,-0.473,0.867,0.072
34.698,-0.479,0.861,0.068
34.708,-0.480,0.859,0.064
34.718,-0.479,0.855,0.059
34.728,-0.473,0.846,0.062
34.738,-0.469,0.854,0.066
34.748,-0.475,0.857,0.066
34.758,-0.477,0.855,0.066
34.768,-0.477,0.859,0.068
34.778,-0.473,0.861,0.064
34.788,-0.477,0.865,0.066
34.798,-0.477,0.871,0.062
34.808,-0.484,0.875,0.070
34.817,-0.484,0.865,0.068
34.827,-0.475,0.865,0.068
34.837,-0.471,0.857,0.070
34.847,-0.467,0.857,0.076
34.857,-0.469,0.873,0.072
34.867,-0.477,0.877,0.066
34.877,-0.486,0.871,0.064
34.887,-0.479,0.869,0.066
34.897,-0.477,0.865,0.068
34.907,-0.477,0.865,0.072
34.917,-0.479,0.863,0.068
34.927,-0.482,0.859,0.068
34.937,-0.475,0.857,0.068
34.946,-0.473,0.863,0.068
34.956,-0.471,0.871,0.074
34.966,-0.475,0.867,0.066
34.976,-0.473,0.865,0.068
34.986,-0.475,0.865,0.066
34.996,-0.473,0.865,0.070
35.006,-0.475,0.865,0.070
35.016,-0.477,0.865,0.068
35.026,-0.480,0.863,0.068
35.036,-0.477,0.867,0.066
35.046,-0.477,0.865,0.068
35.056,-0.473,0.865,0.074
35.066,-0.479,0.861,0.070
35.076,-0.473,0.863,0.070
35.085,-0.475,0.861,0.066
35.095,-0.471,0.857,0.066
35.105,-0.467,0.859,0.066
35.115,-0.475,0.861,0.072
35.125,-0.479,0.869,0.074
35.135,-0.482,0.873,0.074
35.145,-0.482,0.873,0.070
35.155,-0.477,0.863,0.068
35.165,-0.475,0.869,0.070
35.175,-0.471,0.863,0.076
35.185,-0.471,0.867,0.072
35.195,-0.469,0.877,0.072
35.205,-0.471,0.875,0.068
35.214,-0.479,0.873,0.064
35.224,-0.480,0.865,0.064
35.234,-0.480,0.861,0.070
35.244,-0.475,0.869,0.076
35.254,-0.480,0.865,0.070
35.264,-0.482,0.857,0.068
35.274,-0.477,0.859,0.064
35.284,-0.471,0.857,0.068
35.294,-0.473,0.857,0.070
35.304,-0.475,0.861,0.070
35.314,-0.473,0.861,0.070
35.324,-0.469,0.859,0.070
35.334,-0.471,0.857,0.074
35.344,-0.469,0.865,0.074
35.353,-0.475,0.871,0.074
35.363,-0.479,0.871,0.072
35.373,-0.477,0.869,0.070
35.383,-0.471,0.863,0.074
35.393,-0.465,0.861,0.074
35.403,-0.465,0.865,0.074
35.413,-0.467,0.877,0.074
35.423,-0.479,0.873,0.066
35.433,-0.475,0.875,0.066
35.443,-0.471,0.865,0.070
35.453,-0.467,0.863,0.074
35.463,-0.473,0.869,0.074
35.473,-0.477,0.867,0.076
35.482,-0.473,0.869,0.072
35.492,-0.469,0.867,0.066
35.502,-0.469,0.865,0.070
35.512,-0.471,0.869,0.072
35.522,-0.473,0.865,0.072
35.532,-0.469,0.867,0.070
35.542,-0.467,0.859,0.068
35.552,-0.467,0.865,0.068
35.562,-0.469,0.863,0.068
35.572,-0.471,0.869,0.070
35.582,-0.469,0.869,0.070
35.592,-0.471,0.865,0.072
35.602,-0.469,0.873,0.070
35.612,-0.471,0.871,0.066
35.621,-0.475,0.869,0.068
35.631,-0.471,0.869,0.066
35.641,-0.475,0.865,0.064
35.651,-0.473,0.859,0.066
35.661,-0.467,0.859,0.062
35.671,-0.467,0.857,0.064
35.681,-0.469,0.861,0.066
35.691,-0.475,0.867,0.068
35.701,-0.475,0.871,0.066
35.711,-0.477,0.877,0.068
35.721,-0.473,0.871,0.066
35.731,-0.475,0.869,0.066
35.741,-0.469,0.863,0.066
35.751,-0.465,0.869,0.068
35.760,-0.467,0.875,0.068
35.770,-0.469,0.881,0.057
35.780,-0.477,0.875,0.059
35.790,-0.479,0.867,0.062
35.800,-0.475,0.863,0.066
35.810,-0.477,0.861,0.070
35.820,-0.480,0.863,0.070
35.830,-0.484,0.859,0.068
35.840,-0.480,0.855,0.062
35.850,-0.473,0.857,0.061
35.860,-0.471,0.863,0.064
35.870,-0.469,0.863,0.064
35.880,-0.477,0.859,0.064
35.889,-0.473,0.859,0.064
35.899,-0.467,0.863,0.062
35.909,-0.465,0.863,0.066
35.919,-0.469,0.873,0.068
35.929,-0.475,0.871,0.068
35.939,-0.477,0.867,0.068
35.949,-0.469,0.863,0.068
35.959,-0.469,0.861,0.072
35.969,-0.467,0.871,0.072
35.979,-0.471,0.877,0.068
35.989,-0.477,0.871,0.062
35.999,-0.479,0.871,0.064
36.009,-0.473,0.869,0.064
36.019,-0.473,0.865,0.070
36.028,-0.475,0.867,0.072
36.038,-0.473,0.865,0.068
36.048,-0.473,0.863,0.066
36.058,-0.469,0.863,0.066
36.068,-0.469,0.865,0.068
36.078,-0.471,0.865,0.066
36.088,-0.475,0.865,0.066
36.098,-0.479,0.865,0.070
36.108,-0.475,0.865,0.066
36.118,-0.465,0.867,0.070
36.128,-0.467,0.867,0.070
36.138,-0.473,0.865,0.068
36.148,-0.471,0.865,0.068
36.157,-0.469,0.867,0.068
36.167,-0.469,0.865,0.066
36.177,-0.473,0.867,0.066
36.187,-0.480,0.861,0.064
36.197,-0.477,0.867,0.064
36.207,-0.473,0.871,0.068
36.217,-0.477,0.865,0.068
36.227,-0.477,0.867,0.066
36.237,-0.479,0.859,0.066
36.247,-0.473,0.857,0.068
36.257,-0.463,0.859,0.068
36.267,-0.467,0.859,0.072
36.277,-0.471,0.865,0.066
36.287,-0.473,0.867,0.066
36.296,-0.471,0.873,0.064
36.306,-0.471,0.875,0.068
36.316,-0.473,0.859,0.068
36.326,-0.469,0.859,0.074
36.336,-0.463,0.865,0.074
36.346,-0.467,0.871,0.072
36.356,-0.467,0.881,0.066
36.366,-0.471,0.887,0.057
36.376,-0.477,0.883,0.062
36.386,-0.480,0.871,0.066
36.396,-0.471,0.869,0.070
36.406,-0.473,0.861,0.072
36.416,-0.473,0.859,0.066
36.425,-0.475,0.859,0.062
36.435,-0.473,0.855,0.062
36.445,-0.469,0.857,0.062
36.455,-0.465,0.867,0.068
36.465,-0.469,0.865,0.066
36.475,-0.471,0.861,0.068
36.485,-0.467,0.861,0.068
36.495,-0.465,0.863,0.070
36.505,-0.467,0.873,0.070
36.515,-0.477,0.875,0.064
36.525,-0.480,0.869,0.066
36.535,-0.471,0.867,0.068
36.545,-0.461,0.861,0.070
36.555,-0.459,0.859,0.074
36.564,-0.459,0.873,0.074
36.574,-0.469,0.879,0.064
36.584,-0.479,0.879,0.066
36.594,-0.479,0.875,0.068
36.604,-0.471,0.867,0.074
36.614,-0.467,0.865,0.074
36.624,-0.473,0.867,0.074
36.634,-0.475,0.869,0.068
36.644,-0.467,0.865,0.070
36.654,-0.465,0.863,0.070
36.664,-0.465,0.867,0.066
36.674,-0.475,0.869,0.072
36.684,-0.477,0.869,0.070
36.693,-0.473,0.865,0.068
36.703,-0.465,0.863,0.072
36.713,-0.465,0.867,0.068
36.723,-0.469,0.861,0.070
36.733,-0.471,0.867,0.066
36.743,-0.471,0.867,0.068
36.753,-0.475,0.865,0.068
36.763,-0.469,0.867,0.068
36.773,-0.473,0.869,0.070
36.783,-0.469,0.871,0.070
36.793,-0.469,0.867,0.066
36.803,-0.473,0.867,0.064
36.813,-0.477,0.865,0.068
36.823,-0.475,0.863,0.070
36.832,-0.473,0.865,0.070
36.842,-0.473,0.861,0.070
36.852,-0.475,0.863,0.066
36.862,-0.473,0.863,0.068
36.872,-0.471,0.863,0.068
36.882,-0.469,0.867,0.068
36.892,-0.477,0.871,0.068
36.902,-0.477,0.863,0.066
36.912,-0.469,0.863,0.068
36.922,-0.463,0.861,0.068
36.932,-0.465,0.865,0.074
36.942,-0.463,0.873,0.074
36.952,-0.465,0.885,0.066
36.962,-0.477,0.887,0.061
36.971,-0.482,0.877,0.066
36.981,-0.479,0.875,0.068
36.991,-0.477,0.865,0.070
37.001,-0.477,0.859,0.072
37.011,-0.479,0.857,0.072
37.021,-0.477,0.852,0.066
37.031,-0.469,0.855,0.070
37.041,-0.471,0.857,0.066
37.051,-0.471,0.863,0.068
37.061,-0.473,0.867,0.066
37.071,-0.467,0.867,0.064
37.081,-0.467,0.865,0.066
37.091,-0.471,0.867,0.068
37.100,-0.477,0.871,0.066
37.110,-0.480,0.863,0.068
37.120,-0.477,0.857,0.066
37.130,-0.467,0.859,0.072
37.140,-0.465,0.859,0.072
37.150,-0.469,0.875,0.068
37.160,-0.475,0.881,0.062
37.170,-0.484,0.881,0.062
37.180,-0.480,0.869,0.064
37.190,-0.469,0.861,0.068
37.200,-0.465,0.861,0.072
37.210,-0.477,0.859,0.072
37.220,-0.480,0.865,0.066
37.230,-0.477,0.869,0.066
37.239,-0.473,0.869,0.062
37.249,-0.475,0.867,0.068
37.259,-0.475,0.867,0.066
37.269,-0.469,0.865,0.064
37.279,-0.471,0.863,0.062
37.289,-0.471,0.861,0.062
37.299,-0.471,0.863,0.062
37.309,-0.473,0.863,0.064
37.319,-0.475,0.867,0.066
37.329,-0.473,0.867,0.064
37.339,-0.475,0.863,0.061
37.349,-0.471,0.863,0.064
37.359,-0.473,0.865,0.064
37.368,-0.475,0.867,0.068
37.378,-0.475,0.865,0.064
37.388,-0.475,0.873,0.064
37.398,-0.475,0.869,0.066
37.408,-0.475,0.865,0.062
37.418,-0.477,0.863,0.064
37.428,-0.471,0.865,0.068
37.438,-0.475,0.863,0.070
37.448,-0.477,0.865,0.068
37.458,-0.477,0.867,0.062
37.468,-0.479,0.861,0.068
37.478,-0.471,0.861,0.072
37.488,-0.469,0.863,0.070
37.498,-0.475,0.865,0.068
37.507,-0.467,0.869,0.064
37.517,-0.467,0.877,0.068
37.527,-0.473,0.879,0.064
37.537,-0.488,0.877,0.066
37.547,-0.492,0.873,0.064
37.557,-0.488,0.861,0.070
37.567,-0.477,0.859,0.070
37.577,-0.479,0.855,0.068
37.587,-0.479,0.855,0.064
37.597,-0.479,0.859,0.064
37.607,-0.475,0.861,0.066
37.617,-0.475,0.857,0.064
37.627,-0.473,0.859,0.068
37.636,-0.475,0.863,0.068
37.646,-0.475,0.865,0.068
37.656,-0.473,0.865,0.066
37.666,-0.475,0.871,0.066
37.676,-0.479,0.859,0.068
37.686,-0.479,0.859,0.068
37.696,-0.475,0.859,0.066
37.706,-0.471,0.857,0.068
37.716,-0.469,0.871,0.066
37.726,-0.475,0.873,0.064
37.736,-0.482,0.869,0.064
37.746,-0.480,0.865,0.068
37.756,-0.480,0.861,0.070
37.766,-0.473,0.863,0.072
37.775,-0.479,0.863,0.070
37.785,-0.482,0.861,0.064
37.795,-0.479,0.867,0.066
37.805,-0.480,0.863,0.064
37.815,-0.479,0.867,0.070
37.825,-0.479,0.865,0.066
37.835,-0.473,0.863,0.072
37.845,-0.469,0.863,0.066
37.855,-0.473,0.861,0.066
37.865,-0.471,0.865,0.066
37.875,-0.477,0.865,0.066
37.885,-0.477,0.865,0.064
37.895,-0.477,0.867,0.062
37.904,-0.477,0.865,0.068
37.914,-0.477,0.861,0.066
37.924,-0.479,0.863,0.072
37.934,-0.482,0.857,0.066
37.944,-0.482,0.857,0.066
37.954,-0.484,0.859,0.070
37.964,-0.482,0.863,0.072
37.974,-0.484,0.861,0.070
37.984,-0.480,0.865,0.072
37.994,-0.479,0.861,0.068
38.004,-0.479,0.863,0.068
38.014,-0.482,0.859,0.072
38.024,-0.479,0.854,0.072
38.034,-0.475,0.865,0.076
38.043,-0.473,0.865,0.070
38.053,-0.475,0.869,0.068
38.063,-0.469,0.875,0.068
38.073,-0.467,0.879,0.070
38.083,-0.482,0.879,0.064
38.093,-0.500,0.877,0.068
38.103,-0.498,0.863,0.068
38.113,-0.482,0.857,0.070
38.123,-0.479,0.848,0.070
38.133,-0.480,0.854,0.068
38.143,-0.482,0.852,0.066
38.153,-0.486,0.852,0.064
38.163,-0.479,0.857,0.064
38.173,-0.475,0.863,0.068
38.182,-0.484,0.865,0.070
38.192,-0.484,0.863,0.064
38.202,-0.484,0.865,0.064
38.212,-0.479,0.859,0.066
38.222,-0.479,0.863,0.066
38.232,-0.484,0.859,0.061
38.242,-0.486,0.855,0.064
38.252,-0.484,0.855,0.068
38.262,-0.477,0.857,0.066
38.272,-0.477,0.867,0.064
38.282,-0.488,0.865,0.059
38.292,-0.494,0.867,0.064
38.302,-0.484,0.871,0.068
38.311,-0.484,0.857,0.068
38.321,-0.486,0.863,0.064
38.331,-0.486,0.861,0.062
38.341,-0.486,0.855,0.062
38.351,-0.482,0.863,0.061
38.361,-0.482,0.863,0.061
38.371,-0.486,0.857,0.059
38.381,-0.482,0.855,0.062
38.391,-0.480,0.857,0.061
38.401,-0.480,0.855,0.062
38.411,-0.490,0.857,0.061
38.421,-0.486,0.857,0.057
38.431,-0.482,0.857,0.057
38.441,-0.484,0.855,0.059
38.450,-0.484,0.861,0.059
38.460,-0.488,0.859,0.061
38.470,-0.486,0.859,0.057
38.480,-0.482,0.857,0.061
38.490,-0.480,0.855,0.057
38.500,-0.490,0.857,0.061
38.510,-0.488,0.861,0.061
38.520,-0.488,0.857,0.059
38.530,-0.488,0.859,0.059
38.540,-0.490,0.861,0.057
38.550,-0.496,0.854,0.061
38.560,-0.490,0.852,0.064
38.570,-0.488,0.850,0.059
38.579,-0.484,0.854,0.057
38.589,-0.484,0.854,0.059
38.599,-0.486,0.861,0.057
38.609,-0.486,0.877,0.059
38.619,-0.496,0.875,0.059
38.629,-0.502,0.869,0.057
38.639,-0.494,0.863,0.061
38.649,-0.482,0.852,0.059
38.659,-0.488,0.852,0.062
38.669,-0.498,0.857,0.059
38.679,-0.504,0.850,0.057
38.689,-0.496,0.854,0.059
38.699,-0.492,0.846,0.066
38.709,-0.494,0.846,0.068
38.718,-0.498,0.857,0.064
38.728,-0.508,0.855,0.061
38.738,-0.502,0.865,0.061
38.748,-0.498,0.857,0.062
38.758,-0.488,0.863,0.070
38.768,-0.492,0.855,0.068
38.778,-0.484,0.852,0.064
38.788,-0.477,0.863,0.064
38.798,-0.496,0.863,0.057
38.808,-0.486,0.869,0.062
38.818,-0.490,0.869,0.062
38.828,-0.492,0.865,0.059
38.838,-0.484,0.863,0.059
38.847,-0.490,0.855,0.059
38.857,-0.484,0.850,0.059
38.867,-0.480,0.852,0.059
38.877,-0.486,0.848,0.057
38.887,-0.488,0.855,0.061
38.897,-0.486,0.863,0.059
38.907,-0.486,0.865,0.055
38.917,-0.484,0.861,0.057
38.927,-0.482,0.855,0.057
38.937,-0.477,0.848,0.062
38.947,-0.471,0.852,0.066
38.957,-0.477,0.852,0.064
38.967,-0.480,0.859,0.059
38.977,-0.480,0.859,0.059
38.986,-0.477,0.861,0.059
38.996,-0.477,0.871,0.066
39.006,-0.480,0.867,0.061
39.016,-0.480,0.865,0.064
39.026,-0.480,0.857,0.061
39.036,-0.475,0.855,0.068
39.046,-0.473,0.865,0.070
39.056,-0.479,0.863,0.066
39.066,-0.482,0.859,0.059
39.076,-0.480,0.857,0.066
39.086,-0.477,0.854,0.072
39.096,-0.479,0.857,0.068
39.106,-0.479,0.863,0.066
39.116,-0.482,0.871,0.064
39.125,-0.475,0.875,0.061
39.135,-0.475,0.863,0.066
39.145,-0.477,0.877,0.064
39.155,-0.488,0.877,0.062
39.165,-0.492,0.869,0.059
39.175,-0.482,0.863,0.064
39.185,-0.475,0.854,0.061
39.195,-0.480,0.854,0.062
39.205,-0.492,0.855,0.062
39.215,-0.492,0.859,0.061
39.225,-0.490,0.861,0.062
39.235,-0.486,0.855,0.059
39.245,-0.486,0.861,0.066
39.254,-0.486,0.857,0.066
39.264,-0.492,0.859,0.068
39.274,-0.486,0.861,0.061
39.284,-0.482,0.857,0.062
39.294,-0.488,0.842,0.061
39.304,-0.486,0.842,0.062
39.314,-0.479,0.859,0.068
39.324,-0.475,0.867,0.066
39.334,-0.486,0.873,0.064
39.344,-0.492,0.877,0.062
39.354,-0.490,0.873,0.061
39.364,-0.484,0.865,0.062
39.374,-0.479,0.857,0.066
39.384,-0.480,0.855,0.068
39.393,-0.484,0.855,0.066
39.403,-0.486,0.859,0.062
39.413,-0.490,0.865,0.062
39.423,-0.490,0.861,0.061
39.433,-0.484,0.859,0.062
39.443,-0.477,0.855,0.066
39.453,-0.479,0.859,0.068
39.463,-0.482,0.859,0.068
39.473,-0.482,0.863,0.064
39.483,-0.479,0.861,0.061
39.493,-0.477,0.861,0.061
39.503,-0.480,0.857,0.061
39.513,-0.479,0.859,0.064
39.522,-0.479,0.855,0.068
39.532,-0.482,0.863,0.068
39.542,-0.482,0.863,0.062
39.552,-0.480,0.863,0.062
39.562,-0.480,0.852,0.064
39.572,-0.477,0.855,0.066
39.582,-0.479,0.861,0.068
39.592,-0.484,0.861,0.068
39.602,-0.486,0.871,0.064
39.612,-0.488,0.865,0.068
39.622,-0.482,0.855,0.066
39.632,-0.479,0.855,0.068
39.642,-0.480,0.857,0.064
39.652,-0.484,0.861,0.064
39.661,-0.484,0.869,0.066
39.671,-0.475,0.869,0.062
39.681,-0.477,0.869,0.062
39.691,-0.482,0.867,0.064
39.701,-0.494,0.871,0.066
39.711,-0.494,0.867,0.064
39.721,-0.488,0.861,0.066
39.731,-0.484,0.854,0.066
39.741,-0.484,0.855,0.059
39.751,-0.484,0.859,0.061
39.761,-0.480,0.863,0.062
39.771,-0.480,0.859,0.064
39.781,-0.473,0.855,0.066
39.790,-0.475,0.857,0.061
39.800,-0.477,0.861,0.062
39.810,-0.480,0.861,0.059
39.820,-0.490,0.857,0.062
39.830,-0.486,0.857,0.064
39.840,-0.480,0.857,0.064
39.850,-0.477,0.859,0.061
39.860,-0.475,0.869,0.057
39.870,-0.479,0.871,0.055
39.880,-0.490,0.859,0.055
39.890,-0.488,0.857,0.061
39.900,-0.480,0.852,0.068
39.910,-0.477,0.855,0.068
39.920,-0.486,0.857,0.064
39.929,-0.486,0.863,0.057
39.939,-0.479,0.869,0.055
39.949,-0.473,0.867,0.055
39.959,-0.475,0.865,0.055
39.969,-0.480,0.865,0.062
39.979,-0.482,0.867,0.062
39.989,-0.482,0.859,0.059
39.999,-0.479,0.857,0.061
40.009,-0.479,0.857,0.055
40.019,-0.482,0.857,0.061
40.029,-0.480,0.863,0.061
40.039,-0.477,0.865,0.057
40.049,-0.482,0.869,0.059
40.058,-0.482,0.871,0.059
40.068,-0.480,0.865,0.055
40.078,-0.477,0.857,0.059
40.088,-0.475,0.855,0.061
40.098,-0.477,0.855,0.059
40.108,-0.479,0.857,0.059
40.118,-0.477,0.867,0.059
40.128,-0.482,0.867,0.059
40.138,-0.484,0.869,0.061
40.148,-0.484,0.861,0.062
40.158,-0.479,0.848,0.064
40.168,-0.477,0.857,0.064
40.178,-0.480,0.863,0.061
40.188,-0.482,0.865,0.062
40.197,-0.475,0.877,0.061
40.207,-0.475,0.879,0.057
40.217,-0.488,0.873,0.055
40.227,-0.494,0.873,0.057
40.237,-0.496,0.859,0.057
40.247,-0.488,0.857,0.064
40.257,-0.486,0.857,0.064
40.267,-0.486,0.852,0.059
40.277,-0.486,0.854,0.061
40.287,-0.480,0.859,0.059
40.297,-0.479,0.857,0.059
40.307,-0.477,0.863,0.059
40.317,-0.475,0.861,0.059
40.327,-0.475,0.863,0.059
40.336,-0.479,0.873,0.059
40.346,-0.482,0.865,0.057
40.356,-0.484,0.852,0.055
40.366,-0.475,0.852,0.062
40.376,-0.475,0.850,0.062
40.386,-0.469,0.861,0.068
40.396,-0.479,0.871,0.061
40.406,-0.486,0.875,0.062
40.416,-0.492,0.871,0.059
40.426,-0.482,0.867,0.064
40.436,-0.482,0.869,0.064
40.446,-0.480,0.865,0.062
40.456,-0.482,0.857,0.062
40.465,-0.484,0.854,0.062
40.475,-0.475,0.857,0.061
40.485,-0.475,0.859,0.064
40.495,-0.477,0.865,0.064
40.505,-0.480,0.869,0.061
40.515,-0.479,0.865,0.055
40.525,-0.475,0.865,0.059
40.535,-0.475,0.865,0.061
40.545,-0.477,0.863,0.061
40.555,-0.480,0.857,0.061
40.565,-0.479,0.861,0.061
40.575,-0.479,0.861,0.061
40.585,-0.480,0.861,0.062
40.595,-0.482,0.857,0.061
40.604,-0.480,0.857,0.061
40.614,-0.479,0.865,0.066
40.624,-0.479,0.859,0.062
40.634,-0.477,0.861,0.062
40.644,-0.475,0.867,0.061
40.654,-0.477,0.867,0.061
40.664,-0.480,0.869,0.061
40.674,-0.482,0.865,0.062
40.684,-0.480,0.855,0.064
40.694,-0.475,0.855,0.066
40.704,-0.479,0.859,0.068
40.714,-0.477,0.863,0.064
40.724,-0.477,0.879,0.061
40.733,-0.477,0.879,0.057
40.743,-0.484,0.875,0.053
40.753,-0.486,0.867,0.059
40.763,-0.486,0.869,0.068
40.773,-0.484,0.863,0.068
40.783,-0.490,0.857,0.061
40.793,-0.486,0.854,0.059
40.803,-0.477,0.854,0.059
40.813,-0.475,0.855,0.059
40.823,-0.479,0.859,0.059
40.833,-0.482,0.861,0.062
40.843,-0.477,0.867,0.061
40.853,-0.479,0.859,0.061
40.863,-0.477,0.865,0.061
40.872,-0.480,0.869,0.062
40.882,-0.488,0.861,0.061
40.892,-0.482,0.865,0.061
40.902,-0.479,0.859,0.066
40.912,-0.471,0.854,0.062
40.922,-0.467,0.869,0.066
40.932,-0.479,0.873,0.057
40.942,-0.486,0.875,0.057
40.952,-0.488,0.869,0.059
40.962,-0.480,0.863,0.061
40.972,-0.479,0.857,0.062
40.982,-0.486,0.854,0.064
40.992,-0.488,0.854,0.068
41.001,-0.484,0.861,0.064
41.011,-0.482,0.865,0.062
41.021,-0.480,0.869,0.061
41.031,-0.482,0.869,0.061
41.041,-0.482,0.871,0.062
41.051,-0.482,0.867,0.061
41.061,-0.477,0.865,0.061
41.071,-0.479,0.859,0.061
41.081,-0.477,0.857,0.062
41.091,-0.479,0.861,0.059
41.101,-0.480,0.857,0.066
41.111,-0.477,0.859,0.061
41.121,-0.480,0.857,0.061
41.131,-0.480,0.861,0.059
41.140,-0.480,0.857,0.059
41.150,-0.477,0.854,0.061
41.160,-0.475,0.854,0.066
41.170,-0.477,0.852,0.064
41.180,-0.482,0.863,0.064
41.190,-0.486,0.871,0.064
41.200,-0.486,0.875,0.062
41.210,-0.482,0.865,0.066
41.220,-0.475,0.861,0.068
41.230,-0.473,0.863,0.070
41.240,-0.475,0.863,0.068
41.250,-0.477,0.879,0.064
41.260,-0.479,0.879,0.059
41.269,-0.482,0.873,0.061
41.279,-0.479,0.867,0.066
41.289,-0.477,0.859,0.070
41.299,-0.475,0.859,0.070
41.309,-0.480,0.859,0.066
41.319,-0.480,0.859,0.059
41.329,-0.480,0.861,0.059
41.339,-0.479,0.859,0.062
41.349,-0.479,0.859,0.064
41.359,-0.479,0.861,0.064
41.369,-0.482,0.859,0.068
41.379,-0.479,0.861,0.066
41.389,-0.479,0.857,0.066
41.399,-0.475,0.863,0.064
41.408,-0.480,0.867,0.064
41.418,-0.484,0.861,0.064
41.428,-0.477,0.859,0.068
41.438,-0.475,0.857,0.062
41.448,-0.475,0.855,0.066
41.458,-0.473,0.867,0.064
41.468,-0.479,0.869,0.062
41.478,-0.486,0.867,0.059
41.488,-0.480,0.867,0.064
41.498,-0.475,0.861,0.066
41.508,-0.473,0.861,0.066
41.518,-0.479,0.865,0.068
41.528,-0.482,0.867,0.068
41.538,-0.482,0.867,0.061
41.547,-0.480,0.867,0.064
41.557,-0.479,0.867,0.064
41.567,-0.482,0.867,0.068
41.577,-0.479,0.863,0.062
41.587,-0.475,0.865,0.068
41.597,-0.475,0.861,0.066
41.607,-0.477,0.859,0.072
41.617,-0.473,0.861,0.064
41.627,-0.475,0.863,0.066
41.637,-0.477,0.865,0.070
41.647,-0.477,0.867,0.070
41.657,-0.477,0.867,0.066
41.667,-0.477,0.869,0.066
41.676,-0.477,0.865,0.068
41.686,-0.471,0.857,0.066
41.696,-0.475,0.859,0.066
41.706,-0.475,0.863,0.068
41.716,-0.480,0.863,0.072
41.726,-0.484,0.867,0.068
41.736,-0.480,0.871,0.068
41.746,-0.479,0.863,0.070
41.756,-0.471,0.861,0.074
41.766,-0.469,0.861,0.074
41.776,-0.473,0.871,0.074
41.786,-0.473,0.881,0.068
41.796,-0.479,0.879,0.062
41.806,-0.477,0.871,0.059
41.815,-0.477,0.863,0.070
41.825,-0.479,0.863,0.078
41.835,-0.486,0.865,0.078
41.845,-0.494,0.863,0.070
41.855,-0.490,0.863,0.064
41.865,-0.482,0.861,0.062
41.875,-0.477,0.859,0.066
41.885,-0.477,0.857,0.070
41.895,-0.477,0.855,0.070
41.905,-0.473,0.857,0.068
41.915,-0.469,0.854,0.064
41.925,-0.473,0.859,0.068
41.935,-0.475,0.867,0.066
41.944,-0.482,0.869,0.068
41.954,-0.488,0.863,0.068
41.964,-0.477,0.861,0.070
41.974,-0.469,0.854,0.070
41.984,-0.469,0.863,0.074
41.994,-0.471,0.875,0.070
42.004,-0.480,0.875,0.062
42.014,-0.484,0.871,0.061
42.024,-0.477,0.869,0.064
42.034,-0.471,0.865,0.066
42.044,-0.479,0.863,0.070
42.054,-0.482,0.865,0.070
42.064,-0.488,0.863,0.068
42.074,-0.479,0.859,0.061
42.083,-0.475,0.863,0.066
42.093,-0.477,0.861,0.070
42.103,-0.480,0.867,0.068
42.113,-0.480,0.861,0.068
42.123,-0.480,0.865,0.064
42.133,-0.475,0.861,0.066
42.143,-0.479,0.863,0.068
42.153,-0.480,0.861,0.068
42.163,-0.480,0.859,0.068
42.173,-0.479,0.865,0.068
42.183,-0.477,0.863,0.066
42.193,-0.479,0.863,0.066
42.203,-0.480,0.861,0.068
42.212,-0.480,0.859,0.064
42.222,-0.479,0.854,0.066
42.232,-0.479,0.855,0.070
42.242,-0.480,0.857,0.072
42.252,-0.482,0.863,0.074
42.262,-0.482,0.873,0.070
42.272,-0.482,0.871,0.064
42.282,-0.479,0.863,0.064
42.292,-0.477,0.859,0.070
42.302,-0.471,0.855,0.076
42.312,-0.471,0.865,0.076
42.322,-0.477,0.875,0.070
42.332,-0.484,0.875,0.061
42.342,-0.484,0.871,0.059
42.351,-0.480,0.867,0.066
42.361,-0.479,0.863,0.070
42.371,-0.480,0.863,0.070
42.381,-0.482,0.859,0.070
42.391,-0.480,0.854,0.068
42.401,-0.473,0.852,0.068
42.411,-0.475,0.855,0.070
42.421,-0.480,0.859,0.070
42.431,-0.486,0.861,0.066
42.441,-0.482,0.861,0.064
42.451,-0.477,0.857,0.066
42.461,-0.471,0.857,0.068
42.471,-0.473,0.867,0.072
42.481,-0.480,0.861,0.070
42.490,-0.482,0.865,0.072
42.500,-0.473,0.869,0.072
42.510,-0.473,0.859,0.074
42.520,-0.471,0.869,0.072
42.530,-0.473,0.875,0.068
42.540,-0.484,0.873,0.066
42.550,-0.484,0.869,0.068
42.560,-0.479,0.861,0.070
42.570,-0.475,0.861,0.074
42.580,-0.475,0.863,0.074
42.590,-0.479,0.861,0.072
42.600,-0.475,0.869,0.070
42.610,-0.473,0.863,0.072
42.619,-0.477,0.865,0.070
42.629,-0.473,0.865,0.068
42.639,-0.480,0.863,0.070
42.649,-0.480,0.863,0.072
42.659,-0.480,0.861,0.072
42.669,-0.477,0.857,0.074
42.679,-0.480,0.861,0.076
42.689,-0.479,0.863,0.072
42.699,-0.482,0.867,0.068
42.709,-0.480,0.867,0.072
42.719,-0.479,0.869,0.068
42.729,-0.479,0.867,0.068
42.739,-0.480,0.863,0.066
42.749,-0.480,0.859,0.070
42.758,-0.480,0.857,0.070
42.768,-0.477,0.854,0.072
42.778,-0.475,0.857,0.072
42.788,-0.482,0.863,0.070
42.798,-0.484,0.867,0.068
42.808,-0.488,0.863,0.064
42.818,-0.484,0.857,0.068
42.828,-0.479,0.854,0.070
42.838,-0.473,0.857,0.074
42.848,-0.480,0.865,0.072
42.858,-0.480,0.879,0.070
42.868,-0.482,0.881,0.068
42.878,-0.484,0.877,0.059
42.887,-0.490,0.873,0.066
42.897,-0.490,0.865,0.066
42.907,-0.488,0.863,0.068
42.917,-0.486,0.857,0.072
42.927,-0.486,0.848,0.068
42.937,-0.480,0.852,0.068
42.947,-0.477,0.852,0.066
42.957,-0.480,0.857,0.066
42.967,-0.482,0.861,0.066
42.977,-0.484,0.857,0.064
42.987,-0.477,0.857,0.070
42.997,-0.477,0.861,0.068
43.007,-0.480,0.867,0.066
43.017,-0.490,0.867,0.064
43.026,-0.494,0.855,0.068
43.036,-0.479,0.857,0.068
43.046,-0.475,0.850,0.074
43.056,-0.475,0.861,0.070
43.066,-0.480,0.877,0.064
43.076,-0.492,0.871,0.057
43.086,-0.492,0.871,0.061
43.096,-0.484,0.859,0.066
43.106,-0.479,0.852,0.072
43.116,-0.480,0.859,0.072
43.126,-0.488,0.861,0.068
43.136,-0.490,0.865,0.064
43.146,-0.484,0.859,0.064
43.155,-0.480,0.863,0.064
43.165,-0.484,0.861,0.066
43.175,-0.484,0.859,0.072
43.185,-0.482,0.859,0.070
43.195,-0.482,0.857,0.068
43.205,-0.484,0.859,0.068
43.215,-0.486,0.861,0.068
43.225,-0.484,0.863,0.066
43.235,-0.484,0.867,0.068
43.245,-0.480,0.863,0.066
43.255,-0.480,0.865,0.066
43.265,-0.482,0.863,0.066
43.275,-0.484,0.861,0.070
43.285,-0.484,0.857,0.066
43.294,-0.484,0.854,0.066
43.304,-0.482,0.850,0.070
43.314,-0.482,0.855,0.068
43.324,-0.488,0.857,0.068
43.334,-0.496,0.867,0.066
43.344,-0.494,0.867,0.066
43.354,-0.494,0.857,0.068
43.364,-0.484,0.852,0.072
43.374,-0.484,0.855,0.068
43.384,-0.488,0.854,0.072
43.394,-0.482,0.867,0.068
43.404,-0.475,0.881,0.066
43.414,-0.484,0.885,0.057
43.423,-0.502,0.877,0.061
43.433,-0.498,0.863,0.064
43.443,-0.490,0.855,0.066
43.453,-0.486,0.848,0.072
43.463,-0.488,0.850,0.070
43.473,-0.490,0.850,0.066
43.483,-0.492,0.855,0.062
43.493,-0.490,0.852,0.061
43.503,-0.480,0.857,0.066
43.513,-0.482,0.857,0.064
43.523,-0.488,0.859,0.068
43.533,-0.490,0.863,0.062
43.543,-0.486,0.863,0.061
43.553,-0.494,0.865,0.055
43.562,-0.492,0.852,0.061
43.572,-0.486,0.848,0.062
43.582,-0.482,0.844,0.062
43.592,-0.479,0.838,0.062
43.602,-0.477,0.854,0.062
43.612,-0.482,0.861,0.061
43.622,-0.496,0.861,0.059
43.632,-0.500,0.865,0.064
43.642,-0.494,0.861,0.068
43.652,-0.492,0.861,0.072
43.662,-0.496,0.863,0.070
43.672,-0.494,0.861,0.068
43.682,-0.492,0.867,0.068
43.692,-0.496,0.861,0.070
43.701,-0.492,0.863,0.072
43.711,-0.492,0.859,0.076
43.721,-0.490,0.854,0.076
43.731,-0.484,0.859,0.076
43.741,-0.486,0.857,0.078
43.751,-0.492,0.863,0.076
43.761,-0.492,0.863,0.072
43.771,-0.490,0.859,0.070
43.781,-0.486,0.857,0.070
43.791,-0.486,0.857,0.070
43.801,-0.486,0.861,0.068
43.811,-0.488,0.855,0.068
43.821,-0.488,0.852,0.068
43.830,-0.488,0.846,0.070
43.840,-0.484,0.848,0.074
43.850,-0.486,0.854,0.070
43.860,-0.496,0.854,0.066
43.870,-0.498,0.857,0.070
43.880,-0.492,0.859,0.070
43.890,-0.492,0.850,0.076
43.900,-0.490,0.852,0.074
43.910,-0.490,0.855,0.080
43.920,-0.492,0.861,0.076
43.930,-0.486,0.871,0.074
43.940,-0.482,0.881,0.072
43.950,-0.494,0.877,0.074
43.960,-0.504,0.875,0.072
43.969,-0.504,0.865,0.076
43.979,-0.492,0.852,0.076
43.989,-0.488,0.846,0.076
43.999,-0.492,0.850,0.076
44.009,-0.492,0.852,0.072
44.019,-0.492,0.854,0.066
44.029,-0.490,0.852,0.068
44.039,-0.482,0.852,0.070
44.049,-0.482,0.854,0.072
44.059,-0.492,0.854,0.072
44.069,-0.494,0.857,0.074
44.079,-0.490,0.859,0.068
44.089,-0.494,0.861,0.064
44.098,-0.498,0.855,0.064
44.108,-0.496,0.848,0.070
44.118,-0.490,0.854,0.074
44.128,-0.484,0.852,0.072
44.138,-0.486,0.861,0.070
44.148,-0.498,0.861,0.068
44.158,-0.502,0.859,0.062
44.168,-0.496,0.857,0.070
44.178,-0.492,0.857,0.068
44.188,-0.490,0.855,0.072
44.198,-0.494,0.857,0.068
44.208,-0.496,0.861,0.064
44.218,-0.496,0.857,0.062
44.228,-0.492,0.857,0.064
44.237,-0.488,0.855,0.066
44.247,-0.492,0.855,0.070
44.257,-0.492,0.854,0.066
44.267,-0.490,0.848,0.066
44.277,-0.494,0.850,0.066
44.287,-0.496,0.846,0.068
44.297,-0.500,0.850,0.070
44.307,-0.498,0.854,0.066
44.317,-0.502,0.857,0.066
44.327,-0.500,0.859,0.064
44.337,-0.498,0.859,0.064
44.347,-0.498,0.857,0.068
44.357,-0.492,0.854,0.068
44.366,-0.492,0.854,0.068
44.376,-0.492,0.855,0.068
44.386,-0.490,0.855,0.064
44.396,-0.492,0.855,0.068
44.406,-0.490,0.852,0.064
44.416,-0.492,0.844,0.066
44.426,-0.490,0.844,0.076
44.436,-0.490,0.852,0.074
44.446,-0.488,0.854,0.068
44.456,-0.484,0.865,0.070
44.466,-0.484,0.875,0.068
44.476,-0.502,0.873,0.066
44.486,-0.508,0.873,0.068
44.496,-0.504,0.865,0.072
44.505,-0.492,0.852,0.074
44.515,-0.490,0.844,0.070
44.525,-0.492,0.844,0.068
44.535,-0.496,0.846,0.066
44.545,-0.494,0.848,0.066
44.555,-0.486,0.848,0.072
44.565,-0.488,0.852,0.076
44.575,-0.494,0.852,0.074
44.585,-0.498,0.854,0.072
44.595,-0.496,0.855,0.068
44.605,-0.490,0.859,0.072
44.615,-0.492,0.867,0.068
44.625,-0.500,0.863,0.066
44.634,-0.504,0.854,0.066
44.644,-0.496,0.850,0.068
44.654,-0.492,0.846,0.068
44.664,-0.488,0.850,0.072
44.674,-0.494,0.863,0.072
44.684,-0.504,0.863,0.066
44.694,-0.504,0.855,0.064
44.704,-0.492,0.855,0.066
44.714,-0.486,0.854,0.072
44.724,-0.498,0.859,0.068
44.734,-0.500,0.859,0.064
44.744,-0.500,0.855,0.070
44.754,-0.492,0.857,0.064
44.764,-0.484,0.852,0.068
44.773,-0.488,0.854,0.066
44.783,-0.490,0.852,0.070
44.793,-0.488,0.855,0.068
44.803,-0.490,0.852,0.066
44.813,-0.490,0.854,0.070
44.823,-0.492,0.855,0.066
44.833,-0.492,0.855,0.068
44.843,-0.494,0.859,0.070
44.853,-0.496,0.861,0.070
44.863,-0.490,0.863,0.066
44.873,-0.490,0.855,0.068
44.883,-0.490,0.855,0.066
44.893,-0.492,0.854,0.068
44.903,-0.488,0.854,0.072
44.912,-0.486,0.857,0.070
44.922,-0.496,0.859,0.066
44.932,-0.496,0.863,0.070
44.942,-0.494,0.855,0.068
44.952,-0.492,0.846,0.072
44.962,-0.484,0.850,0.076
44.972,-0.490,0.859,0.078
44.982,-0.490,0.867,0.072
44.992,-0.486,0.883,0.068
45.002,-0.494,0.879,0.062
45.012,-0.496,0.869,0.064
45.022,-0.500,0.857,0.072
45.032,-0.494,0.852,0.078
45.041,-0.488,0.850,0.076
45.051,-0.494,0.844,0.072
45.061,-0.496,0.844,0.066
45.071,-0.490,0.846,0.066
45.081,-0.488,0.848,0.066
45.091,-0.492,0.852,0.070
45.101,-0.494,0.857,0.068
45.111,-0.492,0.855,0.068
45.121,-0.486,0.854,0.066
45.131,-0.490,0.857,0.066
45.141,-0.492,0.865,0.070
45.151,-0.494,0.865,0.066
45.161,-0.496,0.861,0.068
45.171,-0.490,0.854,0.070
45.180,-0.490,0.850,0.072
45.190,-0.486,0.854,0.066
45.200,-0.484,0.861,0.062
45.210,-0.498,0.859,0.062
45.220,-0.498,0.854,0.064
45.230,-0.494,0.859,0.068
45.240,-0.490,0.857,0.070
45.250,-0.494,0.857,0.074
45.260,-0.498,0.857,0.064
45.270,-0.494,0.865,0.066
45.280,-0.490,0.859,0.061
45.290,-0.490,0.857,0.064
45.300,-0.488,0.855,0.066
45.309,-0.488,0.852,0.070
45.319,-0.486,0.854,0.070
45.329,-0.486,0.854,0.068
45.339,-0.488,0.857,0.064
45.349,-0.488,0.861,0.066
45.359,-0.492,0.861,0.068
45.369,-0.490,0.857,0.064
45.379,-0.488,0.855,0.066
45.389,-0.486,0.855,0.068
45.399,-0.490,0.859,0.066
45.409,-0.492,0.857,0.068
45.419,-0.488,0.855,0.066
45.429,-0.484,0.855,0.064
45.439,-0.488,0.857,0.064
45.448,-0.490,0.855,0.070
45.458,-0.492,0.863,0.072
45.468,-0.490,0.863,0.068
45.478,-0.492,0.859,0.068
45.488,-0.488,0.855,0.066
45.498,-0.486,0.848,0.072
45.508,-0.484,0.855,0.070
45.518,-0.484,0.863,0.076
45.528,-0.480,0.875,0.070
45.538,-0.482,0.879,0.062
45.548,-0.494,0.873,0.061
45.558,-0.496,0.865,0.066
45.568,-0.496,0.854,0.074
45.577,-0.492,0.857,0.074
45.587,-0.494,0.852,0.070
45.597,-0.498,0.852,0.066
45.607,-0.496,0.852,0.057
45.617,-0.492,0.850,0.064
45.627,-0.486,0.852,0.070
45.637,-0.486,0.854,0.070
45.647,-0.492,0.855,0.068
45.657,-0.494,0.855,0.064
45.667,-0.488,0.859,0.064
45.677,-0.486,0.859,0.066
45.687,-0.492,0.867,0.066
45.697,-0.498,0.865,0.068
45.707,-0.498,0.855,0.062
45.716,-0.494,0.855,0.066
45.726,-0.490,0.850,0.070
45.736,-0.484,0.854,0.068
45.746,-0.484,0.861,0.066
45.756,-0.492,0.863,0.059
45.766,-0.494,0.861,0.059
45.776,-0.490,0.855,0.064
45.786,-0.486,0.855,0.068
45.796,-0.494,0.857,0.068
45.806,-0.496,0.857,0.068
45.816,-0.498,0.861,0.062
45.826,-0.490,0.865,0.064
45.836,-0.490,0.859,0.061
45.846,-0.490,0.857,0.064
45.855,-0.486,0.854,0.062
45.865,-0.486,0.855,0.062
45.875,-0.486,0.854,0.066
45.885,-0.486,0.861,0.064
45.895,-0.486,0.859,0.062
45.905,-0.490,0.855,0.062
45.915,-0.488,0.859,0.068
45.925,-0.490,0.855,0.066
45.935,-0.492,0.857,0.059
45.945,-0.494,0.855,0.062
45.955,-0.492,0.852,0.061
45.965,-0.488,0.854,0.070
45.975,-0.488,0.854,0.066
45.984,-0.488,0.857,0.064
45.994,-0.490,0.861,0.064
46.004,-0.488,0.859,0.062
46.014,-0.484,0.859,0.062
46.024,-0.490,0.863,0.064
46.034,-0.492,0.869,0.070
46.044,-0.492,0.861,0.064
46.054,-0.488,0.855,0.068
46.064,-0.484,0.852,0.066
46.074,-0.482,0.852,0.076
46.084,-0.480,0.861,0.074
46.094,-0.484,0.871,0.066
46.104,-0.490,0.875,0.061
46.114,-0.498,0.869,0.057
46.123,-0.498,0.863,0.064
46.133,-0.494,0.861,0.072
46.143,-0.494,0.859,0.072
46.153,-0.496,0.854,0.068
46.163,-0.496,0.854,0.062
46.173,-0.492,0.855,0.064
46.183,-0.486,0.855,0.059
46.193,-0.488,0.852,0.066
46.203,-0.490,0.850,0.066
46.213,-0.486,0.850,0.068
46.223,-0.484,0.852,0.068
46.233,-0.488,0.854,0.068
46.243,-0.486,0.855,0.066
46.252,-0.486,0.865,0.068
46.262,-0.490,0.861,0.061
46.272,-0.488,0.854,0.061
46.282,-0.482,0.854,0.064
46.292,-0.480,0.850,0.068
46.302,-0.473,0.859,0.068
46.312,-0.486,0.865,0.062
46.322,-0.496,0.867,0.061
46.332,-0.496,0.859,0.061
46.342,-0.486,0.857,0.066
46.352,-0.484,0.855,0.070
46.362,-0.488,0.857,0.074
46.372,-0.496,0.861,0.070
46.382,-0.492,0.863,0.066
46.391,-0.486,0.859,0.062
46.401,-0.482,0.861,0.062
46.411,-0.486,0.863,0.068
46.421,-0.490,0.863,0.070
46.431,-0.486,0.863,0.070
46.441,-0.486,0.859,0.062
46.451,-0.482,0.859,0.064
46.461,-0.482,0.859,0.066
46.471,-0.484,0.857,0.064
46.481,-0.490,0.863,0.066
46.491,-0.488,0.859,0.068
46.501,-0.492,0.859,0.066
46.511,-0.492,0.859,0.062
46.520,-0.488,0.861,0.061
46.530,-0.490,0.857,0.064
46.540,-0.488,0.855,0.062
46.550,-0.486,0.859,0.066
46.560,-0.484,0.859,0.068
46.570,-0.486,0.861,0.062
46.580,-0.484,0.859,0.064
46.590,-0.480,0.857,0.066
46.600,-0.482,0.859,0.068
46.610,-0.484,0.861,0.066
46.620,-0.488,0.859,0.068
46.630,-0.486,0.863,0.066
46.640,-0.484,0.857,0.068
46.650,-0.479,0.854,0.068
46.659,-0.477,0.855,0.074
46.669,-0.477,0.863,0.076
46.679,-0.479,0.873,0.066
46.689,-0.484,0.879,0.062
46.699,-0.490,0.873,0.059
46.709,-0.490,0.867,0.062
46.719,-0.488,0.863,0.068
46.729,-0.490,0.859,0.076
46.739,-0.490,0.861,0.072
46.749,-0.492,0.854,0.064
46.759,-0.486,0.855,0.061
46.769,-0.480,0.855,0.064
46.779,-0.482,0.854,0.062
46.788,-0.482,0.854,0.068
46.798,-0.484,0.854,0.072
46.808,-0.480,0.859,0.066
46.818,-0.479,0.861,0.066
46.828,-0.479,0.863,0.064
46.838,-0.482,0.867,0.064
46.848,-0.486,0.865,0.062
46.858,-0.492,0.863,0.062
46.868,-0.482,0.859,0.070
46.878,-0.482,0.854,0.070
46.888,-0.479,0.857,0.072
46.898,-0.477,0.865,0.068
46.908,-0.486,0.865,0.061
46.918,-0.486,0.869,0.061
46.927,-0.486,0.871,0.066
46.937,-0.486,0.867,0.064
46.947,-0.488,0.863,0.064
46.957,-0.486,0.861,0.066
46.967,-0.482,0.861,0.061
46.977,-0.484,0.861,0.062
46.987,-0.484,0.859,0.064
46.997,-0.486,0.861,0.062
47.007,-0.488,0.859,0.061
47.017,-0.480,0.855,0.064
47.027,-0.479,0.854,0.061
47.037,-0.480,0.855,0.062
47.047,-0.482,0.861,0.061
47.057,-0.484,0.865,0.064
47.066,-0.480,0.863,0.061
47.076,-0.479,0.865,0.061
47.086,-0.480,0.861,0.057
47.096,-0.480,0.859,0.062
47.106,-0.482,0.861,0.059
47.116,-0.486,0.861,0.059
47.126,-0.482,0.863,0.057
47.136,-0.484,0.861,0.055
47.146,-0.484,0.859,0.057
47.156,-0.480,0.865,0.059
47.166,-0.486,0.859,0.061
47.176,-0.484,0.861,0.059
47.186,-0.482,0.859,0.055
47.195,-0.486,0.855,0.055
47.205,-0.480,0.855,0.057
47.215,-0.477,0.855,0.062
47.225,-0.479,0.859,0.059
47.235,-0.480,0.869,0.061
47.245,-0.484,0.865,0.059
47.255,-0.479,0.863,0.055
47.265,-0.477,0.859,0.059
47.275,-0.473,0.865,0.061
47.285,-0.473,0.869,0.061
47.295,-0.475,0.873,0.057
47.305,-0.484,0.875,0.053
47.315,-0.482,0.871,0.049
47.325,-0.484,0.865,0.057
47.334,-0.486,0.865,0.064
47.344,-0.486,0.863,0.066
47.354,-0.486,0.857,0.061
47.364,-0.482,0.855,0.057
47.374,-0.479,0.855,0.055
47.384,-0.479,0.857,0.053
47.394,-0.482,0.857,0.055
47.404,-0.482,0.855,0.057
47.414,-0.479,0.857,0.059
47.424,-0.475,0.854,0.059
47.434,-0.477,0.859,0.057
47.444,-0.480,0.863,0.062
47.454,-0.484,0.871,0.059
47.463,-0.482,0.865,0.057
47.473,-0.479,0.865,0.057
47.483,-0.477,0.857,0.059
47.493,-0.477,0.859,0.062
47.503,-0.477,0.863,0.062
47.513,-0.480,0.871,0.057
47.523,-0.484,0.869,0.057
47.533,-0.484,0.871,0.055
47.543,-0.482,0.869,0.061
47.553,-0.480,0.863,0.061
47.563,-0.480,0.859,0.062
47.573,-0.480,0.861,0.061
47.583,-0.475,0.859,0.059
47.593,-0.477,0.859,0.055
47.602,-0.480,0.861,0.057
47.612,-0.482,0.863,0.057
47.622,-0.479,0.863,0.057
47.632,-0.479,0.863,0.055
47.642,-0.475,0.861,0.061
47.652,-0.479,0.863,0.062
47.662,-0.480,0.865,0.057
47.672,-0.484,0.863,0.062
47.682,-0.479,0.865,0.057
47.692,-0.473,0.865,0.057
47.702,-0.475,0.863,0.057
47.712,-0.477,0.867,0.059
47.722,-0.480,0.867,0.057
47.731,-0.482,0.863,0.055
47.741,-0.479,0.863,0.057
47.751,-0.477,0.859,0.055
47.761,-0.479,0.863,0.062
47.771,-0.480,0.861,0.059
47.781,-0.477,0.865,0.059
47.791,-0.480,0.865,0.059
47.801,-0.479,0.861,0.053
47.811,-0.475,0.861,0.057
47.821,-0.471,0.857,0.057
47.831,-0.471,0.861,0.062
47.841,-0.475,0.865,0.059
47.851,-0.479,0.873,0.062
47.861,-0.480,0.875,0.059
47.870,-0.479,0.865,0.059
47.880,-0.477,0.859,0.059
47.890,-0.473,0.859,0.062
47.900,-0.471,0.863,0.064
47.910,-0.473,0.873,0.062
47.920,-0.479,0.877,0.059
47.930,-0.482,0.879,0.051
47.940,-0.482,0.873,0.055
47.950,-0.479,0.865,0.061
47.960,-0.480,0.867,0.062
47.970,-0.484,0.861,0.057
47.980,-0.484,0.859,0.057
47.990,-0.477,0.855,0.053
47.999,-0.475,0.857,0.055
48.009,-0.477,0.855,0.053
48.019,-0.479,0.857,0.059
48.029,-0.477,0.857,0.059
48.039,-0.479,0.855,0.061
48.049,-0.475,0.859,0.061
48.059,-0.471,0.863,0.062
48.069,-0.479,0.869,0.059
48.079,-0.482,0.875,0.059
48.089,-0.484,0.865,0.057
48.099,-0.473,0.863,0.061
48.109,-0.473,0.859,0.062
48.119,-0.473,0.861,0.062
48.129,-0.471,0.869,0.066
48.138,-0.479,0.873,0.061
48.148,-0.479,0.869,0.053
48.158,-0.479,0.867,0.059
48.168,-0.479,0.863,0.061
48.178,-0.479,0.871,0.062
48.188,-0.482,0.863,0.057
48.198,-0.480,0.861,0.059
48.208,-0.479,0.859,0.057
48.218,-0.479,0.861,0.061
48.228,-0.479,0.863,0.057
48.238,-0.480,0.863,0.059
48.248,-0.479,0.865,0.057
48.258,-0.475,0.861,0.055
48.268,-0.473,0.863,0.059
48.277,-0.477,0.863,0.059
48.287,-0.482,0.863,0.059
48.297,-0.480,0.865,0.062
48.307,-0.475,0.863,0.059
48.317,-0.479,0.863,0.059
48.327,-0.479,0.863,0.059
48.337,-0.479,0.867,0.061
48.347,-0.482,0.867,0.057
48.357,-0.482,0.867,0.057
48.367,-0.480,0.867,0.061
48.377,-0.479,0.861,0.059
48.387,-0.477,0.863,0.057
48.397,-0.479,0.863,0.057
48.406,-0.479,0.861,0.059
48.416,-0.479,0.863,0.059
48.426,-0.477,0.863,0.055
48.436,-0.471,0.859,0.057
48.446,-0.467,0.857,0.059
48.456,-0.465,0.865,0.059
48.466,-0.475,0.867,0.059
48.476,-0.480,0.873,0.059
48.486,-0.482,0.871,0.059
48.496,-0.480,0.869,0.057
48.506,-0.479,0.861,0.057
48.516,-0.477,0.854,0.061
48.526,-0.469,0.863,0.062
48.536,-0.465,0.869,0.062
48.545,-0.473,0.877,0.055
48.555,-0.482,0.881,0.055
48.565,-0.488,0.877,0.055
48.575,-0.484,0.873,0.057
48.585,-0.480,0.867,0.059
48.595,-0.484,0.857,0.059
48.605,-0.480,0.852,0.059
48.615,-0.480,0.848,0.057
48.625,-0.475,0.857,0.055
48.635,-0.477,0.857,0.059
48.645,-0.482,0.855,0.059
48.655,-0.480,0.857,0.057
48.665,-0.473,0.861,0.061
48.674,-0.477,0.861,0.061
48.684,-0.479,0.869,0.059
48.694,-0.484,0.875,0.061
48.704,-0.486,0.871,0.057
48.714,-0.480,0.857,0.061
48.724,-0.471,0.855,0.062
48.734,-0.475,0.852,0.064
48.744,-0.479,0.865,0.062
48.754,-0.482,0.871,0.059
48.764,-0.486,0.873,0.057
48.774,-0.486,0.869,0.053
48.784,-0.479,0.867,0.061
48.794,-0.475,0.861,0.061
48.804,-0.477,0.863,0.062
48.813,-0.484,0.865,0.062
48.823,-0.486,0.861,0.059
48.833,-0.479,0.863,0.055
48.843,-0.477,0.861,0.059
48.853,-0.479,0.859,0.059
48.863,-0.479,0.859,0.059
48.873,-0.477,0.859,0.061
48.883,-0.477,0.859,0.059
48.893,-0.475,0.859,0.061
48.903,-0.475,0.859,0.064
48.913,-0.473,0.865,0.061
48.923,-0.477,0.867,0.059
48.933,-0.480,0.867,0.061
48.942,-0.480,0.865,0.061
48.952,-0.477,0.867,0.061
48.962,-0.479,0.861,0.061
48.972,-0.477,0.865,0.061
48.982,-0.477,0.865,0.062
48.992,-0.484,0.861,0.062
49.002,-0.482,0.867,0.061
49.012,-0.484,0.861,0.064
49.022,-0.484,0.859,0.061
49.032,-0.484,0.855,0.062
49.042,-0.480,0.857,0.062
49.052,-0.479,0.859,0.061
49.062,-0.480,0.859,0.064
49.072,-0.482,0.865,0.062
49.081,-0.482,0.871,0.062
49.091,-0.488,0.863,0.062
49.101,-0.484,0.859,0.064
49.111,-0.480,0.857,0.066
49.121,-0.479,0.859,0.070
49.131,-0.473,0.869,0.066
49.141,-0.479,0.879,0.064
49.151,-0.488,0.879,0.061
49.161,-0.496,0.875,0.059
49.171,-0.494,0.865,0.059
49.181,-0.488,0.855,0.066
49.191,-0.486,0.855,0.072
49.201,-0.490,0.852,0.066
49.211,-0.496,0.850,0.062
49.220,-0.492,0.850,0.057
49.230,-0.486,0.850,0.061
49.240,-0.486,0.855,0.062
49.250,-0.486,0.859,0.068
49.260,-0.486,0.861,0.066
49.270,-0.486,0.859,0.064
49.280,-0.484,0.859,0.068
49.290,-0.482,0.867,0.068
49.300,-0.490,0.865,0.064
49.310,-0.494,0.857,0.066
49.320,-0.486,0.857,0.066
49.330,-0.480,0.852,0.066
49.340,-0.480,0.855,0.068
49.349,-0.484,0.865,0.066
49.359,-0.494,0.869,0.062
49.369,-0.496,0.867,0.061
49.379,-0.490,0.859,0.064
49.389,-0.486,0.857,0.066
49.399,-0.488,0.859,0.070
49.409,-0.490,0.861,0.064
49.419,-0.492,0.857,0.064
49.429,-0.490,0.857,0.064
49.439,-0.484,0.861,0.062
49.449,-0.488,0.857,0.064
49.459,-0.490,0.865,0.066
49.469,-0.490,0.861,0.062
49.479,-0.484,0.861,0.062
49.488,-0.484,0.859,0.062
49.498,-0.482,0.857,0.066
49.508,-0.490,0.859,0.066
49.518,-0.488,0.861,0.062
49.528,-0.488,0.859,0.064
49.538,-0.482,0.859,0.061
49.548,-0.484,0.857,0.062
49.558,-0.488,0.861,0.062
49.568,-0.492,0.859,0.062
49.578,-0.490,0.857,0.064
49.588,-0.490,0.854,0.062
49.598,-0.490,0.855,0.064
49.608,-0.490,0.850,0.062
49.617,-0.486,0.854,0.064
49.627,-0.486,0.857,0.066
49.637,-0.488,0.863,0.066
49.647,-0.494,0.867,0.064
49.657,-0.496,0.861,0.062
49.667,-0.490,0.855,0.064
49.677,-0.482,0.850,0.066
49.687,-0.482,0.850,0.066
49.697,-0.477,0.861,0.070
49.707,-0.480,0.877,0.068
49.717,-0.486,0.883,0.061
49.727,-0.494,0.879,0.057
49.737,-0.504,0.867,0.061
49.747,-0.496,0.855,0.064
49.756,-0.492,0.848,0.068
49.766,-0.492,0.844,0.072
49.776,-0.492,0.844,0.062
49.786,-0.490,0.848,0.064
49.796,-0.492,0.852,0.061
49.806,-0.490,0.854,0.062
49.816,-0.490,0.855,0.066
49.826,-0.492,0.855,0.068
49.836,-0.492,0.857,0.064
49.846,-0.494,0.852,0.062
49.856,-0.494,0.855,0.064
49.866,-0.492,0.859,0.064
49.876,-0.498,0.854,0.062
49.885,-0.496,0.854,0.064
49.895,-0.492,0.848,0.064
49.905,-0.488,0.850,0.068
49.915,-0.486,0.859,0.064
49.925,-0.494,0.863,0.059
49.935,-0.506,0.861,0.061
49.945,-0.504,0.863,0.064
49.955,-0.496,0.855,0.066
49.965,-0.492,0.855,0.068
49.975,-0.496,0.855,0.064
49.985,-0.500,0.859,0.062
49.995,-0.496,0.857,0.057
50.005,-0.490,0.859,0.062
50.015,-0.490,0.855,0.062
50.024,-0.494,0.857,0.062
50.034,-0.494,0.859,0.062
50.044,-0.492,0.855,0.064
50.054,-0.494,0.850,0.064
50.064,-0.492,0.855,0.070
50.074,-0.494,0.857,0.064
50.084,-0.494,0.859,0.061
50.094,-0.496,0.857,0.059
50.104,-0.494,0.855,0.062
50.114,-0.488,0.855,0.062
50.124,-0.492,0.854,0.062
50.134,-0.498,0.854,0.064
50.144,-0.496,0.854,0.061
50.153,-0.492,0.848,0.064
50.163,-0.492,0.848,0.062
50.173,-0.492,0.857,0.064
50.183,-0.498,0.863,0.062
50.193,-0.500,0.865,0.062
50.203,-0.498,0.857,0.062
50.213,-0.494,0.852,0.064
50.223,-0.490,0.846,0.064
50.233,-0.492,0.854,0.066
50.243,-0.494,0.859,0.064
50.253,-0.490,0.869,0.062
50.263,-0.492,0.871,0.059
50.273,-0.500,0.869,0.057
50.283,-0.510,0.863,0.061
50.292,-0.506,0.854,0.066
50.302,-0.498,0.850,0.061
50.312,-0.500,0.844,0.064
50.322,-0.496,0.844,0.062
50.332,-0.498,0.850,0.059
50.342,-0.498,0.848,0.059
50.352,-0.496,0.846,0.062
50.362,-0.492,0.848,0.066
50.372,-0.490,0.855,0.062
50.382,-0.496,0.861,0.064
50.392,-0.500,0.857,0.062
50.402,-0.500,0.855,0.062
50.412,-0.496,0.863,0.062
50.422,-0.498,0.852,0.064
50.431,-0.502,0.848,0.064
50.441,-0.498,0.850,0.061
50.451,-0.494,0.850,0.062
50.461,-0.494,0.857,0.062
50.471,-0.502,0.863,0.059
50.481,-0.508,0.854,0.057
50.491,-0.500,0.852,0.062
50.501,-0.496,0.852,0.066
50.511,-0.498,0.854,0.066
50.521,-0.500,0.857,0.062
50.531,-0.502,0.854,0.057
50.541,-0.496,0.854,0.061
50.551,-0.494,0.852,0.057
50.560,-0.498,0.854,0.062
50.570,-0.500,0.852,0.062
50.580,-0.496,0.850,0.062
50.590,-0.496,0.852,0.062
50.600,-0.498,0.852,0.062
50.610,-0.500,0.854,0.064
50.620,-0.502,0.854,0.064
50.630,-0.504,0.859,0.061
50.640,-0.500,0.855,0.061
50.650,-0.500,0.854,0.059
50.660,-0.496,0.852,0.061
50.670,-0.494,0.848,0.061
50.680,-0.496,0.850,0.064
50.690,-0.496,0.848,0.064
50.699,-0.496,0.854,0.062
50.709,-0.498,0.855,0.059
50.719,-0.506,0.857,0.061
50.729,-0.508,0.855,0.061
50.739,-0.500,0.848,0.061
50.749,-0.496,0.840,0.066
50.759,-0.494,0.840,0.066
50.769,-0.498,0.854,0.068
50.779,-0.496,0.861,0.064
50.789,-0.498,0.873,0.059
50.799,-0.504,0.875,0.061
50.809,-0.510,0.871,0.055
50.819,-0.512,0.863,0.064
50.828,-0.504,0.852,0.068
50.838,-0.498,0.846,0.064
50.848,-0.498,0.836,0.064
50.858,-0.500,0.838,0.062
50.868,-0.500,0.844,0.057
50.878,-0.500,0.848,0.061
50.888,-0.498,0.846,0.064
50.898,-0.496,0.852,0.062
