df_hash,22ZHK4.UJ02M7
device,HZ2X61
project_hash,29R7
project_name,istanbul_aydin_university
person_hash,29R7.WYNA
person_label,V35
date_time_start,2025-10-27_12-12-22.778000_+03
date_time_start_unix,1761552742.778
date_time_end,2025-10-27_12-15-29.729000_+03
length_difference_noticed,no

time,acc_x,acc_y,acc_z
5.215,-0.660,0.791,-0.074
5.225,-0.660,0.793,-0.076
5.235,-0.662,0.795,-0.076
5.245,-0.658,0.797,-0.074
5.255,-0.658,0.793,-0.074
5.265,-0.664,0.793,-0.074
5.275,-0.664,0.795,-0.076
5.285,-0.660,0.791,-0.080
5.295,-0.660,0.793,-0.078
5.305,-0.660,0.795,-0.078
5.315,-0.662,0.799,-0.082
5.325,-0.668,0.799,-0.076
5.335,-0.660,0.791,-0.076
5.345,-0.658,0.789,-0.084
5.355,-0.660,0.791,-0.080
5.365,-0.664,0.793,-0.080
5.375,-0.664,0.793,-0.076
5.385,-0.664,0.795,-0.078
5.395,-0.662,0.793,-0.080
5.405,-0.660,0.797,-0.076
5.415,-0.658,0.793,-0.078
5.425,-0.660,0.793,-0.076
5.435,-0.658,0.791,-0.078
5.445,-0.654,0.793,-0.074
5.455,-0.660,0.795,-0.076
5.465,-0.656,0.795,-0.076
5.475,-0.656,0.797,-0.076
5.485,-0.656,0.799,-0.080
5.495,-0.658,0.797,-0.078
5.505,-0.658,0.797,-0.078
5.515,-0.658,0.799,-0.076
5.525,-0.652,0.799,-0.074
5.535,-0.656,0.799,-0.078
5.545,-0.656,0.795,-0.078
5.555,-0.654,0.793,-0.076
5.565,-0.658,0.799,-0.080
5.575,-0.660,0.803,-0.072
5.585,-0.654,0.797,-0.078
5.595,-0.658,0.795,-0.078
5.605,-0.658,0.793,-0.078
5.615,-0.658,0.795,-0.078
5.625,-0.656,0.795,-0.078
5.635,-0.656,0.801,-0.080
5.645,-0.656,0.799,-0.080
5.655,-0.650,0.801,-0.076
5.665,-0.654,0.799,-0.080
5.675,-0.652,0.799,-0.074
5.685,-0.648,0.797,-0.080
5.695,-0.648,0.799,-0.080
5.705,-0.652,0.799,-0.080
5.715,-0.654,0.797,-0.080
5.725,-0.652,0.799,-0.082
5.735,-0.650,0.799,-0.082
5.745,-0.650,0.799,-0.080
5.755,-0.652,0.801,-0.086
5.765,-0.656,0.799,-0.080
5.775,-0.656,0.799,-0.084
5.785,-0.656,0.795,-0.082
5.795,-0.658,0.797,-0.082
5.805,-0.658,0.797,-0.084
5.815,-0.658,0.797,-0.084
5.825,-0.656,0.795,-0.086
5.835,-0.660,0.795,-0.080
5.845,-0.658,0.793,-0.086
5.855,-0.656,0.795,-0.088
5.865,-0.658,0.797,-0.088
5.875,-0.656,0.797,-0.082
5.885,-0.656,0.799,-0.086
5.895,-0.654,0.799,-0.088
5.905,-0.656,0.795,-0.084
5.915,-0.654,0.797,-0.084
5.925,-0.654,0.795,-0.088
5.935,-0.654,0.797,-0.082
5.945,-0.652,0.801,-0.082
5.955,-0.656,0.801,-0.084
5.965,-0.654,0.795,-0.086
5.975,-0.656,0.795,-0.084
5.985,-0.654,0.791,-0.086
5.995,-0.656,0.797,-0.082
6.005,-0.658,0.801,-0.082
6.015,-0.658,0.803,-0.080
6.025,-0.654,0.801,-0.086
6.035,-0.654,0.795,-0.082
6.045,-0.654,0.797,-0.082
6.055,-0.654,0.793,-0.080
6.065,-0.654,0.793,-0.082
6.075,-0.652,0.795,-0.084
6.085,-0.652,0.795,-0.082
6.095,-0.652,0.797,-0.082
6.105,-0.652,0.799,-0.080
6.115,-0.654,0.799,-0.082
6.125,-0.650,0.801,-0.078
6.135,-0.652,0.805,-0.082
6.145,-0.650,0.803,-0.078
6.155,-0.652,0.799,-0.080
6.165,-0.652,0.795,-0.078
6.175,-0.650,0.795,-0.078
6.185,-0.652,0.797,-0.080
6.195,-0.656,0.805,-0.080
6.205,-0.656,0.803,-0.076
6.215,-0.650,0.797,-0.080
6.225,-0.652,0.797,-0.084
6.235,-0.654,0.797,-0.084
6.245,-0.654,0.799,-0.080
6.255,-0.658,0.797,-0.082
6.265,-0.658,0.803,-0.078
6.275,-0.652,0.801,-0.080
6.285,-0.650,0.803,-0.076
6.295,-0.652,0.801,-0.080
6.305,-0.652,0.801,-0.078
6.315,-0.650,0.795,-0.080
6.325,-0.650,0.795,-0.078
6.335,-0.654,0.797,-0.080
6.345,-0.652,0.797,-0.080
6.355,-0.654,0.795,-0.082
6.365,-0.656,0.793,-0.078
6.375,-0.658,0.799,-0.078
6.385,-0.656,0.797,-0.078
6.395,-0.658,0.797,-0.078
6.405,-0.658,0.797,-0.080
6.415,-0.658,0.795,-0.084
6.425,-0.658,0.795,-0.080
6.435,-0.656,0.797,-0.078
6.445,-0.658,0.793,-0.080
6.455,-0.656,0.797,-0.080
6.465,-0.662,0.795,-0.080
6.475,-0.658,0.791,-0.080
6.485,-0.656,0.791,-0.080
6.495,-0.654,0.795,-0.082
6.505,-0.658,0.795,-0.082
6.515,-0.658,0.799,-0.082
6.525,-0.660,0.799,-0.082
6.535,-0.660,0.801,-0.080
6.545,-0.662,0.797,-0.078
6.555,-0.658,0.797,-0.076
6.565,-0.654,0.797,-0.078
6.575,-0.656,0.797,-0.078
6.585,-0.658,0.799,-0.078
6.595,-0.652,0.795,-0.080
6.605,-0.656,0.789,-0.084
6.615,-0.654,0.791,-0.082
6.625,-0.656,0.795,-0.082
6.635,-0.660,0.799,-0.078
6.645,-0.656,0.799,-0.076
6.655,-0.660,0.799,-0.074
6.665,-0.658,0.799,-0.082
6.675,-0.656,0.797,-0.080
6.685,-0.656,0.791,-0.078
6.695,-0.650,0.795,-0.076
6.705,-0.652,0.793,-0.078
6.715,-0.654,0.795,-0.078
6.725,-0.656,0.799,-0.076
6.735,-0.652,0.795,-0.078
6.745,-0.654,0.797,-0.080
6.755,-0.648,0.801,-0.074
6.765,-0.648,0.801,-0.076
6.775,-0.652,0.803,-0.076
6.785,-0.648,0.801,-0.078
6.795,-0.654,0.799,-0.078
6.805,-0.656,0.795,-0.080
6.815,-0.656,0.795,-0.082
6.825,-0.656,0.803,-0.078
6.835,-0.654,0.805,-0.078
6.845,-0.652,0.799,-0.080
6.855,-0.650,0.795,-0.078
6.865,-0.654,0.795,-0.078
6.875,-0.654,0.799,-0.076
6.885,-0.660,0.801,-0.082
6.895,-0.658,0.805,-0.078
6.905,-0.654,0.799,-0.078
6.915,-0.656,0.803,-0.080
6.925,-0.652,0.799,-0.078
6.935,-0.650,0.799,-0.080
6.945,-0.650,0.797,-0.078
6.955,-0.652,0.795,-0.082
6.965,-0.648,0.799,-0.080
6.975,-0.648,0.795,-0.080
6.985,-0.652,0.799,-0.080
6.995,-0.654,0.799,-0.078
7.005,-0.652,0.801,-0.078
7.015,-0.652,0.797,-0.082
7.025,-0.652,0.799,-0.080
7.035,-0.654,0.799,-0.084
7.045,-0.652,0.797,-0.084
7.055,-0.656,0.801,-0.084
7.065,-0.656,0.797,-0.080
7.075,-0.658,0.797,-0.084
7.085,-0.654,0.799,-0.086
7.095,-0.654,0.799,-0.088
7.105,-0.652,0.797,-0.084
7.115,-0.652,0.799,-0.086
7.125,-0.654,0.797,-0.088
7.135,-0.652,0.799,-0.084
7.145,-0.654,0.799,-0.086
7.155,-0.650,0.801,-0.086
7.165,-0.656,0.801,-0.084
7.175,-0.652,0.805,-0.084
7.185,-0.652,0.805,-0.084
7.195,-0.648,0.805,-0.082
7.205,-0.648,0.807,-0.082
7.215,-0.648,0.809,-0.082
7.225,-0.646,0.801,-0.086
7.235,-0.646,0.799,-0.086
7.245,-0.648,0.797,-0.082
7.255,-0.652,0.799,-0.082
7.265,-0.652,0.805,-0.084
7.275,-0.654,0.807,-0.084
7.285,-0.652,0.799,-0.080
7.295,-0.648,0.805,-0.082
7.305,-0.645,0.799,-0.082
7.315,-0.645,0.801,-0.086
7.325,-0.645,0.797,-0.080
7.335,-0.646,0.801,-0.082
7.345,-0.646,0.799,-0.080
7.355,-0.646,0.801,-0.084
7.365,-0.646,0.803,-0.082
7.375,-0.645,0.803,-0.080
7.385,-0.646,0.803,-0.080
7.395,-0.645,0.807,-0.078
7.405,-0.643,0.809,-0.076
7.415,-0.643,0.809,-0.084
7.425,-0.646,0.807,-0.082
7.435,-0.643,0.803,-0.082
7.445,-0.645,0.805,-0.080
7.455,-0.645,0.816,-0.076
7.465,-0.641,0.811,-0.078
7.475,-0.633,0.805,-0.082
7.485,-0.639,0.801,-0.080
7.495,-0.641,0.805,-0.082
7.505,-0.641,0.811,-0.080
7.515,-0.637,0.812,-0.082
7.525,-0.639,0.811,-0.076
7.535,-0.641,0.811,-0.080
7.545,-0.637,0.814,-0.078
7.555,-0.637,0.818,-0.080
7.565,-0.633,0.809,-0.080
7.575,-0.635,0.811,-0.078
7.585,-0.633,0.814,-0.078
7.595,-0.633,0.809,-0.084
7.605,-0.635,0.814,-0.080
7.615,-0.631,0.818,-0.076
7.625,-0.635,0.814,-0.084
7.635,-0.639,0.818,-0.082
7.645,-0.633,0.816,-0.082
7.655,-0.631,0.816,-0.080
7.665,-0.635,0.816,-0.080
7.675,-0.631,0.812,-0.080
7.685,-0.631,0.814,-0.082
7.695,-0.629,0.811,-0.080
7.705,-0.631,0.811,-0.080
7.715,-0.629,0.814,-0.080
7.725,-0.627,0.812,-0.080
7.735,-0.627,0.818,-0.082
7.745,-0.625,0.822,-0.080
7.755,-0.623,0.820,-0.080
7.765,-0.627,0.816,-0.078
7.775,-0.627,0.818,-0.078
7.785,-0.623,0.822,-0.080
7.795,-0.627,0.816,-0.078
7.805,-0.627,0.816,-0.080
7.815,-0.629,0.818,-0.078
7.825,-0.629,0.824,-0.078
7.835,-0.629,0.814,-0.082
7.845,-0.631,0.812,-0.084
7.855,-0.631,0.814,-0.082
7.865,-0.633,0.822,-0.080
7.875,-0.635,0.816,-0.082
7.885,-0.629,0.818,-0.078
7.895,-0.631,0.818,-0.080
7.905,-0.631,0.814,-0.078
7.915,-0.633,0.816,-0.080
7.925,-0.629,0.812,-0.084
7.935,-0.631,0.807,-0.082
7.945,-0.633,0.812,-0.082
7.955,-0.631,0.814,-0.082
7.965,-0.631,0.814,-0.080
7.975,-0.633,0.814,-0.078
7.985,-0.631,0.814,-0.078
7.995,-0.631,0.816,-0.080
8.005,-0.629,0.816,-0.080
8.015,-0.627,0.818,-0.078
8.025,-0.631,0.816,-0.078
8.035,-0.631,0.811,-0.080
8.045,-0.629,0.809,-0.078
8.055,-0.635,0.812,-0.078
8.065,-0.635,0.818,-0.080
8.075,-0.635,0.816,-0.076
8.085,-0.631,0.811,-0.080
8.095,-0.633,0.811,-0.080
8.105,-0.633,0.812,-0.082
8.115,-0.639,0.812,-0.084
8.125,-0.637,0.818,-0.080
8.135,-0.637,0.814,-0.082
8.145,-0.637,0.816,-0.080
8.155,-0.635,0.814,-0.084
8.165,-0.633,0.814,-0.080
8.175,-0.635,0.814,-0.082
8.185,-0.633,0.816,-0.080
8.195,-0.637,0.812,-0.080
8.205,-0.633,0.812,-0.082
8.215,-0.629,0.814,-0.078
8.225,-0.631,0.814,-0.084
8.235,-0.631,0.814,-0.084
8.245,-0.633,0.812,-0.082
8.255,-0.633,0.814,-0.078
8.265,-0.631,0.814,-0.082
8.275,-0.631,0.814,-0.084
8.285,-0.635,0.811,-0.082
8.295,-0.635,0.814,-0.080
8.305,-0.631,0.816,-0.084
8.315,-0.633,0.814,-0.080
8.325,-0.635,0.812,-0.082
8.335,-0.635,0.812,-0.082
8.345,-0.637,0.814,-0.084
8.355,-0.635,0.812,-0.084
8.365,-0.635,0.816,-0.084
8.375,-0.635,0.818,-0.088
8.385,-0.639,0.812,-0.088
8.395,-0.641,0.818,-0.080
8.405,-0.637,0.812,-0.084
8.415,-0.637,0.812,-0.084
8.425,-0.633,0.812,-0.082
8.435,-0.635,0.816,-0.082
8.445,-0.631,0.816,-0.084
8.455,-0.633,0.809,-0.082
8.465,-0.635,0.809,-0.084
8.475,-0.631,0.812,-0.084
8.485,-0.635,0.816,-0.082
8.495,-0.635,0.814,-0.082
8.505,-0.641,0.816,-0.076
8.515,-0.633,0.816,-0.082
8.525,-0.635,0.811,-0.082
8.535,-0.637,0.809,-0.080
8.545,-0.635,0.807,-0.082
8.555,-0.633,0.809,-0.082
8.565,-0.635,0.812,-0.080
8.575,-0.633,0.811,-0.082
8.585,-0.635,0.811,-0.080
8.595,-0.637,0.814,-0.078
8.605,-0.633,0.814,-0.076
8.615,-0.639,0.814,-0.080
8.625,-0.633,0.814,-0.076
8.635,-0.637,0.812,-0.078
8.645,-0.633,0.812,-0.074
8.655,-0.635,0.809,-0.080
8.665,-0.635,0.807,-0.080
8.675,-0.635,0.811,-0.074
8.685,-0.637,0.814,-0.076
8.695,-0.635,0.812,-0.074
8.705,-0.635,0.809,-0.076
8.715,-0.637,0.811,-0.076
8.725,-0.637,0.811,-0.080
8.735,-0.635,0.816,-0.076
8.745,-0.643,0.812,-0.076
8.755,-0.639,0.814,-0.076
8.765,-0.637,0.812,-0.076
8.775,-0.635,0.812,-0.074
8.785,-0.637,0.814,-0.078
8.795,-0.635,0.811,-0.070
8.805,-0.635,0.809,-0.078
8.815,-0.635,0.811,-0.078
8.825,-0.633,0.811,-0.076
8.835,-0.633,0.811,-0.078
8.845,-0.635,0.812,-0.080
8.855,-0.637,0.811,-0.076
8.865,-0.635,0.812,-0.082
8.875,-0.637,0.812,-0.080
8.885,-0.637,0.811,-0.080
8.895,-0.637,0.812,-0.080
8.905,-0.635,0.812,-0.078
8.915,-0.637,0.809,-0.078
8.925,-0.639,0.811,-0.080
8.935,-0.641,0.805,-0.082
8.945,-0.639,0.807,-0.086
8.955,-0.637,0.807,-0.082
8.965,-0.641,0.807,-0.084
8.975,-0.639,0.807,-0.084
8.985,-0.641,0.807,-0.084
8.995,-0.641,0.809,-0.084
9.005,-0.639,0.807,-0.086
9.015,-0.643,0.807,-0.086
9.025,-0.641,0.811,-0.082
9.035,-0.643,0.814,-0.078
9.045,-0.641,0.814,-0.076
9.055,-0.639,0.814,-0.080
9.065,-0.637,0.814,-0.078
9.075,-0.641,0.809,-0.080
9.085,-0.637,0.805,-0.082
9.095,-0.639,0.805,-0.082
9.105,-0.641,0.809,-0.078
9.115,-0.643,0.809,-0.080
9.125,-0.645,0.811,-0.076
9.135,-0.645,0.807,-0.082
9.145,-0.646,0.805,-0.080
9.155,-0.650,0.801,-0.080
9.165,-0.645,0.805,-0.078
9.175,-0.639,0.811,-0.078
9.185,-0.641,0.812,-0.074
9.195,-0.639,0.811,-0.074
9.205,-0.639,0.809,-0.082
9.215,-0.641,0.811,-0.078
9.225,-0.641,0.807,-0.074
9.235,-0.639,0.811,-0.078
9.245,-0.639,0.811,-0.072
9.255,-0.641,0.814,-0.072
9.265,-0.639,0.809,-0.072
9.275,-0.639,0.807,-0.078
9.285,-0.637,0.803,-0.074
9.295,-0.641,0.814,-0.072
9.305,-0.643,0.816,-0.066
9.315,-0.637,0.809,-0.070
9.325,-0.639,0.803,-0.072
9.335,-0.643,0.801,-0.076
9.345,-0.643,0.807,-0.074
9.355,-0.643,0.811,-0.074
9.365,-0.645,0.811,-0.072
9.375,-0.645,0.814,-0.074
9.385,-0.643,0.814,-0.072
9.395,-0.645,0.811,-0.070
9.405,-0.641,0.809,-0.068
9.415,-0.641,0.805,-0.070
9.425,-0.637,0.809,-0.070
9.435,-0.637,0.807,-0.074
9.445,-0.643,0.805,-0.072
9.455,-0.639,0.807,-0.068
9.465,-0.639,0.809,-0.074
9.475,-0.645,0.811,-0.070
9.485,-0.646,0.811,-0.074
9.495,-0.641,0.807,-0.076
9.505,-0.643,0.814,-0.076
9.515,-0.643,0.811,-0.074
9.525,-0.643,0.809,-0.078
9.535,-0.643,0.809,-0.080
9.545,-0.643,0.807,-0.076
9.555,-0.645,0.805,-0.080
9.565,-0.643,0.807,-0.076
9.575,-0.643,0.805,-0.076
9.585,-0.643,0.811,-0.078
9.595,-0.643,0.812,-0.078
9.605,-0.645,0.805,-0.082
9.615,-0.643,0.807,-0.078
9.625,-0.639,0.809,-0.084
9.635,-0.641,0.809,-0.080
9.645,-0.643,0.805,-0.080
9.655,-0.645,0.812,-0.082
9.665,-0.643,0.811,-0.082
9.675,-0.645,0.807,-0.084
9.685,-0.643,0.803,-0.086
9.695,-0.650,0.805,-0.084
9.705,-0.650,0.811,-0.084
9.715,-0.648,0.814,-0.078
9.725,-0.648,0.811,-0.080
9.735,-0.645,0.811,-0.078
9.745,-0.645,0.809,-0.082
9.755,-0.641,0.807,-0.080
9.765,-0.643,0.805,-0.078
9.775,-0.641,0.805,-0.078
9.785,-0.641,0.807,-0.078
9.795,-0.639,0.807,-0.074
9.805,-0.643,0.807,-0.074
9.815,-0.646,0.807,-0.076
9.825,-0.643,0.807,-0.076
9.835,-0.646,0.809,-0.078
9.845,-0.646,0.807,-0.074
9.855,-0.645,0.807,-0.076
9.865,-0.643,0.807,-0.076
9.875,-0.643,0.801,-0.078
9.885,-0.645,0.803,-0.074
9.895,-0.646,0.809,-0.074
9.905,-0.645,0.812,-0.074
9.915,-0.641,0.807,-0.076
9.925,-0.641,0.805,-0.074
9.935,-0.641,0.805,-0.070
9.945,-0.645,0.809,-0.074
9.955,-0.646,0.807,-0.074
9.965,-0.645,0.811,-0.072
9.975,-0.645,0.812,-0.072
9.985,-0.643,0.809,-0.074
9.995,-0.643,0.809,-0.072
10.005,-0.639,0.807,-0.068
10.015,-0.639,0.809,-0.072
10.025,-0.643,0.807,-0.072
10.035,-0.643,0.807,-0.072
10.045,-0.645,0.809,-0.068
10.055,-0.645,0.805,-0.074
10.065,-0.646,0.807,-0.074
10.075,-0.648,0.805,-0.072
10.085,-0.646,0.809,-0.074
10.095,-0.648,0.805,-0.072
10.105,-0.646,0.805,-0.072
10.115,-0.650,0.809,-0.074
10.125,-0.648,0.803,-0.076
10.135,-0.648,0.803,-0.074
10.145,-0.648,0.803,-0.074
10.155,-0.648,0.801,-0.076
10.165,-0.646,0.799,-0.076
10.175,-0.650,0.799,-0.076
10.185,-0.648,0.803,-0.076
10.195,-0.646,0.801,-0.076
10.205,-0.652,0.801,-0.080
10.215,-0.648,0.805,-0.076
10.225,-0.645,0.805,-0.078
10.235,-0.645,0.807,-0.078
10.245,-0.645,0.811,-0.078
10.255,-0.643,0.809,-0.076
10.265,-0.639,0.803,-0.078
10.275,-0.641,0.803,-0.082
10.285,-0.643,0.807,-0.076
10.295,-0.646,0.807,-0.078
10.305,-0.645,0.809,-0.082
10.315,-0.645,0.807,-0.078
10.325,-0.643,0.807,-0.078
10.335,-0.645,0.807,-0.074
10.345,-0.645,0.801,-0.078
10.355,-0.645,0.803,-0.080
10.365,-0.643,0.805,-0.082
10.375,-0.645,0.805,-0.084
10.385,-0.645,0.803,-0.080
10.395,-0.645,0.805,-0.080
10.405,-0.645,0.805,-0.082
10.415,-0.645,0.809,-0.080
10.425,-0.643,0.811,-0.082
10.435,-0.641,0.809,-0.080
10.445,-0.643,0.809,-0.080
10.455,-0.641,0.807,-0.084
10.465,-0.643,0.805,-0.080
10.475,-0.641,0.805,-0.082
10.485,-0.643,0.812,-0.080
10.495,-0.643,0.814,-0.082
10.505,-0.641,0.809,-0.082
10.515,-0.639,0.803,-0.082
10.525,-0.641,0.809,-0.084
10.535,-0.641,0.811,-0.084
10.545,-0.641,0.814,-0.080
10.555,-0.641,0.812,-0.086
10.565,-0.639,0.811,-0.084
10.575,-0.641,0.811,-0.080
10.585,-0.643,0.809,-0.076
10.595,-0.639,0.807,-0.084
10.605,-0.641,0.807,-0.086
10.615,-0.641,0.805,-0.082
10.625,-0.641,0.807,-0.084
10.635,-0.639,0.805,-0.080
10.645,-0.643,0.807,-0.080
10.655,-0.641,0.809,-0.082
10.665,-0.643,0.811,-0.082
10.675,-0.641,0.809,-0.084
10.685,-0.641,0.809,-0.082
10.695,-0.643,0.809,-0.082
10.705,-0.643,0.809,-0.082
10.715,-0.643,0.809,-0.080
10.725,-0.645,0.807,-0.082
10.735,-0.645,0.807,-0.084
10.745,-0.646,0.807,-0.080
10.755,-0.643,0.805,-0.080
10.765,-0.645,0.805,-0.080
10.775,-0.645,0.809,-0.080
10.785,-0.645,0.809,-0.078
10.795,-0.645,0.807,-0.080
10.805,-0.646,0.807,-0.086
10.815,-0.643,0.805,-0.078
10.825,-0.643,0.805,-0.078
10.835,-0.643,0.809,-0.078
10.845,-0.643,0.811,-0.078
10.855,-0.643,0.812,-0.080
10.865,-0.643,0.801,-0.082
10.875,-0.641,0.803,-0.082
10.885,-0.641,0.803,-0.080
10.895,-0.646,0.809,-0.080
10.905,-0.645,0.809,-0.078
10.915,-0.643,0.811,-0.078
10.925,-0.641,0.811,-0.076
10.935,-0.645,0.805,-0.080
10.945,-0.645,0.805,-0.076
10.955,-0.641,0.805,-0.078
10.965,-0.643,0.805,-0.078
10.975,-0.645,0.801,-0.078
10.985,-0.641,0.807,-0.084
10.995,-0.645,0.807,-0.078
11.005,-0.641,0.809,-0.082
11.015,-0.641,0.811,-0.076
11.025,-0.643,0.814,-0.080
11.035,-0.639,0.811,-0.076
11.045,-0.639,0.809,-0.076
11.055,-0.639,0.805,-0.078
11.065,-0.643,0.807,-0.078
11.075,-0.641,0.803,-0.078
11.085,-0.641,0.809,-0.074
11.095,-0.646,0.812,-0.072
11.105,-0.641,0.807,-0.072
11.115,-0.639,0.803,-0.078
11.125,-0.645,0.807,-0.078
11.135,-0.646,0.805,-0.076
11.145,-0.646,0.807,-0.074
11.155,-0.646,0.809,-0.074
11.165,-0.645,0.805,-0.078
11.175,-0.645,0.809,-0.078
11.185,-0.641,0.807,-0.080
11.195,-0.645,0.809,-0.076
11.205,-0.641,0.807,-0.080
11.215,-0.639,0.809,-0.078
11.225,-0.637,0.807,-0.076
11.235,-0.643,0.809,-0.074
11.245,-0.641,0.809,-0.080
11.255,-0.641,0.809,-0.078
11.265,-0.639,0.809,-0.076
11.275,-0.643,0.809,-0.078
11.285,-0.643,0.807,-0.080
11.295,-0.643,0.807,-0.080
11.305,-0.643,0.807,-0.080
11.315,-0.641,0.807,-0.082
11.325,-0.641,0.809,-0.082
11.335,-0.643,0.807,-0.082
11.345,-0.648,0.807,-0.080
11.355,-0.643,0.805,-0.080
11.365,-0.643,0.807,-0.082
11.375,-0.641,0.807,-0.082
11.385,-0.637,0.807,-0.082
11.395,-0.641,0.811,-0.084
11.405,-0.641,0.811,-0.086
11.415,-0.645,0.811,-0.084
11.425,-0.643,0.811,-0.082
11.435,-0.641,0.809,-0.082
11.445,-0.639,0.807,-0.082
11.455,-0.641,0.811,-0.082
11.465,-0.641,0.812,-0.082
11.475,-0.637,0.811,-0.080
11.485,-0.637,0.807,-0.086
11.495,-0.637,0.801,-0.086
11.505,-0.645,0.809,-0.082
11.515,-0.643,0.807,-0.082
11.525,-0.646,0.812,-0.082
11.535,-0.646,0.807,-0.084
11.545,-0.643,0.809,-0.082
11.555,-0.645,0.809,-0.080
11.565,-0.643,0.805,-0.084
11.575,-0.643,0.805,-0.080
11.585,-0.641,0.805,-0.082
11.595,-0.645,0.805,-0.080
11.605,-0.643,0.807,-0.084
11.615,-0.641,0.807,-0.084
11.625,-0.639,0.809,-0.080
11.635,-0.639,0.809,-0.080
11.645,-0.639,0.809,-0.082
11.655,-0.641,0.809,-0.080
11.665,-0.639,0.809,-0.076
11.675,-0.641,0.811,-0.080
11.685,-0.645,0.805,-0.084
11.695,-0.643,0.805,-0.082
11.705,-0.643,0.811,-0.080
11.715,-0.643,0.816,-0.078
11.725,-0.637,0.807,-0.076
11.735,-0.641,0.805,-0.082
11.745,-0.641,0.805,-0.078
11.755,-0.639,0.809,-0.080
11.765,-0.645,0.811,-0.080
11.775,-0.643,0.811,-0.078
11.785,-0.643,0.814,-0.080
11.795,-0.639,0.811,-0.076
11.805,-0.641,0.809,-0.076
11.815,-0.639,0.809,-0.080
11.825,-0.639,0.807,-0.076
11.835,-0.639,0.807,-0.076
11.845,-0.639,0.809,-0.078
11.855,-0.639,0.807,-0.076
11.865,-0.639,0.805,-0.080
11.875,-0.645,0.807,-0.082
11.885,-0.645,0.807,-0.080
11.895,-0.643,0.809,-0.082
11.905,-0.645,0.807,-0.082
11.915,-0.648,0.807,-0.080
11.925,-0.645,0.805,-0.084
11.935,-0.643,0.807,-0.080
11.945,-0.646,0.807,-0.082
11.955,-0.645,0.803,-0.080
11.965,-0.643,0.805,-0.086
11.975,-0.646,0.807,-0.084
11.985,-0.643,0.803,-0.082
11.995,-0.646,0.805,-0.080
12.005,-0.643,0.805,-0.082
12.015,-0.641,0.811,-0.082
12.025,-0.643,0.807,-0.082
12.035,-0.643,0.807,-0.080
12.045,-0.645,0.809,-0.082
12.055,-0.646,0.809,-0.082
12.065,-0.639,0.809,-0.084
12.075,-0.641,0.807,-0.078
12.085,-0.643,0.809,-0.080
12.095,-0.645,0.811,-0.084
12.105,-0.646,0.805,-0.084
12.115,-0.645,0.801,-0.084
12.125,-0.646,0.805,-0.082
12.135,-0.650,0.811,-0.082
12.145,-0.652,0.809,-0.080
12.155,-0.648,0.805,-0.080
12.165,-0.646,0.805,-0.086
12.175,-0.645,0.805,-0.082
12.185,-0.645,0.807,-0.082
12.195,-0.643,0.799,-0.080
12.205,-0.643,0.799,-0.078
12.215,-0.643,0.801,-0.080
12.225,-0.646,0.805,-0.082
12.235,-0.646,0.805,-0.080
12.245,-0.646,0.807,-0.078
12.255,-0.643,0.807,-0.084
12.265,-0.645,0.809,-0.082
12.275,-0.646,0.807,-0.080
12.285,-0.646,0.807,-0.078
12.295,-0.645,0.807,-0.082
12.305,-0.645,0.803,-0.084
12.315,-0.645,0.801,-0.080
12.325,-0.645,0.809,-0.080
12.335,-0.646,0.811,-0.078
12.345,-0.643,0.803,-0.078
12.355,-0.643,0.803,-0.082
12.365,-0.645,0.805,-0.080
12.375,-0.645,0.805,-0.080
12.385,-0.648,0.809,-0.084
12.395,-0.650,0.811,-0.078
12.405,-0.648,0.811,-0.078
12.415,-0.645,0.809,-0.076
12.425,-0.645,0.807,-0.076
12.435,-0.645,0.807,-0.078
12.445,-0.645,0.803,-0.082
12.455,-0.643,0.803,-0.076
12.465,-0.643,0.803,-0.082
12.475,-0.645,0.801,-0.080
12.485,-0.645,0.803,-0.076
12.495,-0.645,0.803,-0.080
12.505,-0.646,0.805,-0.078
12.515,-0.646,0.809,-0.082
12.525,-0.646,0.805,-0.082
12.535,-0.648,0.805,-0.082
12.545,-0.646,0.805,-0.078
12.555,-0.650,0.801,-0.080
12.565,-0.646,0.797,-0.082
12.575,-0.648,0.799,-0.078
12.585,-0.648,0.799,-0.080
12.595,-0.646,0.801,-0.080
12.605,-0.646,0.801,-0.080
12.615,-0.648,0.807,-0.080
12.625,-0.650,0.805,-0.078
12.635,-0.652,0.803,-0.080
12.645,-0.650,0.801,-0.082
12.655,-0.650,0.803,-0.082
12.665,-0.652,0.805,-0.076
12.675,-0.650,0.807,-0.078
12.685,-0.652,0.807,-0.078
12.695,-0.648,0.805,-0.078
12.705,-0.648,0.797,-0.082
12.715,-0.648,0.797,-0.078
12.725,-0.650,0.801,-0.078
12.735,-0.656,0.803,-0.074
12.745,-0.654,0.803,-0.074
12.755,-0.654,0.799,-0.074
12.765,-0.654,0.801,-0.078
12.775,-0.654,0.799,-0.076
12.785,-0.650,0.797,-0.080
12.795,-0.654,0.795,-0.074
12.805,-0.654,0.799,-0.082
12.815,-0.650,0.795,-0.080
12.825,-0.650,0.799,-0.078
12.835,-0.652,0.801,-0.076
12.845,-0.648,0.801,-0.078
12.855,-0.650,0.805,-0.078
12.865,-0.650,0.803,-0.080
12.875,-0.648,0.803,-0.076
12.885,-0.646,0.803,-0.078
12.895,-0.646,0.801,-0.078
12.905,-0.648,0.801,-0.076
12.915,-0.646,0.799,-0.076
12.925,-0.648,0.807,-0.074
12.935,-0.650,0.811,-0.074
12.945,-0.646,0.803,-0.076
12.955,-0.646,0.801,-0.082
12.965,-0.646,0.799,-0.078
12.975,-0.646,0.805,-0.076
12.985,-0.650,0.807,-0.074
12.995,-0.648,0.807,-0.076
13.005,-0.646,0.805,-0.078
13.015,-0.650,0.807,-0.078
13.025,-0.648,0.801,-0.076
13.035,-0.645,0.803,-0.076
13.045,-0.645,0.801,-0.078
13.055,-0.646,0.801,-0.080
13.065,-0.645,0.803,-0.082
13.075,-0.646,0.801,-0.080
13.085,-0.648,0.803,-0.080
13.095,-0.646,0.803,-0.082
13.105,-0.648,0.803,-0.082
13.115,-0.646,0.801,-0.082
13.125,-0.648,0.803,-0.084
13.135,-0.648,0.801,-0.080
13.145,-0.650,0.801,-0.080
13.155,-0.650,0.805,-0.084
13.165,-0.650,0.803,-0.082
13.175,-0.650,0.799,-0.082
13.185,-0.650,0.799,-0.082
13.195,-0.654,0.799,-0.082
13.205,-0.650,0.797,-0.082
13.215,-0.654,0.801,-0.082
13.225,-0.652,0.801,-0.082
13.235,-0.656,0.799,-0.078
13.245,-0.656,0.799,-0.084
13.255,-0.656,0.801,-0.076
13.265,-0.652,0.797,-0.076
13.275,-0.652,0.801,-0.080
13.285,-0.650,0.803,-0.082
13.295,-0.650,0.801,-0.084
13.305,-0.652,0.801,-0.080
13.315,-0.650,0.793,-0.080
13.325,-0.654,0.795,-0.082
13.335,-0.656,0.797,-0.080
13.345,-0.656,0.801,-0.080
13.355,-0.658,0.801,-0.080
13.365,-0.656,0.799,-0.080
13.375,-0.654,0.797,-0.080
13.385,-0.654,0.797,-0.080
13.395,-0.656,0.795,-0.080
13.405,-0.654,0.797,-0.080
13.415,-0.656,0.797,-0.082
13.425,-0.654,0.797,-0.082
13.435,-0.652,0.799,-0.080
13.445,-0.652,0.797,-0.078
13.455,-0.650,0.803,-0.076
13.465,-0.650,0.803,-0.076
13.475,-0.648,0.801,-0.076
13.485,-0.650,0.803,-0.074
13.495,-0.650,0.801,-0.076
13.505,-0.648,0.801,-0.076
13.515,-0.652,0.797,-0.074
13.525,-0.650,0.799,-0.080
13.535,-0.654,0.803,-0.078
13.545,-0.654,0.807,-0.076
13.555,-0.652,0.803,-0.076
13.565,-0.648,0.799,-0.076
13.575,-0.652,0.799,-0.078
13.585,-0.652,0.801,-0.074
13.595,-0.652,0.803,-0.080
13.605,-0.652,0.803,-0.076
13.615,-0.656,0.805,-0.078
13.625,-0.654,0.807,-0.072
13.635,-0.646,0.801,-0.076
13.645,-0.648,0.799,-0.080
13.655,-0.648,0.799,-0.076
13.665,-0.650,0.799,-0.076
13.675,-0.652,0.801,-0.070
13.685,-0.652,0.799,-0.072
13.695,-0.650,0.801,-0.074
13.705,-0.650,0.799,-0.076
13.715,-0.654,0.801,-0.078
13.725,-0.650,0.797,-0.078
13.735,-0.652,0.801,-0.076
13.745,-0.654,0.799,-0.076
13.755,-0.656,0.795,-0.076
13.765,-0.658,0.799,-0.074
13.775,-0.656,0.799,-0.078
13.785,-0.654,0.795,-0.076
13.795,-0.658,0.799,-0.076
13.805,-0.662,0.797,-0.074
13.815,-0.660,0.795,-0.072
13.825,-0.662,0.797,-0.074
13.835,-0.658,0.795,-0.070
13.845,-0.654,0.799,-0.074
13.855,-0.658,0.797,-0.076
13.865,-0.658,0.799,-0.076
13.875,-0.658,0.799,-0.070
13.885,-0.658,0.795,-0.074
13.895,-0.658,0.799,-0.076
13.905,-0.658,0.801,-0.072
13.915,-0.652,0.801,-0.070
13.925,-0.658,0.803,-0.072
13.935,-0.656,0.797,-0.072
13.945,-0.656,0.793,-0.072
13.955,-0.656,0.793,-0.072
13.965,-0.656,0.797,-0.076
13.975,-0.660,0.797,-0.070
13.985,-0.660,0.799,-0.072
13.995,-0.658,0.801,-0.072
14.005,-0.660,0.801,-0.072
14.015,-0.656,0.797,-0.072
14.025,-0.656,0.795,-0.074
14.035,-0.656,0.795,-0.076
14.045,-0.656,0.795,-0.074
14.055,-0.656,0.797,-0.074
14.065,-0.654,0.799,-0.074
14.075,-0.654,0.801,-0.072
14.085,-0.650,0.799,-0.070
14.095,-0.654,0.803,-0.070
14.105,-0.650,0.801,-0.068
14.115,-0.652,0.803,-0.068
14.125,-0.652,0.801,-0.072
14.135,-0.652,0.797,-0.070
14.145,-0.656,0.799,-0.072
14.155,-0.654,0.795,-0.072
14.165,-0.658,0.803,-0.072
14.175,-0.658,0.807,-0.072
14.185,-0.654,0.797,-0.074
14.195,-0.652,0.795,-0.074
14.205,-0.654,0.795,-0.074
14.215,-0.654,0.799,-0.074
14.225,-0.662,0.803,-0.072
14.235,-0.658,0.803,-0.076
14.245,-0.656,0.801,-0.076
14.255,-0.652,0.801,-0.072
14.265,-0.652,0.801,-0.072
14.275,-0.648,0.801,-0.070
14.285,-0.648,0.795,-0.070
14.295,-0.646,0.797,-0.074
14.305,-0.652,0.799,-0.072
14.315,-0.652,0.795,-0.074
14.325,-0.656,0.801,-0.074
14.335,-0.656,0.799,-0.074
14.345,-0.654,0.801,-0.076
14.355,-0.656,0.797,-0.076
14.365,-0.658,0.799,-0.080
14.375,-0.658,0.799,-0.074
14.385,-0.656,0.795,-0.076
14.395,-0.656,0.797,-0.076
14.405,-0.660,0.799,-0.076
14.415,-0.662,0.797,-0.074
14.425,-0.658,0.799,-0.078
14.435,-0.658,0.797,-0.078
14.445,-0.658,0.793,-0.078
14.455,-0.656,0.797,-0.076
14.465,-0.658,0.795,-0.074
14.475,-0.660,0.795,-0.074
14.485,-0.658,0.797,-0.074
14.495,-0.662,0.797,-0.076
14.505,-0.664,0.799,-0.076
14.515,-0.660,0.799,-0.076
14.525,-0.660,0.797,-0.072
14.535,-0.654,0.797,-0.072
14.545,-0.656,0.799,-0.072
14.555,-0.656,0.801,-0.070
14.565,-0.656,0.801,-0.070
14.575,-0.656,0.795,-0.072
14.585,-0.658,0.793,-0.072
14.595,-0.660,0.791,-0.072
14.605,-0.664,0.797,-0.070
14.615,-0.662,0.803,-0.068
14.625,-0.662,0.801,-0.070
14.635,-0.662,0.797,-0.068
14.645,-0.662,0.795,-0.070
14.655,-0.660,0.795,-0.068
14.665,-0.658,0.793,-0.068
14.675,-0.660,0.793,-0.066
14.685,-0.660,0.793,-0.068
14.695,-0.658,0.795,-0.070
14.705,-0.660,0.793,-0.070
14.715,-0.660,0.797,-0.064
14.725,-0.662,0.797,-0.066
14.735,-0.658,0.797,-0.070
14.745,-0.658,0.797,-0.062
14.755,-0.662,0.795,-0.064
14.765,-0.660,0.795,-0.064
14.775,-0.660,0.793,-0.070
14.785,-0.660,0.791,-0.070
14.795,-0.660,0.795,-0.066
14.805,-0.662,0.801,-0.062
14.815,-0.660,0.799,-0.064
14.825,-0.658,0.795,-0.066
14.835,-0.660,0.793,-0.066
14.845,-0.662,0.797,-0.068
14.855,-0.662,0.801,-0.066
14.865,-0.664,0.801,-0.066
14.875,-0.660,0.803,-0.066
14.885,-0.660,0.799,-0.061
14.895,-0.658,0.797,-0.066
14.905,-0.658,0.791,-0.064
14.915,-0.656,0.795,-0.062
14.925,-0.658,0.791,-0.066
14.935,-0.658,0.793,-0.064
14.945,-0.658,0.793,-0.064
14.955,-0.660,0.793,-0.068
14.965,-0.660,0.797,-0.064
14.975,-0.660,0.795,-0.064
14.985,-0.660,0.795,-0.062
14.995,-0.664,0.795,-0.064
15.005,-0.660,0.795,-0.066
15.015,-0.666,0.795,-0.066
15.025,-0.664,0.793,-0.066
15.035,-0.666,0.793,-0.066
15.045,-0.664,0.793,-0.068
15.055,-0.660,0.795,-0.068
15.065,-0.662,0.793,-0.064
15.075,-0.664,0.795,-0.072
15.085,-0.658,0.797,-0.066
15.095,-0.660,0.797,-0.066
15.105,-0.660,0.797,-0.066
15.115,-0.664,0.793,-0.072
15.125,-0.662,0.795,-0.070
15.135,-0.664,0.795,-0.068
15.145,-0.664,0.793,-0.068
15.155,-0.664,0.793,-0.066
15.165,-0.662,0.793,-0.068
15.175,-0.662,0.799,-0.068
15.185,-0.662,0.799,-0.070
15.195,-0.664,0.793,-0.070
15.205,-0.666,0.791,-0.070
15.215,-0.668,0.795,-0.070
15.225,-0.672,0.797,-0.066
15.235,-0.668,0.791,-0.068
15.245,-0.666,0.791,-0.068
15.255,-0.666,0.793,-0.066
15.265,-0.662,0.791,-0.070
15.275,-0.664,0.789,-0.064
15.285,-0.666,0.789,-0.070
15.295,-0.666,0.785,-0.068
15.305,-0.662,0.789,-0.068
15.315,-0.666,0.791,-0.068
15.325,-0.664,0.795,-0.066
15.335,-0.664,0.795,-0.064
15.345,-0.666,0.793,-0.066
15.355,-0.666,0.793,-0.066
15.365,-0.664,0.793,-0.066
15.375,-0.664,0.793,-0.066
15.385,-0.666,0.791,-0.066
15.395,-0.664,0.789,-0.066
15.405,-0.660,0.791,-0.066
15.415,-0.666,0.797,-0.064
15.425,-0.662,0.799,-0.062
15.435,-0.662,0.791,-0.068
15.445,-0.662,0.789,-0.068
15.455,-0.664,0.789,-0.064
15.465,-0.662,0.793,-0.066
15.475,-0.662,0.793,-0.066
15.485,-0.666,0.795,-0.066
15.495,-0.666,0.797,-0.064
15.505,-0.666,0.797,-0.064
15.515,-0.664,0.793,-0.064
15.525,-0.664,0.793,-0.066
15.535,-0.664,0.791,-0.064
15.545,-0.666,0.789,-0.068
15.555,-0.664,0.789,-0.068
15.565,-0.662,0.791,-0.068
15.575,-0.664,0.791,-0.064
15.585,-0.664,0.795,-0.066
15.595,-0.664,0.797,-0.064
15.605,-0.664,0.793,-0.070
15.615,-0.664,0.793,-0.068
15.625,-0.666,0.793,-0.068
15.635,-0.666,0.793,-0.066
15.645,-0.666,0.795,-0.070
15.655,-0.666,0.791,-0.070
15.665,-0.666,0.795,-0.068
15.675,-0.664,0.793,-0.070
15.685,-0.664,0.791,-0.066
15.695,-0.662,0.791,-0.066
15.705,-0.664,0.797,-0.066
15.715,-0.668,0.791,-0.066
15.725,-0.668,0.791,-0.066
15.735,-0.668,0.793,-0.068
15.745,-0.666,0.789,-0.066
15.755,-0.668,0.795,-0.068
15.765,-0.666,0.795,-0.064
15.775,-0.664,0.797,-0.064
15.785,-0.668,0.795,-0.066
15.795,-0.666,0.791,-0.068
15.805,-0.666,0.787,-0.068
15.815,-0.670,0.791,-0.066
15.825,-0.670,0.793,-0.064
15.835,-0.670,0.793,-0.061
15.845,-0.670,0.791,-0.064
15.855,-0.670,0.793,-0.066
15.865,-0.668,0.791,-0.062
15.875,-0.666,0.787,-0.062
15.885,-0.668,0.785,-0.061
15.895,-0.664,0.785,-0.062
15.905,-0.666,0.789,-0.064
15.915,-0.668,0.789,-0.061
15.925,-0.664,0.787,-0.066
15.935,-0.664,0.789,-0.064
15.945,-0.666,0.793,-0.062
15.955,-0.666,0.793,-0.061
15.965,-0.664,0.793,-0.061
15.975,-0.666,0.793,-0.064
15.985,-0.664,0.793,-0.064
15.995,-0.664,0.787,-0.062
16.005,-0.666,0.787,-0.059
16.015,-0.666,0.791,-0.062
16.025,-0.668,0.797,-0.062
16.035,-0.662,0.797,-0.059
16.045,-0.662,0.793,-0.064
16.055,-0.662,0.789,-0.062
16.065,-0.664,0.795,-0.064
16.075,-0.664,0.797,-0.062
16.085,-0.662,0.797,-0.064
16.095,-0.662,0.797,-0.061
16.105,-0.664,0.793,-0.062
16.115,-0.664,0.793,-0.062
16.125,-0.660,0.793,-0.062
16.135,-0.660,0.793,-0.062
16.145,-0.658,0.793,-0.061
16.155,-0.660,0.793,-0.061
16.165,-0.662,0.791,-0.061
16.175,-0.664,0.793,-0.064
16.185,-0.662,0.795,-0.066
16.195,-0.666,0.795,-0.062
16.205,-0.664,0.795,-0.062
16.215,-0.664,0.795,-0.066
16.225,-0.664,0.795,-0.068
16.235,-0.668,0.793,-0.066
16.245,-0.668,0.793,-0.064
16.255,-0.668,0.793,-0.068
16.265,-0.666,0.793,-0.064
16.275,-0.666,0.793,-0.068
16.285,-0.666,0.791,-0.068
16.295,-0.668,0.791,-0.066
16.305,-0.668,0.791,-0.068
16.315,-0.668,0.789,-0.066
16.325,-0.668,0.789,-0.068
16.335,-0.668,0.791,-0.068
16.345,-0.672,0.793,-0.068
16.355,-0.670,0.793,-0.066
16.365,-0.672,0.791,-0.066
16.375,-0.666,0.789,-0.068
16.385,-0.670,0.791,-0.066
16.395,-0.670,0.793,-0.068
16.405,-0.666,0.795,-0.066
16.415,-0.666,0.793,-0.066
16.425,-0.664,0.789,-0.068
16.435,-0.666,0.785,-0.070
16.445,-0.668,0.783,-0.068
16.455,-0.668,0.791,-0.064
16.465,-0.672,0.793,-0.066
16.475,-0.670,0.797,-0.068
16.485,-0.670,0.793,-0.068
16.495,-0.668,0.795,-0.068
16.505,-0.668,0.787,-0.066
16.515,-0.666,0.785,-0.066
16.525,-0.668,0.789,-0.068
16.535,-0.666,0.791,-0.072
16.545,-0.668,0.789,-0.070
16.555,-0.666,0.791,-0.062
16.565,-0.666,0.795,-0.066
16.575,-0.666,0.793,-0.064
16.585,-0.664,0.795,-0.066
16.595,-0.664,0.793,-0.064
16.605,-0.662,0.795,-0.062
16.615,-0.662,0.793,-0.066
16.625,-0.664,0.793,-0.068
16.635,-0.664,0.791,-0.068
16.645,-0.666,0.789,-0.066
16.655,-0.666,0.795,-0.066
16.665,-0.668,0.799,-0.064
16.675,-0.662,0.793,-0.064
16.685,-0.660,0.791,-0.064
16.695,-0.662,0.793,-0.066
16.705,-0.662,0.795,-0.064
16.715,-0.666,0.797,-0.066
16.725,-0.668,0.795,-0.064
16.735,-0.666,0.799,-0.061
16.745,-0.662,0.795,-0.066
16.755,-0.660,0.795,-0.064
16.765,-0.660,0.793,-0.066
16.775,-0.660,0.791,-0.066
16.785,-0.660,0.793,-0.066
16.795,-0.660,0.793,-0.066
16.805,-0.660,0.793,-0.066
16.815,-0.662,0.795,-0.066
16.825,-0.660,0.797,-0.070
16.835,-0.662,0.797,-0.064
16.845,-0.662,0.797,-0.066
16.855,-0.664,0.793,-0.066
16.865,-0.666,0.793,-0.068
16.875,-0.666,0.793,-0.068
16.885,-0.668,0.793,-0.066
16.895,-0.668,0.791,-0.066
16.905,-0.672,0.789,-0.066
16.915,-0.666,0.791,-0.070
16.925,-0.666,0.791,-0.070
16.935,-0.668,0.791,-0.066
16.945,-0.666,0.793,-0.068
16.955,-0.666,0.787,-0.062
16.965,-0.666,0.791,-0.068
16.975,-0.666,0.795,-0.068
16.985,-0.666,0.797,-0.066
16.995,-0.664,0.795,-0.066
17.005,-0.666,0.795,-0.070
17.015,-0.664,0.791,-0.068
17.025,-0.660,0.793,-0.068
17.035,-0.660,0.797,-0.064
17.045,-0.662,0.795,-0.066
17.055,-0.662,0.797,-0.068
17.065,-0.662,0.793,-0.066
17.075,-0.660,0.791,-0.066
17.085,-0.662,0.787,-0.070
17.095,-0.666,0.793,-0.068
17.105,-0.668,0.797,-0.064
17.115,-0.664,0.797,-0.066
17.125,-0.666,0.795,-0.064
17.135,-0.670,0.791,-0.066
17.145,-0.668,0.789,-0.064
17.155,-0.664,0.791,-0.066
17.165,-0.662,0.789,-0.066
17.175,-0.664,0.791,-0.066
17.185,-0.662,0.793,-0.064
17.195,-0.670,0.791,-0.066
17.205,-0.664,0.795,-0.062
17.215,-0.662,0.795,-0.064
17.225,-0.664,0.795,-0.061
17.235,-0.658,0.795,-0.062
17.245,-0.660,0.797,-0.061
17.255,-0.660,0.797,-0.064
17.265,-0.660,0.795,-0.062
17.275,-0.660,0.791,-0.066
17.285,-0.660,0.793,-0.064
17.295,-0.662,0.799,-0.062
17.305,-0.660,0.801,-0.062
17.315,-0.658,0.797,-0.062
17.325,-0.658,0.795,-0.066
17.335,-0.654,0.795,-0.066
17.345,-0.652,0.795,-0.066
17.355,-0.656,0.801,-0.062
17.365,-0.656,0.803,-0.061
17.375,-0.654,0.805,-0.061
17.385,-0.654,0.803,-0.064
17.395,-0.658,0.803,-0.061
17.405,-0.658,0.801,-0.064
17.415,-0.656,0.801,-0.064
17.425,-0.658,0.803,-0.062
17.435,-0.656,0.801,-0.064
17.445,-0.656,0.799,-0.068
17.455,-0.660,0.797,-0.064
17.465,-0.658,0.797,-0.062
17.475,-0.654,0.797,-0.066
17.485,-0.650,0.797,-0.064
17.495,-0.654,0.799,-0.062
17.505,-0.656,0.801,-0.062
17.515,-0.660,0.799,-0.062
17.525,-0.658,0.801,-0.064
17.535,-0.656,0.801,-0.061
17.545,-0.656,0.793,-0.062
17.555,-0.658,0.799,-0.064
17.565,-0.660,0.797,-0.066
17.575,-0.658,0.795,-0.066
17.585,-0.658,0.795,-0.066
17.595,-0.658,0.799,-0.066
17.605,-0.654,0.799,-0.066
17.615,-0.658,0.799,-0.066
17.625,-0.660,0.801,-0.066
17.635,-0.658,0.799,-0.066
17.645,-0.654,0.803,-0.064
17.655,-0.652,0.803,-0.064
17.665,-0.652,0.803,-0.062
17.675,-0.654,0.807,-0.062
17.685,-0.650,0.805,-0.062
17.695,-0.650,0.799,-0.064
17.705,-0.652,0.801,-0.064
17.715,-0.658,0.803,-0.066
17.725,-0.658,0.803,-0.064
17.735,-0.656,0.803,-0.062
17.745,-0.658,0.801,-0.064
17.755,-0.658,0.803,-0.064
17.765,-0.656,0.801,-0.062
17.775,-0.658,0.797,-0.068
17.785,-0.654,0.795,-0.068
17.795,-0.652,0.797,-0.068
17.805,-0.654,0.801,-0.066
17.815,-0.656,0.799,-0.066
17.825,-0.652,0.801,-0.070
17.835,-0.654,0.799,-0.070
17.845,-0.656,0.803,-0.068
17.855,-0.654,0.803,-0.068
17.865,-0.656,0.803,-0.066
17.875,-0.654,0.801,-0.070
17.885,-0.658,0.803,-0.070
17.895,-0.654,0.801,-0.070
17.905,-0.652,0.805,-0.068
17.915,-0.652,0.809,-0.066
17.925,-0.652,0.807,-0.066
17.935,-0.652,0.799,-0.068
17.945,-0.650,0.799,-0.072
17.955,-0.654,0.801,-0.072
17.965,-0.656,0.807,-0.074
17.975,-0.656,0.807,-0.070
17.985,-0.656,0.803,-0.068
17.995,-0.654,0.803,-0.066
18.005,-0.654,0.801,-0.066
18.015,-0.652,0.803,-0.066
18.025,-0.650,0.799,-0.068
18.035,-0.652,0.795,-0.068
18.045,-0.648,0.795,-0.066
18.055,-0.652,0.795,-0.068
18.065,-0.654,0.795,-0.072
18.075,-0.656,0.797,-0.070
18.085,-0.654,0.799,-0.066
18.095,-0.654,0.797,-0.068
18.105,-0.656,0.801,-0.072
18.115,-0.656,0.801,-0.068
18.125,-0.656,0.805,-0.068
18.135,-0.656,0.799,-0.066
18.145,-0.656,0.797,-0.070
18.155,-0.658,0.797,-0.070
18.165,-0.656,0.799,-0.070
18.175,-0.656,0.797,-0.072
18.185,-0.654,0.799,-0.070
18.195,-0.658,0.803,-0.068
18.205,-0.656,0.801,-0.070
18.215,-0.658,0.797,-0.072
18.225,-0.656,0.799,-0.070
18.235,-0.656,0.801,-0.070
18.245,-0.658,0.801,-0.068
18.255,-0.654,0.797,-0.070
18.265,-0.654,0.803,-0.070
18.275,-0.658,0.803,-0.070
18.285,-0.654,0.801,-0.072
18.295,-0.660,0.793,-0.072
18.305,-0.664,0.795,-0.070
18.315,-0.664,0.797,-0.072
18.325,-0.664,0.799,-0.070
18.335,-0.660,0.799,-0.066
18.345,-0.658,0.797,-0.066
18.355,-0.660,0.797,-0.072
18.365,-0.656,0.795,-0.070
18.375,-0.658,0.795,-0.070
18.385,-0.658,0.793,-0.068
18.395,-0.654,0.795,-0.068
18.405,-0.658,0.795,-0.068
18.415,-0.656,0.797,-0.070
18.425,-0.656,0.801,-0.066
18.435,-0.656,0.799,-0.066
18.445,-0.656,0.801,-0.068
18.455,-0.654,0.801,-0.064
18.465,-0.654,0.801,-0.064
18.475,-0.652,0.801,-0.064
18.485,-0.656,0.797,-0.066
18.495,-0.650,0.797,-0.066
18.505,-0.652,0.807,-0.064
18.515,-0.654,0.809,-0.062
18.525,-0.652,0.801,-0.062
18.535,-0.658,0.793,-0.064
18.545,-0.654,0.793,-0.064
18.555,-0.652,0.801,-0.066
18.565,-0.652,0.801,-0.066
18.575,-0.656,0.805,-0.066
18.585,-0.656,0.801,-0.064
18.595,-0.654,0.799,-0.066
18.605,-0.654,0.801,-0.066
18.615,-0.652,0.797,-0.066
18.625,-0.654,0.797,-0.066
18.635,-0.654,0.797,-0.068
18.645,-0.654,0.799,-0.066
18.655,-0.656,0.799,-0.068
18.665,-0.656,0.801,-0.066
18.675,-0.654,0.801,-0.066
18.685,-0.650,0.809,-0.064
18.695,-0.645,0.812,-0.066
18.705,-0.639,0.807,-0.068
18.715,-0.643,0.805,-0.072
18.725,-0.650,0.803,-0.070
18.735,-0.658,0.803,-0.072
18.745,-0.654,0.799,-0.076
18.755,-0.658,0.803,-0.068
18.765,-0.643,0.801,-0.068
18.775,-0.654,0.801,-0.068
18.785,-0.656,0.803,-0.068
18.795,-0.662,0.803,-0.074
18.805,-0.660,0.799,-0.074
18.815,-0.662,0.803,-0.070
18.825,-0.662,0.805,-0.068
18.835,-0.660,0.803,-0.066
18.845,-0.660,0.807,-0.070
18.855,-0.662,0.803,-0.070
18.865,-0.660,0.807,-0.068
18.875,-0.660,0.797,-0.070
18.885,-0.660,0.799,-0.070
18.895,-0.656,0.799,-0.070
18.905,-0.654,0.801,-0.068
18.915,-0.650,0.801,-0.062
18.925,-0.648,0.803,-0.062
18.935,-0.643,0.801,-0.062
18.945,-0.641,0.803,-0.057
18.955,-0.641,0.801,-0.057
18.965,-0.639,0.797,-0.055
18.975,-0.637,0.803,-0.061
18.985,-0.637,0.803,-0.057
18.995,-0.637,0.805,-0.062
19.005,-0.639,0.807,-0.061
19.015,-0.641,0.809,-0.061
19.025,-0.645,0.811,-0.062
19.035,-0.643,0.814,-0.061
19.045,-0.643,0.816,-0.061
19.055,-0.645,0.814,-0.061
19.065,-0.646,0.811,-0.064
19.075,-0.646,0.807,-0.062
19.085,-0.645,0.807,-0.059
19.095,-0.648,0.812,-0.062
19.105,-0.648,0.816,-0.062
19.115,-0.645,0.811,-0.062
19.125,-0.643,0.805,-0.064
19.135,-0.641,0.807,-0.064
19.145,-0.643,0.811,-0.066
19.155,-0.646,0.811,-0.064
19.165,-0.646,0.807,-0.062
19.175,-0.645,0.811,-0.062
19.185,-0.645,0.809,-0.068
19.195,-0.643,0.809,-0.064
19.205,-0.645,0.807,-0.066
19.215,-0.645,0.803,-0.062
19.225,-0.645,0.809,-0.066
19.235,-0.645,0.807,-0.068
19.245,-0.645,0.807,-0.068
19.255,-0.646,0.807,-0.070
19.265,-0.645,0.805,-0.070
19.275,-0.650,0.807,-0.068
19.285,-0.646,0.809,-0.072
19.295,-0.648,0.805,-0.072
19.305,-0.650,0.809,-0.068
19.315,-0.648,0.811,-0.068
19.325,-0.652,0.807,-0.070
19.335,-0.652,0.805,-0.070
19.345,-0.652,0.803,-0.074
19.355,-0.648,0.801,-0.070
19.365,-0.650,0.803,-0.070
19.375,-0.648,0.807,-0.070
19.385,-0.650,0.807,-0.068
19.395,-0.650,0.803,-0.068
19.405,-0.650,0.805,-0.068
19.415,-0.648,0.809,-0.068
19.425,-0.648,0.807,-0.068
19.435,-0.646,0.805,-0.066
19.445,-0.650,0.807,-0.068
19.455,-0.648,0.807,-0.066
19.465,-0.646,0.801,-0.068
19.475,-0.648,0.801,-0.068
19.485,-0.648,0.803,-0.070
19.495,-0.650,0.807,-0.068
19.505,-0.652,0.803,-0.066
19.515,-0.652,0.807,-0.064
19.525,-0.652,0.803,-0.068
19.535,-0.648,0.803,-0.070
19.545,-0.648,0.803,-0.066
19.555,-0.650,0.801,-0.070
19.565,-0.646,0.801,-0.064
19.575,-0.646,0.801,-0.068
19.585,-0.646,0.801,-0.068
19.595,-0.646,0.807,-0.068
19.605,-0.646,0.807,-0.070
19.615,-0.646,0.805,-0.066
19.625,-0.646,0.809,-0.068
19.635,-0.645,0.809,-0.064
19.645,-0.648,0.811,-0.068
19.655,-0.645,0.809,-0.066
19.665,-0.646,0.805,-0.064
19.675,-0.646,0.807,-0.068
19.685,-0.646,0.809,-0.064
19.695,-0.654,0.816,-0.064
19.705,-0.646,0.809,-0.064
19.715,-0.646,0.803,-0.064
19.725,-0.646,0.805,-0.068
19.735,-0.646,0.807,-0.062
19.745,-0.650,0.811,-0.066
19.755,-0.648,0.812,-0.066
19.765,-0.652,0.811,-0.066
19.775,-0.650,0.809,-0.062
19.785,-0.650,0.807,-0.064
19.795,-0.648,0.805,-0.064
19.805,-0.646,0.805,-0.064
19.815,-0.650,0.805,-0.064
19.825,-0.646,0.803,-0.066
19.835,-0.646,0.807,-0.068
19.845,-0.648,0.801,-0.066
19.855,-0.648,0.805,-0.068
19.865,-0.650,0.807,-0.066
19.875,-0.650,0.803,-0.066
19.885,-0.654,0.803,-0.064
19.895,-0.652,0.805,-0.062
19.905,-0.652,0.803,-0.066
19.915,-0.656,0.803,-0.068
19.925,-0.656,0.801,-0.066
19.935,-0.654,0.799,-0.066
19.945,-0.656,0.801,-0.066
19.955,-0.654,0.799,-0.066
19.965,-0.656,0.799,-0.066
19.975,-0.656,0.803,-0.066
19.985,-0.654,0.807,-0.066
19.995,-0.654,0.803,-0.068
20.005,-0.656,0.805,-0.064
20.015,-0.654,0.803,-0.066
20.025,-0.650,0.803,-0.066
20.035,-0.650,0.803,-0.066
20.045,-0.650,0.807,-0.064
20.055,-0.648,0.803,-0.064
20.065,-0.652,0.799,-0.066
20.075,-0.650,0.797,-0.070
20.085,-0.650,0.797,-0.064
20.095,-0.656,0.803,-0.066
20.105,-0.660,0.803,-0.064
20.115,-0.656,0.807,-0.064
20.125,-0.656,0.803,-0.066
20.135,-0.656,0.801,-0.070
20.145,-0.654,0.803,-0.068
20.155,-0.652,0.799,-0.068
20.165,-0.652,0.801,-0.070
20.175,-0.650,0.803,-0.066
20.185,-0.654,0.803,-0.070
20.195,-0.650,0.805,-0.066
20.205,-0.648,0.805,-0.068
20.215,-0.646,0.809,-0.066
20.225,-0.643,0.809,-0.066
20.235,-0.648,0.805,-0.066
20.245,-0.645,0.809,-0.064
20.255,-0.645,0.807,-0.068
20.265,-0.646,0.803,-0.068
20.275,-0.648,0.803,-0.066
20.285,-0.650,0.807,-0.068
20.295,-0.650,0.811,-0.068
20.305,-0.645,0.807,-0.064
20.315,-0.645,0.803,-0.068
20.325,-0.648,0.807,-0.072
20.335,-0.646,0.807,-0.068
20.345,-0.650,0.809,-0.070
20.355,-0.648,0.809,-0.070
20.365,-0.650,0.811,-0.070
20.375,-0.643,0.807,-0.068
20.385,-0.645,0.805,-0.068
20.395,-0.643,0.803,-0.068
20.405,-0.645,0.803,-0.070
20.415,-0.645,0.805,-0.068
20.425,-0.645,0.803,-0.074
20.435,-0.646,0.803,-0.070
20.445,-0.646,0.803,-0.072
20.455,-0.646,0.805,-0.070
20.465,-0.648,0.805,-0.070
20.475,-0.648,0.809,-0.074
20.485,-0.648,0.807,-0.072
20.495,-0.650,0.807,-0.068
20.505,-0.646,0.809,-0.072
20.515,-0.646,0.807,-0.074
20.525,-0.648,0.803,-0.072
20.535,-0.646,0.807,-0.072
20.545,-0.650,0.801,-0.070
20.555,-0.648,0.803,-0.074
20.565,-0.650,0.801,-0.070
20.575,-0.650,0.801,-0.072
20.585,-0.650,0.803,-0.072
20.595,-0.654,0.803,-0.076
20.605,-0.650,0.803,-0.070
20.615,-0.652,0.803,-0.068
20.625,-0.652,0.801,-0.070
20.635,-0.650,0.803,-0.072
20.645,-0.650,0.807,-0.068
20.655,-0.650,0.807,-0.068
20.665,-0.648,0.805,-0.072
20.675,-0.650,0.803,-0.072
20.685,-0.650,0.803,-0.072
20.695,-0.652,0.803,-0.070
20.705,-0.652,0.803,-0.068
20.715,-0.652,0.807,-0.068
20.725,-0.654,0.803,-0.068
20.735,-0.652,0.805,-0.070
20.745,-0.650,0.803,-0.066
20.755,-0.648,0.801,-0.066
20.765,-0.646,0.803,-0.068
20.775,-0.648,0.805,-0.070
20.785,-0.646,0.805,-0.068
20.795,-0.650,0.803,-0.068
20.805,-0.648,0.807,-0.068
20.815,-0.648,0.805,-0.068
20.825,-0.650,0.809,-0.068
20.835,-0.648,0.805,-0.066
20.845,-0.648,0.805,-0.066
20.855,-0.648,0.805,-0.068
20.865,-0.648,0.807,-0.064
20.875,-0.650,0.805,-0.066
20.885,-0.646,0.803,-0.064
20.895,-0.652,0.809,-0.064
20.905,-0.648,0.811,-0.064
20.915,-0.648,0.801,-0.070
20.925,-0.650,0.797,-0.066
20.935,-0.650,0.799,-0.066
20.945,-0.652,0.805,-0.062
20.955,-0.656,0.807,-0.064
20.965,-0.656,0.809,-0.064
20.975,-0.652,0.807,-0.064
20.985,-0.650,0.801,-0.064
20.995,-0.652,0.801,-0.064
21.005,-0.648,0.799,-0.064
21.015,-0.646,0.797,-0.064
21.025,-0.646,0.797,-0.064
21.035,-0.646,0.801,-0.068
21.045,-0.645,0.799,-0.068
21.055,-0.648,0.803,-0.064
21.065,-0.650,0.805,-0.068
21.075,-0.652,0.803,-0.068
21.085,-0.650,0.803,-0.068
21.095,-0.654,0.807,-0.070
21.105,-0.652,0.805,-0.072
21.115,-0.652,0.803,-0.070
21.125,-0.650,0.803,-0.072
21.135,-0.654,0.801,-0.074
21.145,-0.652,0.803,-0.076
21.155,-0.652,0.801,-0.076
21.165,-0.650,0.797,-0.074
21.175,-0.648,0.803,-0.076
21.185,-0.654,0.805,-0.072
21.195,-0.652,0.801,-0.076
21.205,-0.650,0.799,-0.078
21.215,-0.654,0.801,-0.076
21.225,-0.650,0.799,-0.074
21.235,-0.648,0.797,-0.078
21.245,-0.648,0.803,-0.074
21.255,-0.650,0.809,-0.076
21.265,-0.650,0.809,-0.080
21.275,-0.652,0.801,-0.078
21.285,-0.654,0.801,-0.078
21.295,-0.656,0.805,-0.078
21.305,-0.656,0.803,-0.076
21.315,-0.656,0.807,-0.076
21.325,-0.652,0.807,-0.074
21.335,-0.652,0.805,-0.076
21.345,-0.648,0.803,-0.072
21.355,-0.650,0.801,-0.072
21.365,-0.648,0.797,-0.070
21.375,-0.648,0.801,-0.072
21.385,-0.650,0.797,-0.072
21.395,-0.652,0.801,-0.072
21.405,-0.654,0.799,-0.068
21.415,-0.652,0.803,-0.068
21.425,-0.656,0.801,-0.068
21.435,-0.656,0.801,-0.068
21.445,-0.656,0.801,-0.066
21.455,-0.658,0.797,-0.068
21.465,-0.658,0.793,-0.070
21.475,-0.658,0.793,-0.070
21.485,-0.658,0.801,-0.066
21.495,-0.656,0.807,-0.066
21.505,-0.656,0.797,-0.068
21.515,-0.654,0.791,-0.068
21.525,-0.656,0.791,-0.070
21.535,-0.656,0.799,-0.066
21.545,-0.658,0.801,-0.064
21.555,-0.656,0.801,-0.064
21.565,-0.658,0.799,-0.064
21.575,-0.654,0.801,-0.066
21.585,-0.654,0.797,-0.066
21.595,-0.654,0.799,-0.066
21.605,-0.652,0.795,-0.062
21.615,-0.650,0.795,-0.062
21.625,-0.650,0.793,-0.068
21.635,-0.654,0.795,-0.068
21.645,-0.652,0.797,-0.068
21.655,-0.658,0.795,-0.068
21.665,-0.658,0.801,-0.072
21.675,-0.658,0.801,-0.068
21.685,-0.662,0.799,-0.072
21.695,-0.660,0.799,-0.070
21.705,-0.660,0.799,-0.068
21.715,-0.662,0.795,-0.070
21.725,-0.662,0.793,-0.074
21.735,-0.664,0.795,-0.072
21.745,-0.662,0.793,-0.070
21.755,-0.660,0.797,-0.068
21.765,-0.664,0.797,-0.070
21.775,-0.660,0.797,-0.068
21.785,-0.660,0.795,-0.068
21.795,-0.662,0.799,-0.070
21.805,-0.660,0.795,-0.070
21.815,-0.658,0.795,-0.072
21.825,-0.662,0.797,-0.068
21.835,-0.662,0.799,-0.070
21.845,-0.658,0.799,-0.068
21.855,-0.662,0.787,-0.070
21.865,-0.662,0.789,-0.072
21.875,-0.670,0.793,-0.074
21.885,-0.670,0.793,-0.070
21.895,-0.666,0.793,-0.070
21.905,-0.668,0.793,-0.074
21.915,-0.664,0.793,-0.070
21.925,-0.664,0.789,-0.072
21.935,-0.664,0.789,-0.070
21.945,-0.666,0.787,-0.072
21.955,-0.664,0.785,-0.076
21.965,-0.664,0.789,-0.072
21.975,-0.664,0.791,-0.070
21.985,-0.662,0.791,-0.070
21.995,-0.662,0.791,-0.076
22.005,-0.656,0.795,-0.072
22.015,-0.658,0.795,-0.076
22.025,-0.658,0.797,-0.068
22.035,-0.656,0.795,-0.072
22.045,-0.656,0.795,-0.072
22.055,-0.658,0.791,-0.074
22.065,-0.656,0.795,-0.076
22.075,-0.662,0.803,-0.078
22.085,-0.656,0.801,-0.072
22.095,-0.656,0.793,-0.076
22.105,-0.656,0.793,-0.076
22.115,-0.656,0.797,-0.080
22.125,-0.654,0.799,-0.082
22.135,-0.658,0.803,-0.082
22.145,-0.658,0.803,-0.078
22.155,-0.656,0.803,-0.082
22.165,-0.656,0.799,-0.080
22.175,-0.652,0.801,-0.082
22.185,-0.654,0.799,-0.082
22.195,-0.652,0.797,-0.082
22.205,-0.650,0.797,-0.084
22.215,-0.654,0.797,-0.084
22.225,-0.654,0.797,-0.082
22.235,-0.654,0.795,-0.084
22.245,-0.654,0.801,-0.084
22.255,-0.654,0.799,-0.086
22.265,-0.656,0.801,-0.084
22.275,-0.654,0.801,-0.086
22.285,-0.658,0.799,-0.086
22.295,-0.658,0.799,-0.088
22.305,-0.660,0.795,-0.088
22.315,-0.660,0.795,-0.090
22.325,-0.658,0.795,-0.086
22.335,-0.662,0.793,-0.090
22.345,-0.660,0.791,-0.086
22.355,-0.662,0.797,-0.084
22.365,-0.662,0.795,-0.090
22.375,-0.664,0.793,-0.088
22.385,-0.662,0.791,-0.086
22.395,-0.664,0.793,-0.086
22.405,-0.660,0.795,-0.084
22.415,-0.662,0.793,-0.084
22.425,-0.664,0.795,-0.086
22.435,-0.662,0.795,-0.084
22.445,-0.662,0.787,-0.088
22.455,-0.662,0.787,-0.088
22.465,-0.666,0.787,-0.084
22.475,-0.668,0.793,-0.084
22.485,-0.666,0.793,-0.082
22.495,-0.668,0.795,-0.084
22.505,-0.668,0.793,-0.082
22.515,-0.664,0.791,-0.082
22.525,-0.664,0.789,-0.084
22.535,-0.662,0.791,-0.078
22.545,-0.664,0.789,-0.086
22.555,-0.660,0.791,-0.082
22.565,-0.662,0.791,-0.080
22.575,-0.662,0.793,-0.078
22.585,-0.660,0.793,-0.080
22.595,-0.662,0.793,-0.082
22.605,-0.660,0.793,-0.084
22.615,-0.658,0.797,-0.082
22.625,-0.656,0.793,-0.078
22.635,-0.660,0.797,-0.078
22.645,-0.660,0.793,-0.080
22.655,-0.658,0.791,-0.082
22.665,-0.660,0.795,-0.078
22.675,-0.664,0.805,-0.076
22.685,-0.658,0.799,-0.078
22.695,-0.656,0.795,-0.084
22.705,-0.656,0.793,-0.080
22.715,-0.658,0.793,-0.076
22.725,-0.658,0.797,-0.078
22.735,-0.662,0.799,-0.076
22.745,-0.658,0.799,-0.076
22.755,-0.658,0.799,-0.072
22.765,-0.658,0.795,-0.076
22.775,-0.660,0.793,-0.072
22.785,-0.658,0.791,-0.078
22.795,-0.654,0.791,-0.074
22.805,-0.656,0.791,-0.074
22.815,-0.656,0.791,-0.076
22.825,-0.658,0.795,-0.078
22.835,-0.662,0.795,-0.074
22.845,-0.664,0.795,-0.072
22.855,-0.664,0.793,-0.074
22.865,-0.662,0.793,-0.078
22.875,-0.664,0.795,-0.072
22.885,-0.664,0.793,-0.070
22.895,-0.664,0.791,-0.074
22.905,-0.664,0.791,-0.076
22.915,-0.664,0.791,-0.074
22.925,-0.664,0.793,-0.078
22.935,-0.666,0.787,-0.072
22.945,-0.662,0.787,-0.074
22.955,-0.664,0.791,-0.078
22.965,-0.666,0.793,-0.072
22.975,-0.664,0.793,-0.074
22.985,-0.666,0.795,-0.074
22.995,-0.668,0.793,-0.072
23.005,-0.666,0.793,-0.076
23.015,-0.664,0.791,-0.072
23.025,-0.664,0.795,-0.074
23.035,-0.664,0.797,-0.072
23.045,-0.662,0.789,-0.072
23.055,-0.662,0.787,-0.072
23.065,-0.664,0.789,-0.074
23.075,-0.664,0.791,-0.072
23.085,-0.670,0.795,-0.072
23.095,-0.668,0.795,-0.074
23.105,-0.666,0.795,-0.072
23.115,-0.666,0.793,-0.074
23.125,-0.666,0.789,-0.074
23.135,-0.666,0.785,-0.076
23.145,-0.666,0.787,-0.074
23.155,-0.666,0.787,-0.078
23.165,-0.666,0.789,-0.076
23.175,-0.664,0.791,-0.076
23.185,-0.662,0.793,-0.080
23.195,-0.664,0.793,-0.072
23.205,-0.660,0.797,-0.076
23.215,-0.662,0.797,-0.074
23.225,-0.662,0.795,-0.076
23.235,-0.662,0.793,-0.072
23.245,-0.660,0.793,-0.074
23.255,-0.664,0.789,-0.076
23.265,-0.662,0.791,-0.072
23.275,-0.664,0.795,-0.074
23.285,-0.664,0.793,-0.074
23.295,-0.662,0.789,-0.080
23.305,-0.660,0.791,-0.076
23.315,-0.664,0.791,-0.076
23.325,-0.668,0.795,-0.076
23.335,-0.670,0.797,-0.078
23.345,-0.666,0.799,-0.074
23.355,-0.666,0.795,-0.072
23.365,-0.664,0.797,-0.074
23.375,-0.660,0.795,-0.072
23.385,-0.658,0.789,-0.072
23.395,-0.660,0.791,-0.076
23.405,-0.658,0.793,-0.076
23.415,-0.660,0.793,-0.076
23.425,-0.662,0.791,-0.076
23.435,-0.662,0.793,-0.074
23.445,-0.664,0.795,-0.074
23.455,-0.662,0.791,-0.074
23.465,-0.668,0.789,-0.074
23.475,-0.666,0.791,-0.074
23.485,-0.668,0.789,-0.074
23.495,-0.666,0.791,-0.078
23.505,-0.666,0.789,-0.076
23.515,-0.668,0.789,-0.076
23.525,-0.670,0.789,-0.078
23.535,-0.668,0.791,-0.076
23.545,-0.666,0.791,-0.076
23.555,-0.664,0.789,-0.080
23.565,-0.664,0.795,-0.078
23.575,-0.662,0.793,-0.078
23.585,-0.664,0.797,-0.080
23.595,-0.666,0.793,-0.080
23.605,-0.664,0.795,-0.078
23.615,-0.666,0.793,-0.076
23.625,-0.664,0.795,-0.074
23.635,-0.666,0.791,-0.072
23.645,-0.664,0.795,-0.076
23.655,-0.664,0.799,-0.074
23.665,-0.662,0.799,-0.074
23.675,-0.662,0.789,-0.076
23.685,-0.664,0.789,-0.078
23.695,-0.664,0.789,-0.074
23.705,-0.666,0.793,-0.070
23.715,-0.664,0.797,-0.072
23.725,-0.668,0.793,-0.072
23.735,-0.664,0.793,-0.070
23.745,-0.664,0.789,-0.074
23.755,-0.664,0.787,-0.072
23.765,-0.664,0.785,-0.074
23.775,-0.664,0.789,-0.072
23.785,-0.664,0.791,-0.072
23.795,-0.660,0.789,-0.070
23.805,-0.662,0.793,-0.074
23.815,-0.660,0.795,-0.072
23.825,-0.660,0.789,-0.070
23.835,-0.660,0.799,-0.074
23.845,-0.660,0.791,-0.072
23.855,-0.662,0.795,-0.070
23.865,-0.660,0.795,-0.072
23.875,-0.662,0.787,-0.072
23.885,-0.660,0.791,-0.072
23.895,-0.664,0.799,-0.068
23.905,-0.662,0.797,-0.070
23.915,-0.658,0.793,-0.074
23.925,-0.658,0.789,-0.072
23.935,-0.662,0.795,-0.074
23.945,-0.664,0.801,-0.072
23.955,-0.668,0.799,-0.072
23.965,-0.662,0.797,-0.072
23.975,-0.664,0.797,-0.068
23.985,-0.660,0.799,-0.068
23.995,-0.658,0.797,-0.068
24.005,-0.662,0.791,-0.074
24.015,-0.662,0.789,-0.072
24.025,-0.658,0.791,-0.070
24.035,-0.656,0.789,-0.070
24.045,-0.660,0.793,-0.068
24.055,-0.660,0.791,-0.072
24.065,-0.660,0.793,-0.072
24.075,-0.660,0.795,-0.074
24.085,-0.664,0.793,-0.072
24.095,-0.666,0.795,-0.070
24.105,-0.664,0.793,-0.074
24.115,-0.668,0.793,-0.070
24.125,-0.666,0.793,-0.074
24.135,-0.666,0.789,-0.074
24.145,-0.666,0.789,-0.076
24.155,-0.666,0.791,-0.076
24.165,-0.666,0.789,-0.074
24.175,-0.666,0.789,-0.076
24.185,-0.668,0.795,-0.072
24.195,-0.664,0.795,-0.076
24.205,-0.666,0.791,-0.076
24.215,-0.666,0.791,-0.076
24.225,-0.666,0.793,-0.076
24.235,-0.666,0.791,-0.076
24.245,-0.662,0.791,-0.076
24.255,-0.664,0.793,-0.074
24.265,-0.666,0.795,-0.076
24.275,-0.664,0.793,-0.076
24.285,-0.666,0.789,-0.074
24.295,-0.664,0.789,-0.076
24.305,-0.670,0.793,-0.076
24.315,-0.670,0.793,-0.074
24.325,-0.668,0.789,-0.072
24.335,-0.666,0.791,-0.076
24.345,-0.664,0.791,-0.078
24.355,-0.664,0.789,-0.074
24.365,-0.666,0.787,-0.074
24.375,-0.666,0.787,-0.076
24.385,-0.666,0.785,-0.078
24.395,-0.664,0.791,-0.080
24.405,-0.666,0.793,-0.074
24.415,-0.662,0.793,-0.078
24.425,-0.664,0.791,-0.074
24.435,-0.666,0.797,-0.074
24.445,-0.662,0.791,-0.074
24.455,-0.662,0.793,-0.076
24.465,-0.662,0.791,-0.080
24.475,-0.662,0.791,-0.076
24.485,-0.660,0.789,-0.080
24.495,-0.660,0.791,-0.078
24.505,-0.662,0.801,-0.074
24.515,-0.662,0.801,-0.074
24.525,-0.658,0.793,-0.080
24.535,-0.660,0.793,-0.078
24.545,-0.658,0.793,-0.074
24.555,-0.656,0.799,-0.078
24.565,-0.658,0.803,-0.076
24.575,-0.668,0.795,-0.076
24.585,-0.664,0.789,-0.076
24.595,-0.658,0.797,-0.076
24.605,-0.656,0.791,-0.078
24.615,-0.666,0.787,-0.076
24.625,-0.658,0.789,-0.080
24.635,-0.656,0.791,-0.078
24.645,-0.662,0.789,-0.076
24.655,-0.664,0.791,-0.076
24.665,-0.662,0.791,-0.078
24.675,-0.662,0.791,-0.078
24.685,-0.664,0.793,-0.076
24.695,-0.666,0.795,-0.082
24.705,-0.666,0.791,-0.078
24.715,-0.668,0.793,-0.080
24.725,-0.668,0.789,-0.082
24.735,-0.668,0.787,-0.082
24.745,-0.664,0.789,-0.080
24.755,-0.670,0.789,-0.080
24.765,-0.662,0.787,-0.082
24.775,-0.666,0.791,-0.080
24.785,-0.666,0.795,-0.082
24.795,-0.666,0.793,-0.082
24.805,-0.662,0.789,-0.082
24.815,-0.662,0.793,-0.084
24.825,-0.662,0.793,-0.084
24.835,-0.656,0.795,-0.084
24.845,-0.658,0.799,-0.084
24.855,-0.660,0.803,-0.080
24.865,-0.658,0.797,-0.082
24.875,-0.662,0.799,-0.086
24.885,-0.656,0.793,-0.082
24.895,-0.660,0.795,-0.084
24.905,-0.664,0.797,-0.080
24.915,-0.662,0.795,-0.080
24.925,-0.664,0.797,-0.080
24.935,-0.664,0.795,-0.080
24.945,-0.662,0.791,-0.078
24.955,-0.662,0.791,-0.078
24.965,-0.660,0.787,-0.078
24.975,-0.662,0.791,-0.082
24.985,-0.662,0.791,-0.078
24.995,-0.660,0.789,-0.078
25.005,-0.662,0.789,-0.078
25.015,-0.662,0.795,-0.076
25.025,-0.662,0.797,-0.078
25.035,-0.662,0.799,-0.074
25.045,-0.660,0.799,-0.074
25.055,-0.658,0.797,-0.076
25.065,-0.658,0.795,-0.078
25.075,-0.658,0.793,-0.078
25.085,-0.656,0.791,-0.076
25.095,-0.660,0.799,-0.076
25.105,-0.658,0.801,-0.074
25.115,-0.658,0.795,-0.076
25.125,-0.658,0.793,-0.078
25.135,-0.656,0.791,-0.080
25.145,-0.658,0.795,-0.076
25.155,-0.658,0.799,-0.076
25.165,-0.660,0.801,-0.076
25.175,-0.662,0.799,-0.076
25.185,-0.660,0.799,-0.074
25.195,-0.658,0.797,-0.072
25.205,-0.658,0.795,-0.072
25.215,-0.658,0.793,-0.076
25.225,-0.658,0.793,-0.076
25.235,-0.658,0.791,-0.076
25.245,-0.658,0.791,-0.076
25.255,-0.660,0.793,-0.078
25.265,-0.658,0.797,-0.078
25.275,-0.658,0.793,-0.076
25.285,-0.660,0.797,-0.082
25.295,-0.664,0.797,-0.080
25.305,-0.664,0.793,-0.080
25.315,-0.662,0.793,-0.080
25.325,-0.664,0.795,-0.078
25.335,-0.664,0.793,-0.080
25.345,-0.664,0.791,-0.078
25.355,-0.662,0.791,-0.084
25.365,-0.660,0.789,-0.078
25.375,-0.662,0.791,-0.080
25.385,-0.662,0.795,-0.076
25.395,-0.662,0.795,-0.080
25.405,-0.664,0.797,-0.080
25.415,-0.664,0.795,-0.082
25.425,-0.664,0.793,-0.082
25.435,-0.662,0.793,-0.078
25.445,-0.660,0.795,-0.078
25.455,-0.664,0.797,-0.080
25.465,-0.664,0.797,-0.080
25.475,-0.658,0.793,-0.082
25.485,-0.660,0.791,-0.076
25.495,-0.660,0.789,-0.074
25.505,-0.664,0.795,-0.078
25.515,-0.662,0.797,-0.078
25.525,-0.662,0.795,-0.076
25.535,-0.664,0.793,-0.078
25.545,-0.662,0.795,-0.078
25.555,-0.664,0.793,-0.080
25.565,-0.662,0.787,-0.076
25.575,-0.664,0.791,-0.078
25.585,-0.662,0.789,-0.080
25.595,-0.664,0.789,-0.076
25.605,-0.662,0.793,-0.076
25.615,-0.660,0.793,-0.076
25.625,-0.660,0.795,-0.074
25.635,-0.660,0.797,-0.076
25.645,-0.660,0.797,-0.074
25.655,-0.658,0.797,-0.076
25.665,-0.660,0.795,-0.074
25.675,-0.660,0.795,-0.076
25.685,-0.662,0.793,-0.072
25.695,-0.662,0.789,-0.072
25.705,-0.662,0.797,-0.074
25.715,-0.662,0.797,-0.076
25.725,-0.656,0.795,-0.072
25.735,-0.658,0.791,-0.076
25.745,-0.658,0.791,-0.076
25.755,-0.660,0.795,-0.072
25.765,-0.666,0.797,-0.074
25.775,-0.660,0.795,-0.074
25.785,-0.662,0.797,-0.072
25.795,-0.656,0.799,-0.072
25.805,-0.658,0.793,-0.070
25.815,-0.656,0.791,-0.070
25.825,-0.656,0.791,-0.074
25.835,-0.660,0.797,-0.072
25.845,-0.660,0.793,-0.072
25.855,-0.658,0.793,-0.072
25.865,-0.660,0.791,-0.074
25.875,-0.662,0.789,-0.072
25.885,-0.660,0.793,-0.074
25.895,-0.662,0.793,-0.072
25.905,-0.668,0.793,-0.072
25.915,-0.668,0.793,-0.072
25.925,-0.664,0.791,-0.072
25.935,-0.670,0.793,-0.070
25.945,-0.666,0.793,-0.072
25.955,-0.666,0.791,-0.070
25.965,-0.666,0.789,-0.072
25.975,-0.666,0.789,-0.070
25.985,-0.668,0.789,-0.070
25.995,-0.666,0.787,-0.068
26.005,-0.668,0.793,-0.072
26.015,-0.664,0.793,-0.070
26.025,-0.670,0.791,-0.070
26.035,-0.666,0.793,-0.068
26.045,-0.666,0.791,-0.068
26.055,-0.668,0.789,-0.072
26.065,-0.664,0.789,-0.070
26.075,-0.664,0.791,-0.068
26.085,-0.670,0.795,-0.070
26.095,-0.666,0.795,-0.068
26.105,-0.666,0.789,-0.072
26.115,-0.664,0.781,-0.074
26.125,-0.666,0.787,-0.072
26.135,-0.670,0.791,-0.072
26.145,-0.670,0.791,-0.070
26.155,-0.672,0.791,-0.072
26.165,-0.670,0.793,-0.072
26.175,-0.670,0.793,-0.072
26.185,-0.664,0.791,-0.070
26.195,-0.666,0.789,-0.072
26.205,-0.662,0.787,-0.072
26.215,-0.662,0.789,-0.070
26.225,-0.662,0.791,-0.072
26.235,-0.662,0.795,-0.070
26.245,-0.662,0.795,-0.068
26.255,-0.660,0.795,-0.072
26.265,-0.660,0.797,-0.070
26.275,-0.660,0.797,-0.070
26.285,-0.658,0.795,-0.068
26.295,-0.660,0.795,-0.070
26.305,-0.660,0.791,-0.072
26.315,-0.664,0.787,-0.070
26.325,-0.666,0.789,-0.074
26.335,-0.666,0.799,-0.070
26.345,-0.666,0.797,-0.074
26.355,-0.664,0.793,-0.074
26.365,-0.664,0.793,-0.074
26.375,-0.664,0.795,-0.072
26.385,-0.664,0.795,-0.074
26.395,-0.666,0.799,-0.072
26.405,-0.664,0.797,-0.074
26.415,-0.664,0.797,-0.070
26.425,-0.660,0.797,-0.070
26.435,-0.660,0.791,-0.072
26.445,-0.660,0.791,-0.072
26.455,-0.660,0.791,-0.068
26.465,-0.662,0.791,-0.072
26.475,-0.666,0.791,-0.072
26.485,-0.660,0.793,-0.072
26.495,-0.666,0.795,-0.074
26.505,-0.666,0.795,-0.070
26.515,-0.666,0.791,-0.074
26.525,-0.668,0.795,-0.074
26.535,-0.668,0.791,-0.076
26.545,-0.670,0.793,-0.076
26.555,-0.672,0.789,-0.074
26.565,-0.672,0.793,-0.078
26.575,-0.670,0.789,-0.076
26.585,-0.670,0.789,-0.072
26.595,-0.672,0.789,-0.074
26.605,-0.672,0.789,-0.072
26.615,-0.674,0.787,-0.072
26.625,-0.668,0.785,-0.070
26.635,-0.670,0.791,-0.074
26.645,-0.670,0.791,-0.072
26.655,-0.670,0.793,-0.072
26.665,-0.670,0.793,-0.072
26.675,-0.670,0.793,-0.072
26.685,-0.670,0.791,-0.072
26.695,-0.666,0.793,-0.070
26.705,-0.668,0.791,-0.072
26.715,-0.664,0.795,-0.070
26.725,-0.666,0.793,-0.072
26.735,-0.668,0.789,-0.070
26.745,-0.666,0.787,-0.074
26.755,-0.668,0.789,-0.072
26.765,-0.670,0.791,-0.070
26.775,-0.670,0.793,-0.068
26.785,-0.670,0.793,-0.068
26.795,-0.668,0.789,-0.066
26.805,-0.666,0.793,-0.064
26.815,-0.664,0.787,-0.066
26.825,-0.666,0.785,-0.066
26.835,-0.666,0.789,-0.064
26.845,-0.668,0.789,-0.066
26.855,-0.668,0.789,-0.064
26.865,-0.664,0.789,-0.064
26.875,-0.668,0.789,-0.066
26.885,-0.666,0.795,-0.062
26.895,-0.664,0.795,-0.062
26.905,-0.666,0.795,-0.064
26.915,-0.664,0.795,-0.064
26.925,-0.664,0.789,-0.066
26.935,-0.668,0.791,-0.068
26.945,-0.668,0.789,-0.066
26.955,-0.666,0.795,-0.068
26.965,-0.672,0.797,-0.062
26.975,-0.662,0.793,-0.066
26.985,-0.664,0.789,-0.068
26.995,-0.664,0.787,-0.064
27.005,-0.664,0.795,-0.062
27.015,-0.662,0.797,-0.064
27.025,-0.668,0.797,-0.062
27.035,-0.662,0.799,-0.064
27.045,-0.666,0.795,-0.068
27.055,-0.664,0.791,-0.062
27.065,-0.660,0.791,-0.064
27.075,-0.664,0.789,-0.066
27.085,-0.666,0.787,-0.062
27.095,-0.666,0.783,-0.064
27.105,-0.664,0.789,-0.064
27.115,-0.666,0.791,-0.068
27.125,-0.666,0.789,-0.064
27.135,-0.666,0.789,-0.068
27.145,-0.668,0.791,-0.070
27.155,-0.672,0.791,-0.068
27.165,-0.670,0.789,-0.070
27.175,-0.668,0.789,-0.068
27.185,-0.668,0.789,-0.070
27.195,-0.668,0.789,-0.072
27.205,-0.668,0.789,-0.070
27.215,-0.668,0.787,-0.072
27.225,-0.668,0.787,-0.072
27.235,-0.670,0.789,-0.074
27.245,-0.672,0.791,-0.074
27.255,-0.670,0.791,-0.072
27.265,-0.668,0.791,-0.074
27.275,-0.670,0.795,-0.076
27.285,-0.668,0.791,-0.070
27.295,-0.666,0.793,-0.078
27.305,-0.666,0.793,-0.072
27.315,-0.666,0.795,-0.074
27.325,-0.666,0.791,-0.076
27.335,-0.670,0.787,-0.076
27.345,-0.668,0.785,-0.080
27.355,-0.676,0.789,-0.074
27.365,-0.672,0.789,-0.074
27.375,-0.676,0.789,-0.076
27.385,-0.672,0.787,-0.072
27.395,-0.670,0.791,-0.076
27.405,-0.668,0.791,-0.078
27.415,-0.670,0.791,-0.076
27.425,-0.668,0.789,-0.072
27.435,-0.666,0.789,-0.074
27.445,-0.666,0.791,-0.074
27.455,-0.664,0.789,-0.072
27.465,-0.668,0.791,-0.076
27.475,-0.666,0.793,-0.070
27.485,-0.664,0.795,-0.068
27.495,-0.664,0.793,-0.070
27.505,-0.662,0.793,-0.066
27.515,-0.662,0.793,-0.066
27.525,-0.662,0.793,-0.062
27.535,-0.664,0.783,-0.066
27.545,-0.664,0.789,-0.066
27.555,-0.668,0.797,-0.066
27.565,-0.668,0.795,-0.066
27.575,-0.666,0.793,-0.070
27.585,-0.666,0.785,-0.068
27.595,-0.666,0.787,-0.070
27.605,-0.666,0.791,-0.068
27.615,-0.666,0.795,-0.068
27.625,-0.666,0.797,-0.068
27.635,-0.670,0.797,-0.068
27.645,-0.664,0.795,-0.070
27.655,-0.660,0.791,-0.066
27.665,-0.660,0.795,-0.070
27.675,-0.660,0.791,-0.068
27.685,-0.658,0.789,-0.068
27.695,-0.658,0.791,-0.068
27.705,-0.662,0.795,-0.068
27.715,-0.660,0.793,-0.072
27.725,-0.662,0.795,-0.070
27.735,-0.660,0.797,-0.070
27.745,-0.664,0.797,-0.070
27.755,-0.666,0.797,-0.068
27.765,-0.668,0.797,-0.070
27.775,-0.664,0.791,-0.070
27.785,-0.668,0.791,-0.070
27.795,-0.668,0.789,-0.072
27.805,-0.664,0.789,-0.068
27.815,-0.668,0.787,-0.072
27.825,-0.668,0.791,-0.072
27.835,-0.668,0.793,-0.072
27.845,-0.670,0.793,-0.068
27.855,-0.670,0.791,-0.070
27.865,-0.668,0.791,-0.070
27.875,-0.670,0.793,-0.066
27.885,-0.668,0.789,-0.070
27.895,-0.666,0.793,-0.068
27.905,-0.668,0.795,-0.066
27.915,-0.670,0.791,-0.070
27.925,-0.672,0.787,-0.070
27.935,-0.672,0.787,-0.068
27.945,-0.674,0.791,-0.066
27.955,-0.674,0.795,-0.064
27.965,-0.672,0.793,-0.064
27.975,-0.668,0.791,-0.064
27.985,-0.670,0.791,-0.064
27.995,-0.670,0.791,-0.062
28.005,-0.668,0.785,-0.068
28.015,-0.668,0.785,-0.062
28.025,-0.666,0.785,-0.066
28.035,-0.666,0.789,-0.066
28.045,-0.666,0.791,-0.066
28.055,-0.672,0.793,-0.064
28.065,-0.668,0.791,-0.064
28.075,-0.666,0.789,-0.066
28.085,-0.662,0.791,-0.061
28.095,-0.664,0.793,-0.066
28.105,-0.666,0.793,-0.066
28.115,-0.668,0.791,-0.066
28.125,-0.666,0.787,-0.068
28.135,-0.664,0.789,-0.068
28.145,-0.668,0.799,-0.068
28.155,-0.666,0.797,-0.068
28.165,-0.666,0.793,-0.068
28.175,-0.666,0.791,-0.072
28.185,-0.662,0.795,-0.072
28.195,-0.666,0.797,-0.072
28.205,-0.666,0.795,-0.068
28.215,-0.668,0.797,-0.070
28.225,-0.664,0.797,-0.072
28.235,-0.664,0.797,-0.072
28.245,-0.662,0.795,-0.068
28.255,-0.658,0.793,-0.074
28.265,-0.660,0.793,-0.072
28.275,-0.660,0.795,-0.068
28.285,-0.662,0.795,-0.072
28.295,-0.664,0.795,-0.070
28.305,-0.662,0.793,-0.072
28.315,-0.662,0.795,-0.070
28.325,-0.664,0.793,-0.076
28.335,-0.662,0.795,-0.074
28.345,-0.662,0.795,-0.074
28.355,-0.662,0.795,-0.076
28.365,-0.664,0.793,-0.074
28.375,-0.662,0.793,-0.070
28.385,-0.662,0.791,-0.072
28.395,-0.662,0.793,-0.074
28.405,-0.662,0.791,-0.074
28.415,-0.662,0.793,-0.074
28.425,-0.666,0.795,-0.072
28.435,-0.662,0.795,-0.074
28.445,-0.668,0.791,-0.074
28.455,-0.664,0.797,-0.074
28.465,-0.660,0.791,-0.072
28.475,-0.662,0.791,-0.076
28.485,-0.662,0.795,-0.074
28.495,-0.664,0.797,-0.070
28.505,-0.660,0.793,-0.074
28.515,-0.658,0.791,-0.074
28.525,-0.660,0.795,-0.076
28.535,-0.664,0.795,-0.074
28.545,-0.666,0.797,-0.072
28.555,-0.662,0.797,-0.072
28.565,-0.668,0.795,-0.074
28.575,-0.664,0.793,-0.072
28.585,-0.660,0.789,-0.072
28.595,-0.664,0.791,-0.074
28.605,-0.666,0.791,-0.074
28.615,-0.660,0.793,-0.074
28.625,-0.664,0.789,-0.076
28.635,-0.664,0.793,-0.078
28.645,-0.662,0.791,-0.072
28.655,-0.662,0.793,-0.076
28.665,-0.660,0.795,-0.072
28.675,-0.662,0.795,-0.076
28.685,-0.660,0.797,-0.072
28.695,-0.658,0.795,-0.074
28.705,-0.660,0.793,-0.074
28.715,-0.662,0.793,-0.074
28.725,-0.662,0.791,-0.076
28.735,-0.662,0.797,-0.074
28.745,-0.662,0.799,-0.072
28.755,-0.658,0.795,-0.068
28.765,-0.658,0.791,-0.076
28.775,-0.658,0.791,-0.076
28.785,-0.660,0.797,-0.078
28.795,-0.662,0.799,-0.074
28.805,-0.664,0.795,-0.074
28.815,-0.660,0.799,-0.076
28.825,-0.660,0.795,-0.074
28.835,-0.658,0.795,-0.076
28.845,-0.658,0.793,-0.072
28.855,-0.658,0.797,-0.074
28.865,-0.658,0.793,-0.072
28.875,-0.660,0.793,-0.076
28.885,-0.660,0.793,-0.078
28.895,-0.660,0.793,-0.076
28.905,-0.660,0.795,-0.076
28.915,-0.662,0.795,-0.076
28.925,-0.660,0.797,-0.076
28.935,-0.658,0.797,-0.074
28.945,-0.660,0.793,-0.072
28.955,-0.662,0.797,-0.074
28.965,-0.664,0.795,-0.072
28.975,-0.660,0.793,-0.074
28.985,-0.664,0.791,-0.076
28.995,-0.662,0.793,-0.074
29.005,-0.664,0.791,-0.074
29.015,-0.662,0.793,-0.074
29.025,-0.660,0.791,-0.072
29.035,-0.662,0.801,-0.072
29.045,-0.666,0.799,-0.072
29.055,-0.666,0.795,-0.072
29.065,-0.664,0.793,-0.072
29.075,-0.666,0.795,-0.074
29.085,-0.660,0.793,-0.072
29.095,-0.660,0.793,-0.070
29.105,-0.666,0.795,-0.072
29.115,-0.662,0.793,-0.072
29.125,-0.662,0.791,-0.074
29.135,-0.662,0.787,-0.076
29.145,-0.664,0.793,-0.076
29.155,-0.666,0.795,-0.072
29.165,-0.668,0.795,-0.070
29.175,-0.664,0.795,-0.070
29.185,-0.668,0.793,-0.070
29.195,-0.666,0.793,-0.070
29.205,-0.666,0.791,-0.072
29.215,-0.664,0.789,-0.070
29.225,-0.664,0.791,-0.074
29.235,-0.662,0.791,-0.070
29.245,-0.664,0.793,-0.072
29.255,-0.666,0.793,-0.068
29.265,-0.664,0.795,-0.068
29.275,-0.660,0.799,-0.070
29.285,-0.658,0.797,-0.070
29.295,-0.658,0.795,-0.066
29.305,-0.662,0.795,-0.066
29.315,-0.660,0.795,-0.070
29.325,-0.660,0.791,-0.070
29.335,-0.660,0.789,-0.066
29.345,-0.666,0.795,-0.066
29.355,-0.666,0.801,-0.064
29.365,-0.662,0.797,-0.066
29.375,-0.658,0.789,-0.066
29.385,-0.656,0.791,-0.070
29.395,-0.660,0.793,-0.072
29.405,-0.662,0.797,-0.068
29.415,-0.664,0.797,-0.068
29.425,-0.664,0.797,-0.066
29.435,-0.658,0.797,-0.070
29.445,-0.662,0.793,-0.066
29.455,-0.660,0.793,-0.066
29.465,-0.660,0.791,-0.068
29.475,-0.662,0.793,-0.066
29.485,-0.660,0.793,-0.066
29.495,-0.658,0.793,-0.068
29.505,-0.658,0.795,-0.066
29.515,-0.662,0.795,-0.070
29.525,-0.660,0.793,-0.072
29.535,-0.664,0.793,-0.070
29.545,-0.666,0.795,-0.068
29.555,-0.668,0.791,-0.066
29.565,-0.664,0.793,-0.066
29.575,-0.666,0.797,-0.072
29.585,-0.666,0.793,-0.072
29.595,-0.666,0.791,-0.074
29.605,-0.668,0.791,-0.074
29.615,-0.668,0.791,-0.072
29.625,-0.668,0.789,-0.070
29.635,-0.666,0.789,-0.072
29.645,-0.666,0.789,-0.072
29.655,-0.664,0.793,-0.072
29.665,-0.668,0.793,-0.074
29.675,-0.666,0.797,-0.072
29.685,-0.670,0.791,-0.072
29.695,-0.666,0.795,-0.076
29.705,-0.668,0.791,-0.070
29.715,-0.664,0.795,-0.072
29.725,-0.664,0.793,-0.072
29.735,-0.664,0.797,-0.070
29.745,-0.662,0.793,-0.072
29.755,-0.664,0.789,-0.074
29.765,-0.664,0.789,-0.076
29.775,-0.664,0.791,-0.072
29.785,-0.668,0.797,-0.074
29.795,-0.668,0.793,-0.070
29.805,-0.668,0.799,-0.074
29.815,-0.668,0.795,-0.072
29.825,-0.666,0.793,-0.070
29.835,-0.666,0.793,-0.074
29.845,-0.666,0.789,-0.070
29.855,-0.664,0.793,-0.072
29.865,-0.666,0.795,-0.072
29.875,-0.662,0.795,-0.070
29.885,-0.664,0.789,-0.070
29.895,-0.664,0.795,-0.072
29.905,-0.662,0.795,-0.068
29.915,-0.660,0.795,-0.066
29.925,-0.660,0.793,-0.070
29.935,-0.662,0.791,-0.068
29.945,-0.658,0.793,-0.070
29.955,-0.664,0.793,-0.070
29.965,-0.664,0.791,-0.070
29.975,-0.666,0.795,-0.068
29.985,-0.670,0.799,-0.068
29.995,-0.664,0.793,-0.070
30.005,-0.662,0.793,-0.072
30.015,-0.664,0.793,-0.070
30.025,-0.664,0.799,-0.070
30.035,-0.664,0.795,-0.070
30.045,-0.666,0.797,-0.068
30.055,-0.664,0.797,-0.068
30.065,-0.660,0.797,-0.066
30.075,-0.660,0.795,-0.066
30.085,-0.656,0.795,-0.066
30.095,-0.660,0.789,-0.066
30.105,-0.660,0.795,-0.070
30.115,-0.658,0.789,-0.068
30.125,-0.660,0.793,-0.070
30.135,-0.662,0.791,-0.070
30.145,-0.664,0.793,-0.066
30.155,-0.668,0.793,-0.068
30.165,-0.666,0.793,-0.068
30.175,-0.666,0.791,-0.068
30.185,-0.668,0.793,-0.066
30.195,-0.668,0.793,-0.072
30.205,-0.670,0.791,-0.068
30.215,-0.670,0.793,-0.070
30.225,-0.668,0.789,-0.072
30.235,-0.666,0.789,-0.070
30.245,-0.664,0.793,-0.070
30.255,-0.666,0.789,-0.072
30.265,-0.664,0.791,-0.068
30.275,-0.662,0.791,-0.072
30.285,-0.666,0.795,-0.068
30.295,-0.662,0.793,-0.068
30.305,-0.666,0.795,-0.066
30.315,-0.666,0.795,-0.068
30.325,-0.664,0.797,-0.070
30.335,-0.660,0.797,-0.068
30.345,-0.656,0.797,-0.066
30.355,-0.666,0.795,-0.070
30.365,-0.666,0.795,-0.068
30.375,-0.660,0.801,-0.066
30.385,-0.662,0.791,-0.066
30.395,-0.668,0.787,-0.068
30.405,-0.666,0.791,-0.066
30.415,-0.666,0.797,-0.068
30.425,-0.668,0.797,-0.064
30.435,-0.664,0.793,-0.066
30.445,-0.662,0.793,-0.062
30.455,-0.664,0.795,-0.066
30.465,-0.666,0.789,-0.064
30.475,-0.662,0.787,-0.064
30.485,-0.662,0.791,-0.064
30.495,-0.664,0.789,-0.068
30.505,-0.662,0.789,-0.066
30.515,-0.664,0.791,-0.068
30.525,-0.662,0.793,-0.070
30.535,-0.666,0.791,-0.066
30.545,-0.666,0.795,-0.066
30.555,-0.664,0.797,-0.066
30.565,-0.662,0.793,-0.068
30.575,-0.664,0.793,-0.068
30.585,-0.662,0.791,-0.070
30.595,-0.662,0.791,-0.066
30.605,-0.664,0.799,-0.068
30.615,-0.662,0.799,-0.070
30.625,-0.660,0.791,-0.068
30.635,-0.660,0.789,-0.074
30.645,-0.662,0.791,-0.076
30.655,-0.664,0.795,-0.074
30.665,-0.664,0.797,-0.074
30.675,-0.668,0.795,-0.072
30.685,-0.668,0.795,-0.076
30.695,-0.664,0.795,-0.076
30.705,-0.662,0.795,-0.078
30.715,-0.660,0.791,-0.078
30.725,-0.664,0.789,-0.080
30.735,-0.662,0.793,-0.078
30.745,-0.662,0.793,-0.078
30.755,-0.662,0.791,-0.082
30.765,-0.664,0.791,-0.078
30.775,-0.666,0.793,-0.080
30.785,-0.666,0.793,-0.080
30.795,-0.664,0.793,-0.080
30.805,-0.664,0.791,-0.080
30.815,-0.666,0.793,-0.086
30.825,-0.666,0.791,-0.084
30.835,-0.668,0.791,-0.084
30.845,-0.664,0.791,-0.084
30.855,-0.668,0.789,-0.084
30.865,-0.668,0.791,-0.084
30.875,-0.666,0.793,-0.086
30.885,-0.666,0.795,-0.086
30.895,-0.668,0.797,-0.086
30.905,-0.664,0.795,-0.084
30.915,-0.664,0.793,-0.084
30.925,-0.666,0.793,-0.082
30.935,-0.664,0.795,-0.084
30.945,-0.662,0.797,-0.086
30.955,-0.660,0.795,-0.082
30.965,-0.664,0.799,-0.080
30.975,-0.656,0.801,-0.082
30.985,-0.660,0.795,-0.082
30.995,-0.662,0.793,-0.082
31.005,-0.666,0.793,-0.080
31.015,-0.664,0.795,-0.078
31.025,-0.664,0.793,-0.076
31.035,-0.662,0.791,-0.072
31.045,-0.664,0.793,-0.074
31.055,-0.664,0.791,-0.074
31.065,-0.666,0.787,-0.070
31.075,-0.664,0.787,-0.074
31.085,-0.668,0.783,-0.072
31.095,-0.668,0.787,-0.074
31.105,-0.668,0.789,-0.068
31.115,-0.668,0.789,-0.068
31.125,-0.666,0.789,-0.068
31.135,-0.666,0.793,-0.070
31.145,-0.668,0.791,-0.066
31.155,-0.664,0.791,-0.066
31.165,-0.666,0.791,-0.068
31.175,-0.666,0.787,-0.066
31.185,-0.664,0.789,-0.072
31.195,-0.660,0.787,-0.070
31.205,-0.666,0.799,-0.070
31.215,-0.664,0.797,-0.064
31.225,-0.664,0.793,-0.066
31.235,-0.662,0.789,-0.066
31.245,-0.666,0.789,-0.068
31.255,-0.668,0.789,-0.066
31.265,-0.668,0.797,-0.070
31.275,-0.672,0.799,-0.072
31.285,-0.670,0.799,-0.070
31.295,-0.666,0.797,-0.066
31.305,-0.664,0.797,-0.072
31.315,-0.660,0.793,-0.070
31.325,-0.662,0.793,-0.070
31.335,-0.660,0.789,-0.070
31.345,-0.662,0.791,-0.068
31.355,-0.662,0.787,-0.072
31.365,-0.660,0.793,-0.070
31.375,-0.658,0.793,-0.070
31.385,-0.660,0.795,-0.066
31.395,-0.662,0.795,-0.068
31.405,-0.660,0.795,-0.066
31.415,-0.662,0.797,-0.072
31.425,-0.664,0.795,-0.070
31.435,-0.662,0.791,-0.070
31.445,-0.664,0.793,-0.074
31.455,-0.666,0.789,-0.074
31.465,-0.666,0.787,-0.074
31.475,-0.664,0.787,-0.074
31.485,-0.664,0.787,-0.076
31.495,-0.664,0.797,-0.076
31.505,-0.666,0.793,-0.074
31.515,-0.664,0.795,-0.074
31.525,-0.664,0.799,-0.076
31.535,-0.664,0.795,-0.074
31.545,-0.662,0.795,-0.076
31.555,-0.660,0.799,-0.072
31.565,-0.664,0.799,-0.074
31.575,-0.660,0.795,-0.076
31.585,-0.660,0.791,-0.074
31.595,-0.660,0.789,-0.080
31.605,-0.664,0.795,-0.074
31.615,-0.664,0.799,-0.078
31.625,-0.662,0.797,-0.074
31.635,-0.666,0.795,-0.074
31.645,-0.656,0.793,-0.074
31.655,-0.658,0.795,-0.074
31.665,-0.658,0.793,-0.074
31.675,-0.658,0.789,-0.076
31.685,-0.664,0.791,-0.076
31.695,-0.660,0.793,-0.078
31.705,-0.662,0.793,-0.078
31.715,-0.664,0.793,-0.080
31.725,-0.660,0.797,-0.076
31.735,-0.660,0.799,-0.078
31.745,-0.664,0.793,-0.078
31.755,-0.660,0.795,-0.076
31.765,-0.662,0.793,-0.076
31.775,-0.662,0.793,-0.076
31.785,-0.660,0.791,-0.078
31.795,-0.658,0.795,-0.074
31.805,-0.664,0.801,-0.076
31.815,-0.662,0.801,-0.078
31.825,-0.660,0.793,-0.074
31.835,-0.658,0.793,-0.076
31.845,-0.660,0.795,-0.076
31.855,-0.658,0.799,-0.074
31.865,-0.662,0.801,-0.074
31.875,-0.658,0.805,-0.072
31.885,-0.660,0.801,-0.072
31.895,-0.656,0.803,-0.070
31.905,-0.658,0.797,-0.070
31.915,-0.658,0.795,-0.074
31.925,-0.656,0.797,-0.074
31.935,-0.656,0.797,-0.072
31.945,-0.656,0.793,-0.074
31.955,-0.660,0.795,-0.074
31.965,-0.658,0.795,-0.068
31.975,-0.660,0.795,-0.072
31.985,-0.658,0.795,-0.070
31.995,-0.658,0.799,-0.074
32.005,-0.658,0.791,-0.072
32.015,-0.658,0.795,-0.072
32.025,-0.662,0.797,-0.070
32.035,-0.660,0.797,-0.070
32.045,-0.662,0.801,-0.072
32.055,-0.660,0.799,-0.074
32.065,-0.662,0.795,-0.068
32.075,-0.662,0.793,-0.072
32.085,-0.660,0.793,-0.072
32.095,-0.656,0.791,-0.068
32.105,-0.660,0.795,-0.074
32.115,-0.664,0.797,-0.072
32.125,-0.664,0.799,-0.068
32.135,-0.670,0.793,-0.072
32.145,-0.664,0.795,-0.068
32.155,-0.662,0.795,-0.068
32.165,-0.662,0.795,-0.068
32.175,-0.662,0.797,-0.068
32.185,-0.666,0.801,-0.068
32.195,-0.662,0.797,-0.068
32.205,-0.662,0.789,-0.066
32.215,-0.660,0.787,-0.068
32.225,-0.662,0.795,-0.068
32.235,-0.666,0.795,-0.070
32.245,-0.664,0.799,-0.068
32.255,-0.664,0.797,-0.068
32.265,-0.660,0.797,-0.070
32.275,-0.660,0.795,-0.068
32.285,-0.658,0.793,-0.070
32.295,-0.660,0.791,-0.068
32.305,-0.658,0.793,-0.070
32.315,-0.660,0.795,-0.068
32.325,-0.660,0.791,-0.068
32.335,-0.658,0.795,-0.068
32.345,-0.656,0.795,-0.068
32.355,-0.656,0.797,-0.064
32.365,-0.656,0.799,-0.066
32.375,-0.658,0.797,-0.066
32.385,-0.658,0.799,-0.064
32.395,-0.658,0.795,-0.066
32.405,-0.660,0.795,-0.068
32.415,-0.662,0.791,-0.066
32.425,-0.664,0.801,-0.066
32.435,-0.662,0.803,-0.064
32.445,-0.658,0.799,-0.064
32.455,-0.658,0.795,-0.070
32.465,-0.660,0.793,-0.070
32.475,-0.664,0.795,-0.068
32.485,-0.664,0.795,-0.068
32.495,-0.662,0.797,-0.064
32.505,-0.662,0.801,-0.066
32.515,-0.660,0.799,-0.066
32.525,-0.658,0.795,-0.066
32.535,-0.658,0.795,-0.066
32.545,-0.658,0.795,-0.066
32.555,-0.654,0.797,-0.066
32.565,-0.654,0.797,-0.066
32.575,-0.660,0.795,-0.068
32.585,-0.658,0.791,-0.068
32.595,-0.660,0.795,-0.068
32.605,-0.660,0.797,-0.068
32.615,-0.664,0.797,-0.068
32.625,-0.662,0.793,-0.072
32.635,-0.662,0.793,-0.070
32.645,-0.664,0.795,-0.070
32.655,-0.662,0.793,-0.068
32.665,-0.662,0.795,-0.072
32.675,-0.666,0.791,-0.072
32.685,-0.664,0.795,-0.070
32.695,-0.666,0.793,-0.066
32.705,-0.660,0.793,-0.070
32.715,-0.664,0.795,-0.072
32.725,-0.662,0.795,-0.070
32.735,-0.660,0.797,-0.070
32.745,-0.660,0.797,-0.070
32.755,-0.662,0.799,-0.068
32.765,-0.662,0.797,-0.072
32.775,-0.660,0.795,-0.070
32.785,-0.660,0.795,-0.068
32.795,-0.660,0.793,-0.070
32.805,-0.658,0.791,-0.066
32.815,-0.664,0.799,-0.068
32.825,-0.662,0.795,-0.068
32.835,-0.662,0.791,-0.066
32.845,-0.660,0.789,-0.066
32.855,-0.660,0.791,-0.068
32.865,-0.660,0.791,-0.068
32.875,-0.664,0.795,-0.066
32.885,-0.662,0.797,-0.070
32.895,-0.662,0.791,-0.068
32.905,-0.662,0.795,-0.066
32.915,-0.660,0.793,-0.072
32.925,-0.660,0.795,-0.070
32.935,-0.662,0.795,-0.072
32.945,-0.662,0.795,-0.074
32.955,-0.662,0.797,-0.072
32.965,-0.660,0.795,-0.076
32.975,-0.660,0.797,-0.070
32.985,-0.658,0.797,-0.070
32.995,-0.660,0.799,-0.068
33.005,-0.660,0.797,-0.068
33.015,-0.656,0.797,-0.070
33.025,-0.658,0.799,-0.072
33.035,-0.660,0.795,-0.072
33.045,-0.660,0.791,-0.072
33.055,-0.662,0.795,-0.070
33.065,-0.668,0.799,-0.070
33.075,-0.662,0.799,-0.070
33.085,-0.662,0.789,-0.070
33.095,-0.660,0.789,-0.076
33.105,-0.664,0.793,-0.072
33.115,-0.662,0.795,-0.068
33.125,-0.664,0.797,-0.068
33.135,-0.666,0.795,-0.072
33.145,-0.662,0.797,-0.068
33.155,-0.656,0.795,-0.068
33.165,-0.658,0.795,-0.066
33.175,-0.656,0.793,-0.064
33.185,-0.656,0.793,-0.066
33.195,-0.656,0.791,-0.068
33.205,-0.658,0.789,-0.066
33.215,-0.658,0.791,-0.066
33.225,-0.660,0.795,-0.066
33.235,-0.666,0.791,-0.068
33.245,-0.664,0.795,-0.070
33.255,-0.666,0.793,-0.072
33.265,-0.668,0.793,-0.074
33.275,-0.668,0.791,-0.072
33.285,-0.670,0.793,-0.076
33.295,-0.670,0.793,-0.078
33.305,-0.666,0.793,-0.078
33.315,-0.670,0.787,-0.074
33.325,-0.670,0.789,-0.080
33.335,-0.668,0.787,-0.078
33.345,-0.666,0.789,-0.076
33.355,-0.664,0.791,-0.076
33.365,-0.664,0.793,-0.076
33.375,-0.668,0.791,-0.074
33.385,-0.668,0.787,-0.076
33.395,-0.668,0.791,-0.074
33.405,-0.666,0.793,-0.076
33.415,-0.668,0.791,-0.078
33.425,-0.666,0.791,-0.076
33.435,-0.664,0.793,-0.078
33.445,-0.668,0.797,-0.078
33.455,-0.668,0.791,-0.080
33.465,-0.666,0.785,-0.080
33.475,-0.670,0.787,-0.084
33.485,-0.672,0.791,-0.080
33.495,-0.672,0.793,-0.082
33.505,-0.672,0.791,-0.076
33.515,-0.670,0.789,-0.078
33.525,-0.668,0.787,-0.076
33.535,-0.668,0.787,-0.078
33.545,-0.666,0.785,-0.078
33.555,-0.666,0.785,-0.076
33.565,-0.664,0.787,-0.078
33.575,-0.662,0.787,-0.076
33.585,-0.662,0.787,-0.080
33.595,-0.660,0.789,-0.078
33.605,-0.662,0.791,-0.074
33.615,-0.662,0.793,-0.076
33.625,-0.666,0.793,-0.078
33.635,-0.666,0.791,-0.076
33.645,-0.666,0.793,-0.078
33.655,-0.670,0.789,-0.078
33.665,-0.668,0.785,-0.076
33.675,-0.664,0.789,-0.080
33.685,-0.668,0.795,-0.076
33.695,-0.666,0.789,-0.078
33.705,-0.664,0.787,-0.080
33.715,-0.664,0.785,-0.082
33.725,-0.666,0.789,-0.080
33.735,-0.668,0.791,-0.082
33.745,-0.672,0.795,-0.078
33.755,-0.670,0.797,-0.082
33.765,-0.670,0.793,-0.078
33.775,-0.666,0.791,-0.078
33.785,-0.666,0.789,-0.080
33.795,-0.664,0.787,-0.080
33.805,-0.666,0.787,-0.084
33.815,-0.666,0.785,-0.082
33.825,-0.666,0.785,-0.082
33.835,-0.668,0.787,-0.080
33.845,-0.668,0.787,-0.084
33.855,-0.670,0.787,-0.084
33.865,-0.672,0.785,-0.082
33.875,-0.674,0.783,-0.088
33.885,-0.672,0.787,-0.086
33.895,-0.676,0.785,-0.090
33.905,-0.672,0.783,-0.086
33.915,-0.672,0.781,-0.084
33.925,-0.676,0.785,-0.086
33.935,-0.674,0.783,-0.088
33.945,-0.674,0.779,-0.088
33.955,-0.672,0.785,-0.086
33.965,-0.674,0.787,-0.086
33.975,-0.674,0.787,-0.086
33.985,-0.674,0.785,-0.086
33.995,-0.674,0.789,-0.086
34.005,-0.676,0.785,-0.088
34.015,-0.674,0.787,-0.084
34.025,-0.672,0.785,-0.086
34.035,-0.670,0.789,-0.084
34.045,-0.670,0.793,-0.086
34.055,-0.668,0.787,-0.086
34.065,-0.670,0.781,-0.082
34.075,-0.672,0.783,-0.086
34.085,-0.672,0.787,-0.082
34.095,-0.670,0.787,-0.082
34.105,-0.672,0.789,-0.082
34.115,-0.670,0.787,-0.082
34.125,-0.670,0.787,-0.078
34.135,-0.668,0.787,-0.080
34.145,-0.668,0.783,-0.082
34.155,-0.668,0.785,-0.084
34.165,-0.668,0.783,-0.080
34.175,-0.668,0.783,-0.086
34.185,-0.668,0.785,-0.082
34.195,-0.666,0.787,-0.078
34.205,-0.664,0.787,-0.080
34.215,-0.668,0.789,-0.078
34.225,-0.668,0.791,-0.080
34.235,-0.666,0.793,-0.078
34.245,-0.666,0.791,-0.082
34.255,-0.668,0.787,-0.082
34.265,-0.664,0.783,-0.082
34.275,-0.668,0.787,-0.080
34.285,-0.668,0.795,-0.078
34.295,-0.668,0.797,-0.076
34.305,-0.664,0.789,-0.080
34.315,-0.660,0.787,-0.082
34.325,-0.662,0.783,-0.076
34.335,-0.668,0.789,-0.080
34.345,-0.664,0.793,-0.082
34.355,-0.668,0.791,-0.076
34.365,-0.670,0.789,-0.078
34.375,-0.668,0.793,-0.080
34.385,-0.662,0.787,-0.076
34.395,-0.666,0.787,-0.080
34.405,-0.668,0.789,-0.078
34.415,-0.668,0.787,-0.076
34.425,-0.668,0.785,-0.078
34.435,-0.666,0.787,-0.076
34.445,-0.666,0.789,-0.074
34.455,-0.668,0.793,-0.076
34.465,-0.664,0.789,-0.076
34.475,-0.666,0.793,-0.078
34.485,-0.666,0.789,-0.080
34.495,-0.668,0.791,-0.078
34.505,-0.668,0.787,-0.078
34.515,-0.666,0.787,-0.080
34.525,-0.666,0.789,-0.080
34.535,-0.666,0.787,-0.078
34.545,-0.664,0.787,-0.074
34.555,-0.666,0.789,-0.078
34.565,-0.664,0.793,-0.082
34.575,-0.670,0.791,-0.080
34.585,-0.666,0.789,-0.076
34.595,-0.668,0.789,-0.080
34.605,-0.670,0.793,-0.078
34.615,-0.668,0.791,-0.080
34.625,-0.666,0.791,-0.078
34.635,-0.666,0.791,-0.078
34.645,-0.664,0.793,-0.078
34.655,-0.658,0.787,-0.082
34.665,-0.660,0.785,-0.076
34.675,-0.662,0.789,-0.078
34.685,-0.664,0.789,-0.080
34.695,-0.660,0.793,-0.076
34.705,-0.664,0.793,-0.078
34.715,-0.660,0.789,-0.078
34.725,-0.662,0.795,-0.080
34.735,-0.660,0.787,-0.080
34.745,-0.664,0.791,-0.078
34.755,-0.664,0.787,-0.080
34.765,-0.660,0.791,-0.084
34.775,-0.662,0.793,-0.080
34.785,-0.662,0.793,-0.082
34.795,-0.660,0.793,-0.084
34.805,-0.660,0.797,-0.084
34.815,-0.660,0.797,-0.084
34.825,-0.658,0.799,-0.082
34.835,-0.660,0.797,-0.084
34.845,-0.660,0.795,-0.082
34.855,-0.662,0.793,-0.084
34.865,-0.656,0.789,-0.082
34.875,-0.658,0.795,-0.082
34.885,-0.658,0.803,-0.082
34.895,-0.654,0.803,-0.080
34.905,-0.654,0.797,-0.086
34.915,-0.650,0.795,-0.084
34.925,-0.654,0.797,-0.082
34.935,-0.654,0.801,-0.086
34.945,-0.654,0.801,-0.082
34.955,-0.654,0.805,-0.084
34.965,-0.652,0.805,-0.082
34.975,-0.652,0.799,-0.082
34.985,-0.654,0.801,-0.082
34.995,-0.650,0.801,-0.086
35.005,-0.650,0.799,-0.084
35.015,-0.650,0.797,-0.084
35.025,-0.648,0.799,-0.082
35.035,-0.648,0.801,-0.082
35.045,-0.648,0.797,-0.084
35.055,-0.648,0.803,-0.080
35.065,-0.654,0.805,-0.082
35.075,-0.652,0.809,-0.080
35.085,-0.648,0.805,-0.082
35.095,-0.643,0.799,-0.080
35.105,-0.641,0.799,-0.086
35.115,-0.645,0.795,-0.082
35.125,-0.656,0.795,-0.084
35.135,-0.656,0.797,-0.082
35.145,-0.656,0.801,-0.082
35.155,-0.648,0.801,-0.086
35.165,-0.650,0.797,-0.084
35.175,-0.662,0.803,-0.084
35.185,-0.658,0.803,-0.084
35.195,-0.658,0.797,-0.084
35.205,-0.660,0.795,-0.088
35.215,-0.658,0.803,-0.082
35.225,-0.652,0.807,-0.086
35.235,-0.658,0.805,-0.080
35.245,-0.652,0.811,-0.080
35.255,-0.650,0.801,-0.084
35.265,-0.650,0.799,-0.086
35.275,-0.650,0.803,-0.086
35.285,-0.643,0.801,-0.086
35.295,-0.645,0.801,-0.084
35.305,-0.646,0.805,-0.082
35.315,-0.648,0.807,-0.082
35.325,-0.645,0.801,-0.078
35.335,-0.648,0.807,-0.080
35.345,-0.645,0.801,-0.082
35.355,-0.648,0.803,-0.080
35.365,-0.645,0.795,-0.086
35.375,-0.648,0.795,-0.080
35.385,-0.648,0.803,-0.082
35.395,-0.648,0.803,-0.078
35.405,-0.654,0.805,-0.074
35.415,-0.658,0.801,-0.080
35.425,-0.660,0.803,-0.078
35.435,-0.654,0.799,-0.080
35.445,-0.656,0.795,-0.082
35.455,-0.660,0.797,-0.080
35.465,-0.662,0.789,-0.080
35.475,-0.656,0.793,-0.078
35.485,-0.662,0.801,-0.080
35.495,-0.660,0.801,-0.074
35.505,-0.660,0.791,-0.080
35.515,-0.660,0.791,-0.080
35.525,-0.660,0.797,-0.078
35.535,-0.662,0.799,-0.078
35.545,-0.660,0.799,-0.078
35.555,-0.658,0.799,-0.076
35.565,-0.656,0.795,-0.078
35.575,-0.654,0.799,-0.078
35.585,-0.650,0.799,-0.076
35.595,-0.648,0.795,-0.074
35.605,-0.648,0.795,-0.082
35.615,-0.654,0.797,-0.078
35.625,-0.654,0.795,-0.078
35.635,-0.652,0.797,-0.078
35.645,-0.652,0.797,-0.076
35.655,-0.660,0.799,-0.072
35.665,-0.662,0.801,-0.078
35.675,-0.662,0.803,-0.074
35.685,-0.660,0.801,-0.076
35.695,-0.656,0.801,-0.076
35.705,-0.648,0.801,-0.078
35.715,-0.662,0.795,-0.074
35.725,-0.662,0.793,-0.080
35.735,-0.654,0.799,-0.076
35.745,-0.652,0.795,-0.074
35.755,-0.654,0.797,-0.076
35.765,-0.660,0.797,-0.076
35.775,-0.660,0.799,-0.078
35.785,-0.662,0.799,-0.080
35.795,-0.664,0.803,-0.072
35.805,-0.662,0.801,-0.074
35.815,-0.658,0.801,-0.076
35.825,-0.658,0.803,-0.074
35.835,-0.656,0.801,-0.072
35.845,-0.652,0.797,-0.076
35.855,-0.652,0.791,-0.080
35.865,-0.656,0.795,-0.080
35.875,-0.656,0.797,-0.078
35.885,-0.660,0.797,-0.078
35.895,-0.666,0.801,-0.074
35.905,-0.666,0.795,-0.074
35.915,-0.668,0.797,-0.076
35.925,-0.660,0.809,-0.074
35.935,-0.641,0.793,-0.074
35.945,-0.650,0.795,-0.078
35.955,-0.646,0.793,-0.074
35.965,-0.643,0.793,-0.070
35.975,-0.645,0.793,-0.074
35.985,-0.654,0.793,-0.072
35.995,-0.654,0.797,-0.072
36.005,-0.652,0.799,-0.072
36.015,-0.652,0.799,-0.070
36.025,-0.654,0.799,-0.074
36.035,-0.650,0.797,-0.072
36.045,-0.654,0.797,-0.076
36.055,-0.654,0.791,-0.076
36.065,-0.656,0.799,-0.076
36.075,-0.660,0.803,-0.074
36.085,-0.652,0.803,-0.074
36.095,-0.650,0.793,-0.078
36.105,-0.652,0.795,-0.080
36.115,-0.658,0.795,-0.076
36.125,-0.656,0.799,-0.080
36.135,-0.658,0.801,-0.080
36.145,-0.660,0.803,-0.080
36.155,-0.656,0.801,-0.082
36.165,-0.658,0.801,-0.082
36.175,-0.656,0.799,-0.084
36.185,-0.654,0.797,-0.082
36.195,-0.654,0.799,-0.086
36.205,-0.652,0.801,-0.086
36.215,-0.650,0.803,-0.088
36.225,-0.650,0.803,-0.086
36.235,-0.648,0.803,-0.090
36.245,-0.646,0.803,-0.094
36.255,-0.648,0.805,-0.092
36.265,-0.650,0.807,-0.088
36.275,-0.645,0.807,-0.090
36.285,-0.648,0.803,-0.094
36.295,-0.654,0.801,-0.092
36.305,-0.648,0.801,-0.094
36.315,-0.652,0.801,-0.096
36.325,-0.658,0.797,-0.094
36.335,-0.656,0.801,-0.094
36.345,-0.656,0.801,-0.092
36.355,-0.660,0.801,-0.092
36.365,-0.658,0.799,-0.094
36.375,-0.662,0.799,-0.094
36.385,-0.658,0.797,-0.090
36.395,-0.656,0.801,-0.090
36.405,-0.654,0.799,-0.088
36.415,-0.654,0.805,-0.088
36.425,-0.648,0.801,-0.088
36.435,-0.650,0.797,-0.088
36.445,-0.654,0.793,-0.090
36.455,-0.654,0.797,-0.088
36.465,-0.654,0.797,-0.088
36.475,-0.656,0.799,-0.086
36.485,-0.650,0.797,-0.088
36.495,-0.652,0.799,-0.088
36.505,-0.654,0.797,-0.086
36.515,-0.652,0.801,-0.086
36.525,-0.652,0.801,-0.088
36.535,-0.650,0.799,-0.088
36.545,-0.652,0.795,-0.086
36.555,-0.652,0.801,-0.086
36.565,-0.650,0.799,-0.086
36.575,-0.650,0.799,-0.086
36.585,-0.650,0.801,-0.084
36.595,-0.648,0.803,-0.082
36.605,-0.650,0.805,-0.082
36.615,-0.648,0.801,-0.084
36.625,-0.650,0.801,-0.084
36.635,-0.650,0.801,-0.084
36.645,-0.652,0.807,-0.082
36.655,-0.650,0.809,-0.082
36.665,-0.648,0.803,-0.080
36.675,-0.650,0.797,-0.082
36.685,-0.648,0.797,-0.080
36.695,-0.648,0.801,-0.080
36.705,-0.652,0.801,-0.080
36.715,-0.652,0.803,-0.078
36.725,-0.654,0.803,-0.078
36.735,-0.650,0.799,-0.080
36.745,-0.650,0.799,-0.076
36.755,-0.652,0.801,-0.074
36.765,-0.650,0.797,-0.076
36.775,-0.652,0.797,-0.076
36.785,-0.650,0.795,-0.078
36.795,-0.650,0.795,-0.076
36.805,-0.650,0.799,-0.080
36.815,-0.652,0.799,-0.082
36.825,-0.652,0.799,-0.078
36.835,-0.650,0.801,-0.074
36.845,-0.650,0.801,-0.072
36.855,-0.652,0.801,-0.074
36.865,-0.648,0.799,-0.074
36.875,-0.656,0.805,-0.072
36.885,-0.656,0.801,-0.076
36.895,-0.654,0.797,-0.078
36.905,-0.652,0.799,-0.076
36.915,-0.654,0.793,-0.078
36.925,-0.658,0.797,-0.076
36.935,-0.654,0.795,-0.078
36.945,-0.658,0.795,-0.074
36.955,-0.658,0.797,-0.076
36.965,-0.658,0.799,-0.078
36.975,-0.660,0.795,-0.076
36.985,-0.658,0.797,-0.074
36.995,-0.662,0.801,-0.078
37.005,-0.660,0.801,-0.078
37.015,-0.658,0.797,-0.076
37.025,-0.656,0.795,-0.078
37.035,-0.656,0.791,-0.080
37.045,-0.654,0.797,-0.078
37.055,-0.660,0.795,-0.082
37.065,-0.658,0.795,-0.080
37.075,-0.660,0.797,-0.084
37.085,-0.658,0.797,-0.078
37.095,-0.654,0.797,-0.080
37.105,-0.658,0.797,-0.082
37.115,-0.656,0.793,-0.086
37.125,-0.658,0.795,-0.084
37.135,-0.658,0.799,-0.084
37.145,-0.658,0.797,-0.084
37.155,-0.658,0.799,-0.086
37.165,-0.656,0.797,-0.086
37.175,-0.654,0.801,-0.082
37.185,-0.654,0.799,-0.082
37.195,-0.654,0.801,-0.084
37.205,-0.652,0.799,-0.082
37.215,-0.654,0.797,-0.082
37.225,-0.650,0.797,-0.082
37.235,-0.656,0.803,-0.080
37.245,-0.654,0.805,-0.080
37.255,-0.652,0.799,-0.080
37.265,-0.654,0.793,-0.086
37.275,-0.654,0.795,-0.086
37.285,-0.658,0.797,-0.086
37.295,-0.660,0.799,-0.086
37.305,-0.656,0.799,-0.082
37.315,-0.656,0.797,-0.084
37.325,-0.656,0.797,-0.082
37.335,-0.654,0.793,-0.080
37.345,-0.660,0.795,-0.080
37.355,-0.658,0.799,-0.084
37.365,-0.656,0.795,-0.080
37.375,-0.658,0.791,-0.086
37.385,-0.660,0.797,-0.084
37.395,-0.658,0.795,-0.082
37.405,-0.662,0.797,-0.086
37.415,-0.660,0.797,-0.082
37.425,-0.658,0.795,-0.078
37.435,-0.658,0.797,-0.080
37.445,-0.658,0.793,-0.080
37.455,-0.658,0.797,-0.080
37.465,-0.658,0.799,-0.080
37.475,-0.656,0.795,-0.084
37.485,-0.662,0.793,-0.080
37.495,-0.662,0.789,-0.078
37.505,-0.660,0.793,-0.080
37.515,-0.660,0.789,-0.082
37.525,-0.664,0.789,-0.084
37.535,-0.664,0.791,-0.076
37.545,-0.668,0.791,-0.082
37.555,-0.666,0.785,-0.080
37.565,-0.670,0.789,-0.080
37.575,-0.668,0.789,-0.084
37.585,-0.670,0.789,-0.082
37.595,-0.668,0.787,-0.084
37.605,-0.670,0.793,-0.080
37.615,-0.670,0.793,-0.078
37.625,-0.654,0.789,-0.078
37.635,-0.660,0.795,-0.080
37.645,-0.666,0.795,-0.078
37.655,-0.664,0.791,-0.076
37.665,-0.662,0.789,-0.078
37.675,-0.662,0.789,-0.078
37.685,-0.662,0.793,-0.074
37.695,-0.664,0.791,-0.076
37.705,-0.660,0.791,-0.076
37.715,-0.662,0.791,-0.076
37.725,-0.664,0.789,-0.078
37.735,-0.660,0.789,-0.080
37.745,-0.662,0.791,-0.072
37.755,-0.662,0.791,-0.078
37.765,-0.666,0.793,-0.076
37.775,-0.666,0.795,-0.076
37.785,-0.664,0.791,-0.078
37.795,-0.660,0.793,-0.080
37.805,-0.662,0.793,-0.078
37.815,-0.662,0.791,-0.078
37.825,-0.660,0.789,-0.082
37.835,-0.662,0.797,-0.078
37.845,-0.658,0.797,-0.078
37.855,-0.656,0.793,-0.078
37.865,-0.660,0.787,-0.082
37.875,-0.658,0.793,-0.078
37.885,-0.656,0.793,-0.082
37.895,-0.645,0.797,-0.078
37.905,-0.641,0.797,-0.074
37.915,-0.643,0.803,-0.080
37.925,-0.645,0.803,-0.078
37.935,-0.646,0.801,-0.080
37.945,-0.646,0.801,-0.084
37.955,-0.645,0.805,-0.082
37.965,-0.646,0.795,-0.084
37.975,-0.650,0.797,-0.084
37.985,-0.650,0.799,-0.090
37.995,-0.646,0.797,-0.090
38.005,-0.645,0.799,-0.092
38.015,-0.648,0.799,-0.096
38.025,-0.646,0.795,-0.094
38.035,-0.648,0.797,-0.090
38.045,-0.650,0.807,-0.092
38.055,-0.650,0.805,-0.092
38.065,-0.648,0.807,-0.096
38.075,-0.650,0.803,-0.094
38.085,-0.652,0.801,-0.098
38.095,-0.646,0.799,-0.102
38.105,-0.643,0.797,-0.100
38.115,-0.645,0.799,-0.100
38.125,-0.648,0.799,-0.105
38.135,-0.650,0.801,-0.102
38.145,-0.654,0.799,-0.104
38.155,-0.654,0.805,-0.105
38.165,-0.654,0.803,-0.104
38.175,-0.652,0.805,-0.105
38.185,-0.648,0.809,-0.100
38.195,-0.652,0.809,-0.107
38.205,-0.652,0.809,-0.111
38.215,-0.654,0.807,-0.111
38.225,-0.652,0.807,-0.107
38.235,-0.652,0.805,-0.107
38.245,-0.652,0.807,-0.107
38.255,-0.646,0.811,-0.107
38.265,-0.645,0.812,-0.105
38.275,-0.639,0.811,-0.104
38.285,-0.643,0.805,-0.102
38.295,-0.635,0.807,-0.104
38.305,-0.633,0.807,-0.100
38.315,-0.641,0.809,-0.100
38.325,-0.637,0.811,-0.102
38.335,-0.635,0.809,-0.098
38.345,-0.633,0.812,-0.100
38.355,-0.633,0.814,-0.100
38.365,-0.631,0.814,-0.098
38.375,-0.629,0.814,-0.100
38.385,-0.627,0.812,-0.094
38.395,-0.627,0.816,-0.100
38.405,-0.623,0.812,-0.098
38.415,-0.623,0.814,-0.096
38.425,-0.619,0.820,-0.094
38.435,-0.617,0.822,-0.094
38.445,-0.615,0.814,-0.096
38.455,-0.617,0.816,-0.096
38.465,-0.615,0.822,-0.094
38.475,-0.619,0.818,-0.096
38.485,-0.617,0.814,-0.092
38.495,-0.619,0.818,-0.098
38.505,-0.621,0.814,-0.096
38.515,-0.619,0.816,-0.098
38.525,-0.621,0.816,-0.100
38.535,-0.621,0.816,-0.100
38.545,-0.627,0.811,-0.102
38.555,-0.629,0.812,-0.105
38.565,-0.629,0.809,-0.107
38.575,-0.631,0.811,-0.107
38.585,-0.633,0.807,-0.107
38.595,-0.633,0.814,-0.109
38.605,-0.631,0.816,-0.107
38.615,-0.631,0.814,-0.105
38.625,-0.631,0.814,-0.107
38.635,-0.627,0.814,-0.105
38.645,-0.629,0.814,-0.105
38.655,-0.629,0.812,-0.107
38.665,-0.627,0.811,-0.107
38.675,-0.629,0.812,-0.113
38.685,-0.625,0.811,-0.109
38.695,-0.625,0.811,-0.109
38.705,-0.629,0.812,-0.107
38.715,-0.633,0.811,-0.109
38.725,-0.631,0.811,-0.107
38.735,-0.631,0.811,-0.111
38.745,-0.631,0.814,-0.107
38.755,-0.631,0.814,-0.107
38.765,-0.631,0.814,-0.109
38.775,-0.631,0.816,-0.111
38.785,-0.627,0.812,-0.115
38.795,-0.631,0.811,-0.113
38.805,-0.631,0.809,-0.111
38.815,-0.633,0.812,-0.111
38.825,-0.633,0.814,-0.111
38.835,-0.629,0.814,-0.113
38.845,-0.629,0.812,-0.113
38.855,-0.627,0.814,-0.111
38.865,-0.631,0.812,-0.113
38.875,-0.629,0.811,-0.109
38.885,-0.629,0.811,-0.111
38.895,-0.627,0.811,-0.113
38.905,-0.627,0.812,-0.111
38.915,-0.631,0.812,-0.115
38.925,-0.633,0.814,-0.113
38.935,-0.629,0.812,-0.111
38.945,-0.627,0.814,-0.111
38.955,-0.631,0.812,-0.109
38.965,-0.631,0.812,-0.111
38.975,-0.629,0.807,-0.111
38.985,-0.627,0.811,-0.113
38.995,-0.627,0.807,-0.109
39.005,-0.627,0.809,-0.111
39.015,-0.627,0.812,-0.109
39.025,-0.621,0.809,-0.111
39.035,-0.623,0.803,-0.109
39.045,-0.625,0.801,-0.113
39.055,-0.623,0.805,-0.109
39.065,-0.623,0.807,-0.109
39.075,-0.621,0.805,-0.113
39.085,-0.617,0.811,-0.107
39.095,-0.604,0.805,-0.109
39.105,-0.594,0.809,-0.107
39.115,-0.588,0.803,-0.109
39.125,-0.590,0.803,-0.111
39.135,-0.590,0.801,-0.117
39.145,-0.586,0.801,-0.113
39.155,-0.580,0.809,-0.113
39.165,-0.578,0.816,-0.117
39.175,-0.570,0.812,-0.121
39.185,-0.561,0.816,-0.127
39.195,-0.557,0.818,-0.125
39.205,-0.555,0.820,-0.129
39.215,-0.547,0.824,-0.129
39.225,-0.527,0.824,-0.135
39.235,-0.521,0.828,-0.139
39.245,-0.520,0.832,-0.143
39.255,-0.525,0.844,-0.137
39.265,-0.494,0.846,-0.156
39.275,-0.477,0.844,-0.148
39.285,-0.477,0.848,-0.158
39.295,-0.465,0.859,-0.168
39.305,-0.445,0.865,-0.178
39.315,-0.434,0.859,-0.176
39.325,-0.418,0.869,-0.184
39.335,-0.416,0.873,-0.188
39.345,-0.420,0.883,-0.197
39.355,-0.408,0.881,-0.209
39.365,-0.398,0.883,-0.215
39.375,-0.393,0.891,-0.225
39.385,-0.400,0.893,-0.232
39.395,-0.404,0.895,-0.242
39.405,-0.416,0.893,-0.252
39.415,-0.420,0.891,-0.266
39.425,-0.404,0.891,-0.273
39.435,-0.406,0.891,-0.285
39.445,-0.406,0.893,-0.299
39.455,-0.412,0.893,-0.316
39.465,-0.412,0.883,-0.334
39.475,-0.416,0.887,-0.342
39.485,-0.412,0.889,-0.354
39.495,-0.412,0.889,-0.357
39.505,-0.410,0.885,-0.367
39.515,-0.400,0.887,-0.373
39.525,-0.398,0.893,-0.379
39.535,-0.387,0.893,-0.385
39.545,-0.377,0.885,-0.391
39.555,-0.367,0.883,-0.395
39.565,-0.363,0.881,-0.404
39.575,-0.361,0.879,-0.406
39.585,-0.357,0.873,-0.408
39.595,-0.354,0.873,-0.418
39.605,-0.342,0.871,-0.422
39.615,-0.350,0.873,-0.424
39.625,-0.348,0.877,-0.432
39.635,-0.346,0.883,-0.430
39.645,-0.348,0.875,-0.432
39.655,-0.346,0.867,-0.438
39.665,-0.346,0.867,-0.441
39.675,-0.346,0.865,-0.445
39.685,-0.344,0.861,-0.443
39.695,-0.348,0.861,-0.447
39.705,-0.350,0.857,-0.449
39.715,-0.357,0.850,-0.447
39.725,-0.359,0.846,-0.449
39.735,-0.355,0.844,-0.445
39.745,-0.354,0.836,-0.445
39.755,-0.352,0.840,-0.447
39.765,-0.355,0.830,-0.443
39.775,-0.354,0.834,-0.443
39.785,-0.352,0.836,-0.447
39.795,-0.354,0.836,-0.445
39.805,-0.352,0.832,-0.439
39.815,-0.352,0.836,-0.436
39.825,-0.352,0.836,-0.434
39.835,-0.350,0.836,-0.434
39.845,-0.348,0.836,-0.436
39.855,-0.348,0.832,-0.432
39.865,-0.344,0.832,-0.432
39.875,-0.342,0.828,-0.434
39.885,-0.338,0.826,-0.434
39.895,-0.336,0.830,-0.428
39.905,-0.336,0.824,-0.428
39.915,-0.334,0.828,-0.430
39.925,-0.336,0.830,-0.428
39.935,-0.340,0.830,-0.426
39.945,-0.342,0.832,-0.422
39.955,-0.346,0.832,-0.428
39.965,-0.348,0.834,-0.426
39.975,-0.352,0.834,-0.428
39.985,-0.350,0.836,-0.428
39.995,-0.352,0.834,-0.428
40.005,-0.352,0.828,-0.428
40.015,-0.355,0.826,-0.432
40.025,-0.355,0.826,-0.436
40.035,-0.361,0.830,-0.432
40.045,-0.365,0.830,-0.432
40.055,-0.365,0.832,-0.430
40.065,-0.363,0.828,-0.432
40.075,-0.367,0.826,-0.430
40.085,-0.367,0.830,-0.432
40.095,-0.367,0.826,-0.430
40.105,-0.369,0.824,-0.428
40.115,-0.369,0.826,-0.426
40.125,-0.371,0.820,-0.428
40.135,-0.369,0.826,-0.428
40.145,-0.373,0.822,-0.426
40.155,-0.371,0.822,-0.428
40.165,-0.373,0.822,-0.432
40.175,-0.379,0.824,-0.428
40.185,-0.383,0.820,-0.430
40.195,-0.383,0.818,-0.430
40.205,-0.387,0.816,-0.428
40.215,-0.387,0.816,-0.432
40.225,-0.389,0.822,-0.434
40.235,-0.387,0.826,-0.424
40.245,-0.385,0.816,-0.430
40.255,-0.385,0.811,-0.428
40.265,-0.389,0.814,-0.430
40.275,-0.391,0.816,-0.430
40.285,-0.389,0.818,-0.434
40.295,-0.389,0.818,-0.432
40.305,-0.391,0.822,-0.430
40.315,-0.389,0.818,-0.428
40.325,-0.391,0.818,-0.428
40.335,-0.391,0.816,-0.428
40.345,-0.393,0.816,-0.428
40.355,-0.395,0.812,-0.424
40.365,-0.391,0.812,-0.432
40.375,-0.393,0.811,-0.430
40.385,-0.391,0.812,-0.428
40.395,-0.393,0.809,-0.430
40.405,-0.389,0.812,-0.432
40.415,-0.391,0.818,-0.428
40.425,-0.389,0.814,-0.430
40.435,-0.391,0.816,-0.430
40.445,-0.393,0.816,-0.430
40.455,-0.391,0.812,-0.430
40.465,-0.389,0.812,-0.432
40.475,-0.395,0.812,-0.430
40.485,-0.393,0.814,-0.432
40.495,-0.393,0.812,-0.430
40.505,-0.393,0.812,-0.432
40.515,-0.395,0.812,-0.434
40.525,-0.396,0.811,-0.432
40.535,-0.395,0.812,-0.430
40.545,-0.395,0.814,-0.438
40.555,-0.395,0.812,-0.434
40.565,-0.393,0.812,-0.432
40.575,-0.389,0.814,-0.432
40.585,-0.391,0.818,-0.434
40.595,-0.391,0.811,-0.434
40.605,-0.393,0.807,-0.439
40.615,-0.395,0.811,-0.436
40.625,-0.395,0.814,-0.434
40.635,-0.398,0.816,-0.434
40.645,-0.398,0.816,-0.434
40.655,-0.391,0.814,-0.434
40.665,-0.393,0.814,-0.434
40.675,-0.391,0.814,-0.436
40.685,-0.389,0.816,-0.434
40.695,-0.389,0.814,-0.436
40.705,-0.389,0.811,-0.439
40.715,-0.391,0.809,-0.434
40.725,-0.395,0.807,-0.436
40.735,-0.396,0.809,-0.439
40.745,-0.396,0.812,-0.438
40.755,-0.398,0.812,-0.436
40.765,-0.396,0.814,-0.436
40.775,-0.396,0.816,-0.434
40.785,-0.398,0.814,-0.434
40.795,-0.398,0.814,-0.434
40.805,-0.398,0.812,-0.434
40.815,-0.398,0.814,-0.434
40.825,-0.393,0.814,-0.430
40.835,-0.396,0.812,-0.428
40.845,-0.395,0.803,-0.430
40.855,-0.393,0.803,-0.430
40.865,-0.393,0.805,-0.432
40.875,-0.396,0.812,-0.426
40.885,-0.398,0.818,-0.428
40.895,-0.400,0.816,-0.424
40.905,-0.400,0.816,-0.426
40.915,-0.402,0.816,-0.430
40.925,-0.400,0.816,-0.426
40.935,-0.398,0.811,-0.428
40.945,-0.400,0.809,-0.430
40.955,-0.396,0.809,-0.424
40.965,-0.398,0.809,-0.428
40.975,-0.396,0.809,-0.426
40.985,-0.398,0.811,-0.430
40.995,-0.396,0.812,-0.426
41.005,-0.400,0.814,-0.430
41.015,-0.402,0.814,-0.428
41.025,-0.404,0.812,-0.432
41.035,-0.404,0.811,-0.434
41.045,-0.404,0.809,-0.428
41.055,-0.404,0.809,-0.430
41.065,-0.408,0.809,-0.430
41.075,-0.406,0.809,-0.430
41.085,-0.404,0.809,-0.430
41.095,-0.404,0.809,-0.430
41.105,-0.404,0.805,-0.430
41.115,-0.408,0.807,-0.432
41.125,-0.408,0.816,-0.432
41.135,-0.404,0.814,-0.428
41.145,-0.404,0.809,-0.434
41.155,-0.406,0.816,-0.430
41.165,-0.408,0.814,-0.432
41.175,-0.406,0.809,-0.430
41.185,-0.408,0.805,-0.432
41.195,-0.410,0.809,-0.430
41.205,-0.410,0.811,-0.428
41.215,-0.412,0.820,-0.428
41.225,-0.410,0.818,-0.426
41.235,-0.412,0.814,-0.426
41.245,-0.404,0.812,-0.428
41.255,-0.406,0.812,-0.420
41.265,-0.408,0.809,-0.424
41.275,-0.408,0.805,-0.424
41.285,-0.406,0.805,-0.422
41.295,-0.410,0.803,-0.422
41.305,-0.414,0.801,-0.424
41.315,-0.408,0.807,-0.422
41.325,-0.408,0.811,-0.422
41.335,-0.410,0.811,-0.422
41.345,-0.414,0.809,-0.420
41.355,-0.414,0.812,-0.418
41.365,-0.414,0.809,-0.420
41.375,-0.416,0.807,-0.420
41.385,-0.418,0.805,-0.420
41.395,-0.416,0.807,-0.424
41.405,-0.416,0.807,-0.420
41.415,-0.418,0.805,-0.420
41.425,-0.414,0.797,-0.424
41.435,-0.412,0.795,-0.428
41.445,-0.414,0.803,-0.426
41.455,-0.412,0.807,-0.430
41.465,-0.412,0.814,-0.428
41.475,-0.412,0.816,-0.428
41.485,-0.410,0.814,-0.426
41.495,-0.410,0.814,-0.426
41.505,-0.408,0.812,-0.424
41.515,-0.404,0.812,-0.428
41.525,-0.404,0.811,-0.426
41.535,-0.404,0.809,-0.428
41.545,-0.404,0.811,-0.426
41.555,-0.404,0.809,-0.430
41.565,-0.404,0.812,-0.426
41.575,-0.406,0.812,-0.428
41.585,-0.404,0.812,-0.428
41.595,-0.404,0.812,-0.428
41.605,-0.406,0.812,-0.426
41.615,-0.408,0.811,-0.430
41.625,-0.408,0.807,-0.430
41.635,-0.410,0.805,-0.434
41.645,-0.414,0.803,-0.430
41.655,-0.410,0.807,-0.434
41.665,-0.410,0.805,-0.434
41.675,-0.410,0.803,-0.436
41.685,-0.410,0.803,-0.436
41.695,-0.412,0.805,-0.438
41.705,-0.410,0.809,-0.438
41.715,-0.410,0.809,-0.434
41.725,-0.414,0.809,-0.436
41.735,-0.412,0.807,-0.436
41.745,-0.410,0.809,-0.434
41.755,-0.408,0.803,-0.434
41.765,-0.408,0.797,-0.434
41.775,-0.410,0.797,-0.438
41.785,-0.414,0.807,-0.436
41.795,-0.414,0.811,-0.436
41.805,-0.414,0.811,-0.436
41.815,-0.414,0.807,-0.432
41.825,-0.414,0.807,-0.434
41.835,-0.414,0.805,-0.434
41.845,-0.418,0.801,-0.434
41.855,-0.416,0.799,-0.434
41.865,-0.418,0.801,-0.432
41.875,-0.418,0.795,-0.438
41.885,-0.420,0.799,-0.436
41.895,-0.422,0.799,-0.436
41.905,-0.422,0.799,-0.436
41.915,-0.420,0.805,-0.432
41.925,-0.422,0.805,-0.432
41.935,-0.420,0.805,-0.434
41.945,-0.420,0.803,-0.436
41.955,-0.420,0.799,-0.436
41.965,-0.424,0.799,-0.436
41.975,-0.422,0.803,-0.432
41.985,-0.422,0.807,-0.434
41.995,-0.424,0.807,-0.432
42.005,-0.426,0.799,-0.432
42.015,-0.424,0.793,-0.438
42.025,-0.426,0.793,-0.434
42.035,-0.426,0.801,-0.432
42.045,-0.432,0.809,-0.436
42.055,-0.432,0.807,-0.432
42.065,-0.430,0.805,-0.430
42.075,-0.438,0.805,-0.432
42.085,-0.438,0.799,-0.428
42.095,-0.439,0.797,-0.430
42.105,-0.441,0.795,-0.432
42.115,-0.443,0.793,-0.428
42.125,-0.443,0.793,-0.432
42.135,-0.445,0.791,-0.434
42.145,-0.451,0.787,-0.432
42.155,-0.457,0.789,-0.436
42.165,-0.459,0.785,-0.434
42.175,-0.459,0.787,-0.434
42.185,-0.463,0.787,-0.434
42.195,-0.465,0.787,-0.434
42.205,-0.463,0.783,-0.432
42.215,-0.461,0.781,-0.432
42.225,-0.461,0.783,-0.432
42.235,-0.463,0.783,-0.430
42.245,-0.461,0.779,-0.428
42.255,-0.459,0.783,-0.424
42.265,-0.459,0.783,-0.422
42.275,-0.459,0.789,-0.424
42.285,-0.463,0.787,-0.420
42.295,-0.465,0.783,-0.424
42.305,-0.467,0.785,-0.418
42.315,-0.465,0.785,-0.416
42.325,-0.471,0.783,-0.416
42.335,-0.473,0.785,-0.418
42.345,-0.473,0.783,-0.416
42.355,-0.473,0.777,-0.414
42.365,-0.475,0.771,-0.416
42.375,-0.480,0.771,-0.416
42.385,-0.480,0.777,-0.412
42.395,-0.480,0.779,-0.414
42.405,-0.480,0.777,-0.412
42.415,-0.486,0.779,-0.410
42.425,-0.488,0.777,-0.414
42.435,-0.490,0.775,-0.412
42.445,-0.490,0.773,-0.414
42.455,-0.488,0.770,-0.412
42.465,-0.494,0.770,-0.412
42.475,-0.494,0.768,-0.412
42.485,-0.496,0.771,-0.414
42.495,-0.496,0.770,-0.414
42.505,-0.498,0.770,-0.408
42.515,-0.500,0.771,-0.410
42.525,-0.502,0.770,-0.414
42.535,-0.504,0.770,-0.412
42.545,-0.506,0.770,-0.412
42.555,-0.506,0.770,-0.414
42.565,-0.508,0.764,-0.408
42.575,-0.512,0.764,-0.408
42.585,-0.514,0.768,-0.410
42.595,-0.512,0.766,-0.410
42.605,-0.512,0.760,-0.416
42.615,-0.512,0.756,-0.412
42.625,-0.514,0.760,-0.414
42.635,-0.520,0.760,-0.414
42.645,-0.521,0.764,-0.414
42.655,-0.518,0.762,-0.414
42.665,-0.521,0.766,-0.410
42.675,-0.521,0.758,-0.410
42.685,-0.520,0.762,-0.412
42.695,-0.520,0.760,-0.410
42.705,-0.518,0.756,-0.410
42.715,-0.521,0.754,-0.412
42.725,-0.521,0.754,-0.410
42.735,-0.521,0.754,-0.412
42.745,-0.521,0.754,-0.414
42.755,-0.525,0.754,-0.410
42.765,-0.525,0.752,-0.410
42.775,-0.531,0.754,-0.408
42.785,-0.527,0.752,-0.412
42.795,-0.531,0.750,-0.412
42.805,-0.531,0.752,-0.412
42.815,-0.531,0.750,-0.410
42.825,-0.529,0.748,-0.414
42.835,-0.531,0.750,-0.412
42.845,-0.533,0.750,-0.412
42.855,-0.533,0.750,-0.416
42.865,-0.539,0.752,-0.412
42.875,-0.535,0.750,-0.410
42.885,-0.537,0.752,-0.414
42.895,-0.539,0.752,-0.412
42.905,-0.539,0.748,-0.416
42.915,-0.539,0.748,-0.416
42.925,-0.541,0.748,-0.416
42.935,-0.541,0.746,-0.414
42.945,-0.539,0.746,-0.414
42.955,-0.541,0.746,-0.414
42.965,-0.537,0.748,-0.414
42.975,-0.535,0.744,-0.418
42.985,-0.537,0.740,-0.416
42.995,-0.537,0.740,-0.414
43.005,-0.539,0.750,-0.418
43.015,-0.543,0.748,-0.414
43.025,-0.543,0.754,-0.416
43.035,-0.539,0.754,-0.414
43.045,-0.541,0.748,-0.414
43.055,-0.543,0.748,-0.416
43.065,-0.535,0.744,-0.414
43.075,-0.537,0.748,-0.414
43.085,-0.535,0.748,-0.414
43.095,-0.535,0.746,-0.410
43.105,-0.535,0.746,-0.412
43.115,-0.533,0.746,-0.412
43.125,-0.535,0.744,-0.412
43.135,-0.531,0.748,-0.410
43.145,-0.535,0.752,-0.408
43.155,-0.533,0.752,-0.410
43.165,-0.533,0.750,-0.410
43.175,-0.531,0.748,-0.414
43.185,-0.531,0.746,-0.412
43.195,-0.531,0.750,-0.412
43.205,-0.535,0.756,-0.414
43.215,-0.533,0.752,-0.408
43.225,-0.533,0.746,-0.416
43.235,-0.531,0.748,-0.414
43.245,-0.535,0.746,-0.410
43.255,-0.537,0.752,-0.414
43.265,-0.537,0.752,-0.410
43.275,-0.539,0.756,-0.410
43.285,-0.541,0.754,-0.416
43.295,-0.539,0.750,-0.410
43.305,-0.537,0.750,-0.410
43.315,-0.535,0.746,-0.410
43.325,-0.533,0.744,-0.408
43.335,-0.537,0.744,-0.412
43.345,-0.539,0.742,-0.412
43.355,-0.537,0.746,-0.412
43.365,-0.535,0.744,-0.410
43.375,-0.537,0.744,-0.412
43.385,-0.537,0.746,-0.412
43.395,-0.535,0.744,-0.406
43.405,-0.535,0.744,-0.408
43.415,-0.535,0.748,-0.408
43.425,-0.535,0.746,-0.412
43.435,-0.537,0.748,-0.410
43.445,-0.539,0.746,-0.412
43.455,-0.537,0.744,-0.408
43.465,-0.535,0.742,-0.406
43.475,-0.539,0.744,-0.410
43.485,-0.541,0.742,-0.410
43.495,-0.539,0.744,-0.412
43.505,-0.543,0.746,-0.410
43.515,-0.545,0.746,-0.412
43.525,-0.549,0.748,-0.412
43.535,-0.543,0.750,-0.410
43.545,-0.547,0.750,-0.408
43.555,-0.545,0.750,-0.410
43.565,-0.545,0.750,-0.408
43.575,-0.539,0.746,-0.414
43.585,-0.541,0.744,-0.412
43.595,-0.543,0.738,-0.416
43.605,-0.547,0.742,-0.414
43.615,-0.549,0.748,-0.414
43.625,-0.549,0.750,-0.416
43.635,-0.547,0.746,-0.418
43.645,-0.547,0.746,-0.420
43.655,-0.547,0.746,-0.418
43.665,-0.545,0.744,-0.416
43.675,-0.541,0.746,-0.418
43.685,-0.545,0.744,-0.414
43.695,-0.545,0.742,-0.414
43.705,-0.543,0.742,-0.414
43.715,-0.539,0.746,-0.414
43.725,-0.539,0.744,-0.414
43.735,-0.543,0.750,-0.416
43.745,-0.539,0.746,-0.416
43.755,-0.537,0.748,-0.416
43.765,-0.535,0.750,-0.416
43.775,-0.533,0.748,-0.412
43.785,-0.533,0.750,-0.414
43.795,-0.537,0.744,-0.410
43.805,-0.535,0.746,-0.412
43.815,-0.533,0.752,-0.412
43.825,-0.535,0.752,-0.414
43.835,-0.535,0.740,-0.414
43.845,-0.533,0.734,-0.414
43.855,-0.533,0.742,-0.412
43.865,-0.533,0.746,-0.414
43.875,-0.537,0.752,-0.414
43.885,-0.535,0.752,-0.416
43.895,-0.537,0.750,-0.418
43.905,-0.537,0.748,-0.414
43.915,-0.533,0.748,-0.416
43.925,-0.531,0.744,-0.418
43.935,-0.533,0.744,-0.418
43.945,-0.533,0.742,-0.420
43.955,-0.535,0.744,-0.418
43.965,-0.531,0.742,-0.422
43.975,-0.533,0.744,-0.418
43.985,-0.533,0.746,-0.422
43.995,-0.537,0.748,-0.422
44.005,-0.531,0.752,-0.418
44.015,-0.531,0.748,-0.418
44.025,-0.531,0.748,-0.418
44.035,-0.533,0.748,-0.420
44.045,-0.531,0.746,-0.420
44.055,-0.535,0.744,-0.420
44.065,-0.533,0.744,-0.422
44.075,-0.535,0.746,-0.422
44.085,-0.535,0.746,-0.422
44.095,-0.535,0.748,-0.422
44.105,-0.535,0.744,-0.424
44.115,-0.539,0.744,-0.420
44.125,-0.535,0.750,-0.422
44.135,-0.537,0.744,-0.420
44.145,-0.533,0.744,-0.422
44.155,-0.535,0.746,-0.424
44.165,-0.537,0.748,-0.420
44.175,-0.535,0.742,-0.424
44.185,-0.533,0.736,-0.422
44.195,-0.539,0.740,-0.426
44.205,-0.539,0.744,-0.420
44.215,-0.539,0.752,-0.418
44.225,-0.537,0.748,-0.422
44.235,-0.537,0.750,-0.424
44.245,-0.535,0.744,-0.424
44.255,-0.539,0.744,-0.424
44.265,-0.537,0.746,-0.420
44.275,-0.533,0.740,-0.422
44.285,-0.537,0.738,-0.424
44.295,-0.537,0.740,-0.422
44.305,-0.533,0.738,-0.424
44.315,-0.535,0.742,-0.420
44.325,-0.535,0.742,-0.424
44.335,-0.533,0.748,-0.422
44.345,-0.533,0.748,-0.418
44.355,-0.533,0.746,-0.418
44.365,-0.533,0.744,-0.420
44.375,-0.533,0.742,-0.422
44.385,-0.529,0.740,-0.422
44.395,-0.529,0.746,-0.422
44.405,-0.529,0.746,-0.424
44.415,-0.531,0.748,-0.422
44.425,-0.531,0.738,-0.424
44.435,-0.529,0.736,-0.426
44.445,-0.531,0.744,-0.426
44.455,-0.531,0.750,-0.420
44.465,-0.533,0.752,-0.424
44.475,-0.533,0.754,-0.424
44.485,-0.533,0.750,-0.424
44.495,-0.531,0.752,-0.422
44.505,-0.527,0.748,-0.420
44.515,-0.529,0.746,-0.422
44.525,-0.529,0.742,-0.424
44.535,-0.529,0.744,-0.426
44.545,-0.529,0.746,-0.426
44.555,-0.527,0.748,-0.426
44.565,-0.529,0.748,-0.422
44.575,-0.529,0.750,-0.420
44.585,-0.529,0.748,-0.424
44.595,-0.527,0.748,-0.422
44.605,-0.527,0.750,-0.424
44.615,-0.527,0.750,-0.422
44.625,-0.527,0.744,-0.426
44.635,-0.529,0.744,-0.424
44.645,-0.529,0.744,-0.426
44.655,-0.531,0.744,-0.424
44.665,-0.533,0.746,-0.426
44.675,-0.529,0.742,-0.424
44.685,-0.533,0.748,-0.424
44.695,-0.533,0.748,-0.424
44.705,-0.535,0.748,-0.424
44.715,-0.533,0.748,-0.424
44.725,-0.531,0.748,-0.424
44.735,-0.535,0.754,-0.424
44.745,-0.531,0.752,-0.420
44.755,-0.535,0.750,-0.418
44.765,-0.531,0.748,-0.422
44.775,-0.531,0.748,-0.422
44.785,-0.525,0.734,-0.418
44.795,-0.531,0.736,-0.424
44.805,-0.527,0.746,-0.420
44.815,-0.533,0.750,-0.418
44.825,-0.531,0.758,-0.422
44.835,-0.535,0.756,-0.418
44.845,-0.539,0.752,-0.416
44.855,-0.537,0.752,-0.414
44.865,-0.533,0.750,-0.416
44.875,-0.539,0.746,-0.418
44.885,-0.543,0.744,-0.422
44.895,-0.539,0.744,-0.416
44.905,-0.539,0.738,-0.418
44.915,-0.537,0.738,-0.420
44.925,-0.537,0.740,-0.418
44.935,-0.535,0.742,-0.420
44.945,-0.535,0.744,-0.414
44.955,-0.535,0.746,-0.412
44.965,-0.539,0.744,-0.418
44.975,-0.537,0.740,-0.416
44.985,-0.539,0.742,-0.416
44.995,-0.539,0.740,-0.414
45.005,-0.539,0.744,-0.416
45.015,-0.539,0.744,-0.414
45.025,-0.533,0.742,-0.418
45.035,-0.535,0.734,-0.416
45.045,-0.535,0.736,-0.420
45.055,-0.537,0.744,-0.418
45.065,-0.539,0.748,-0.420
45.075,-0.539,0.746,-0.422
45.085,-0.537,0.746,-0.420
45.095,-0.537,0.748,-0.422
45.105,-0.535,0.744,-0.422
45.115,-0.537,0.744,-0.424
45.125,-0.537,0.742,-0.424
45.135,-0.537,0.740,-0.422
45.145,-0.535,0.742,-0.424
45.155,-0.535,0.740,-0.424
45.165,-0.533,0.742,-0.424
45.175,-0.533,0.742,-0.422
45.185,-0.533,0.740,-0.424
45.195,-0.533,0.742,-0.422
45.205,-0.531,0.746,-0.424
45.215,-0.531,0.742,-0.422
45.225,-0.533,0.744,-0.426
45.235,-0.533,0.744,-0.430
45.245,-0.529,0.744,-0.428
45.255,-0.531,0.744,-0.424
45.265,-0.531,0.744,-0.422
45.275,-0.529,0.744,-0.426
45.285,-0.531,0.742,-0.426
45.295,-0.529,0.744,-0.428
45.305,-0.533,0.746,-0.426
45.315,-0.535,0.748,-0.428
45.325,-0.537,0.746,-0.426
45.335,-0.531,0.746,-0.424
45.345,-0.535,0.746,-0.426
45.355,-0.535,0.746,-0.426
45.365,-0.535,0.744,-0.426
45.375,-0.533,0.746,-0.422
45.385,-0.533,0.742,-0.424
45.395,-0.537,0.734,-0.428
45.405,-0.535,0.732,-0.428
45.415,-0.535,0.734,-0.422
45.425,-0.539,0.742,-0.426
45.435,-0.543,0.746,-0.424
45.445,-0.543,0.744,-0.424
45.455,-0.543,0.742,-0.424
45.465,-0.541,0.740,-0.426
45.475,-0.539,0.742,-0.424
45.485,-0.539,0.742,-0.424
45.495,-0.539,0.740,-0.424
45.505,-0.539,0.738,-0.424
45.515,-0.541,0.740,-0.422
45.525,-0.539,0.740,-0.420
45.535,-0.543,0.738,-0.424
45.545,-0.543,0.740,-0.422
45.555,-0.541,0.740,-0.420
45.565,-0.535,0.740,-0.420
45.575,-0.539,0.736,-0.420
45.585,-0.539,0.734,-0.420
45.595,-0.541,0.732,-0.422
45.605,-0.543,0.734,-0.424
45.615,-0.545,0.736,-0.424
45.625,-0.549,0.744,-0.424
45.635,-0.543,0.744,-0.420
45.645,-0.541,0.734,-0.426
45.655,-0.543,0.734,-0.426
45.665,-0.543,0.736,-0.424
45.675,-0.547,0.740,-0.424
45.685,-0.545,0.744,-0.420
45.695,-0.545,0.742,-0.420
45.705,-0.539,0.744,-0.420
45.715,-0.539,0.746,-0.418
45.725,-0.535,0.740,-0.416
45.735,-0.535,0.738,-0.418
45.745,-0.537,0.738,-0.420
45.755,-0.539,0.736,-0.418
45.765,-0.535,0.736,-0.420
45.775,-0.539,0.736,-0.422
45.785,-0.539,0.742,-0.418
45.795,-0.539,0.742,-0.424
45.805,-0.539,0.744,-0.420
45.815,-0.541,0.742,-0.424
45.825,-0.537,0.740,-0.424
45.835,-0.539,0.740,-0.424
45.845,-0.539,0.742,-0.424
45.855,-0.541,0.740,-0.426
45.865,-0.539,0.742,-0.424
45.875,-0.541,0.742,-0.422
45.885,-0.541,0.742,-0.422
45.895,-0.547,0.738,-0.418
45.905,-0.541,0.738,-0.424
45.915,-0.541,0.740,-0.424
45.925,-0.541,0.736,-0.422
45.935,-0.543,0.740,-0.422
45.945,-0.547,0.738,-0.426
45.955,-0.547,0.736,-0.426
45.965,-0.549,0.736,-0.420
45.975,-0.545,0.740,-0.424
45.985,-0.541,0.736,-0.422
45.995,-0.543,0.740,-0.422
46.005,-0.543,0.738,-0.424
46.015,-0.543,0.736,-0.426
46.025,-0.545,0.730,-0.426
46.035,-0.547,0.730,-0.424
46.045,-0.549,0.738,-0.428
46.055,-0.551,0.744,-0.424
46.065,-0.555,0.746,-0.424
46.075,-0.553,0.744,-0.420
46.085,-0.553,0.740,-0.422
46.095,-0.551,0.738,-0.420
46.105,-0.547,0.736,-0.420
46.115,-0.549,0.734,-0.420
46.125,-0.545,0.730,-0.420
46.135,-0.545,0.732,-0.420
46.145,-0.545,0.736,-0.416
46.155,-0.545,0.740,-0.414
46.165,-0.543,0.742,-0.412
46.175,-0.545,0.742,-0.412
46.185,-0.541,0.742,-0.410
46.195,-0.541,0.740,-0.410
46.205,-0.541,0.736,-0.408
46.215,-0.541,0.740,-0.410
46.225,-0.541,0.738,-0.412
46.235,-0.541,0.738,-0.410
46.245,-0.543,0.742,-0.414
46.255,-0.547,0.744,-0.410
46.265,-0.545,0.742,-0.412
46.275,-0.545,0.734,-0.414
46.285,-0.547,0.738,-0.414
46.295,-0.549,0.744,-0.420
46.305,-0.549,0.748,-0.412
46.315,-0.549,0.754,-0.414
46.325,-0.549,0.750,-0.416
46.335,-0.545,0.746,-0.412
46.345,-0.547,0.744,-0.414
46.355,-0.541,0.744,-0.414
46.365,-0.539,0.742,-0.410
46.375,-0.545,0.738,-0.414
46.385,-0.545,0.740,-0.414
46.395,-0.545,0.738,-0.412
46.405,-0.545,0.742,-0.412
46.415,-0.547,0.740,-0.414
46.425,-0.545,0.742,-0.412
46.435,-0.547,0.744,-0.412
46.445,-0.547,0.742,-0.414
46.455,-0.545,0.742,-0.414
46.465,-0.549,0.744,-0.414
46.475,-0.547,0.742,-0.414
46.485,-0.547,0.742,-0.414
46.495,-0.547,0.740,-0.412
46.505,-0.547,0.740,-0.414
46.515,-0.551,0.742,-0.412
46.525,-0.549,0.742,-0.414
46.535,-0.547,0.740,-0.410
46.545,-0.553,0.738,-0.412
46.555,-0.551,0.738,-0.414
46.565,-0.553,0.736,-0.414
46.575,-0.555,0.740,-0.412
46.585,-0.551,0.742,-0.414
46.595,-0.549,0.742,-0.410
46.605,-0.549,0.744,-0.412
46.615,-0.553,0.738,-0.414
46.625,-0.547,0.740,-0.412
46.635,-0.547,0.736,-0.410
46.645,-0.555,0.732,-0.408
46.655,-0.553,0.736,-0.410
46.665,-0.555,0.742,-0.408
46.675,-0.551,0.740,-0.408
46.685,-0.549,0.740,-0.412
46.695,-0.547,0.744,-0.404
46.705,-0.547,0.738,-0.406
46.715,-0.547,0.734,-0.408
46.725,-0.545,0.738,-0.406
46.735,-0.551,0.732,-0.408
46.745,-0.551,0.738,-0.412
46.755,-0.547,0.738,-0.406
46.765,-0.545,0.740,-0.410
46.775,-0.549,0.738,-0.410
46.785,-0.553,0.738,-0.410
46.795,-0.549,0.740,-0.412
46.805,-0.551,0.742,-0.410
46.815,-0.547,0.740,-0.412
46.825,-0.553,0.740,-0.412
46.835,-0.549,0.740,-0.412
46.845,-0.551,0.738,-0.412
46.855,-0.551,0.744,-0.414
46.865,-0.553,0.746,-0.410
46.875,-0.551,0.746,-0.412
46.885,-0.551,0.736,-0.416
46.895,-0.553,0.734,-0.416
46.905,-0.551,0.738,-0.416
46.915,-0.551,0.742,-0.414
46.925,-0.553,0.742,-0.418
46.935,-0.553,0.742,-0.416
46.945,-0.549,0.740,-0.416
46.955,-0.547,0.738,-0.414
46.965,-0.547,0.742,-0.412
46.975,-0.547,0.740,-0.412
46.985,-0.543,0.736,-0.412
46.995,-0.543,0.736,-0.412
47.005,-0.539,0.736,-0.412
47.015,-0.543,0.738,-0.416
47.025,-0.543,0.740,-0.414
47.035,-0.547,0.738,-0.410
47.045,-0.547,0.740,-0.414
47.055,-0.545,0.738,-0.416
47.065,-0.547,0.740,-0.416
47.075,-0.547,0.740,-0.418
47.085,-0.547,0.740,-0.416
47.095,-0.547,0.738,-0.416
47.105,-0.549,0.740,-0.416
47.115,-0.551,0.738,-0.416
47.125,-0.551,0.732,-0.422
47.135,-0.549,0.734,-0.418
47.145,-0.551,0.736,-0.416
47.155,-0.551,0.736,-0.420
47.165,-0.553,0.736,-0.420
47.175,-0.551,0.738,-0.422
47.185,-0.549,0.736,-0.418
47.195,-0.551,0.738,-0.420
47.205,-0.551,0.736,-0.422
47.215,-0.551,0.734,-0.420
47.225,-0.549,0.732,-0.422
47.235,-0.551,0.732,-0.424
47.245,-0.551,0.727,-0.424
47.255,-0.555,0.729,-0.422
47.265,-0.555,0.736,-0.422
47.275,-0.555,0.740,-0.420
47.285,-0.555,0.736,-0.422
47.295,-0.553,0.738,-0.422
47.305,-0.551,0.734,-0.422
47.315,-0.553,0.732,-0.420
47.325,-0.557,0.730,-0.420
47.335,-0.551,0.727,-0.420
47.345,-0.549,0.727,-0.420
47.355,-0.549,0.730,-0.422
47.365,-0.549,0.729,-0.420
47.375,-0.549,0.732,-0.424
47.385,-0.549,0.736,-0.422
47.395,-0.547,0.738,-0.420
47.405,-0.549,0.740,-0.418
47.415,-0.547,0.738,-0.418
47.425,-0.547,0.736,-0.420
47.435,-0.543,0.736,-0.422
47.445,-0.547,0.732,-0.418
47.455,-0.545,0.734,-0.418
47.465,-0.551,0.738,-0.422
47.475,-0.549,0.738,-0.420
47.485,-0.545,0.734,-0.418
47.495,-0.543,0.727,-0.424
47.505,-0.547,0.723,-0.424
47.515,-0.545,0.732,-0.426
47.525,-0.549,0.736,-0.424
47.535,-0.553,0.736,-0.422
47.545,-0.549,0.736,-0.424
47.555,-0.553,0.736,-0.424
47.565,-0.549,0.732,-0.424
47.575,-0.551,0.732,-0.426
47.585,-0.547,0.734,-0.426
47.595,-0.545,0.732,-0.426
47.605,-0.547,0.727,-0.424
47.615,-0.541,0.730,-0.428
47.625,-0.545,0.732,-0.426
47.635,-0.543,0.734,-0.426
47.645,-0.545,0.734,-0.430
47.655,-0.549,0.736,-0.426
47.665,-0.547,0.736,-0.426
47.675,-0.551,0.734,-0.428
47.685,-0.549,0.732,-0.428
47.695,-0.551,0.732,-0.430
47.705,-0.555,0.732,-0.430
47.715,-0.551,0.734,-0.430
47.725,-0.551,0.732,-0.430
47.735,-0.553,0.727,-0.430
47.745,-0.551,0.725,-0.430
47.755,-0.551,0.730,-0.426
47.765,-0.549,0.729,-0.430
47.775,-0.549,0.730,-0.428
47.785,-0.555,0.729,-0.428
47.795,-0.553,0.729,-0.430
47.805,-0.555,0.732,-0.426
47.815,-0.553,0.730,-0.430
47.825,-0.551,0.730,-0.422
47.835,-0.555,0.729,-0.426
47.845,-0.557,0.729,-0.428
47.855,-0.553,0.721,-0.428
47.865,-0.553,0.715,-0.428
47.875,-0.555,0.723,-0.428
47.885,-0.553,0.729,-0.426
47.895,-0.557,0.730,-0.422
47.905,-0.555,0.730,-0.422
47.915,-0.555,0.730,-0.422
47.925,-0.557,0.729,-0.426
47.935,-0.553,0.727,-0.430
47.945,-0.557,0.729,-0.426
47.955,-0.559,0.727,-0.430
47.965,-0.557,0.729,-0.428
47.975,-0.555,0.729,-0.430
47.985,-0.557,0.729,-0.430
47.995,-0.555,0.730,-0.426
48.005,-0.553,0.732,-0.424
48.015,-0.551,0.734,-0.424
48.025,-0.551,0.736,-0.424
48.035,-0.551,0.734,-0.424
48.045,-0.549,0.729,-0.426
48.055,-0.553,0.730,-0.422
48.065,-0.551,0.727,-0.422
48.075,-0.551,0.729,-0.426
48.085,-0.555,0.732,-0.424
48.095,-0.557,0.732,-0.424
48.105,-0.557,0.727,-0.424
48.115,-0.553,0.719,-0.420
48.125,-0.555,0.721,-0.424
48.135,-0.557,0.725,-0.428
48.145,-0.559,0.730,-0.422
48.155,-0.559,0.729,-0.424
48.165,-0.555,0.729,-0.422
48.175,-0.555,0.729,-0.424
48.185,-0.555,0.727,-0.420
48.195,-0.553,0.727,-0.428
48.205,-0.555,0.729,-0.422
48.215,-0.555,0.727,-0.420
48.225,-0.553,0.725,-0.424
48.235,-0.555,0.725,-0.424
48.245,-0.553,0.725,-0.426
48.255,-0.553,0.725,-0.422
48.265,-0.551,0.725,-0.426
48.275,-0.555,0.729,-0.426
48.285,-0.555,0.727,-0.424
48.295,-0.555,0.727,-0.430
48.305,-0.555,0.727,-0.430
48.315,-0.555,0.729,-0.426
48.325,-0.555,0.725,-0.428
48.335,-0.553,0.723,-0.430
48.345,-0.559,0.723,-0.432
48.355,-0.561,0.725,-0.434
48.365,-0.557,0.723,-0.432
48.375,-0.557,0.721,-0.434
48.385,-0.555,0.721,-0.436
48.395,-0.557,0.727,-0.434
48.405,-0.557,0.723,-0.438
48.415,-0.557,0.725,-0.438
48.425,-0.555,0.725,-0.436
48.435,-0.555,0.727,-0.436
48.445,-0.553,0.725,-0.436
48.455,-0.555,0.727,-0.438
48.465,-0.555,0.727,-0.436
48.475,-0.553,0.721,-0.436
48.485,-0.549,0.715,-0.439
48.495,-0.553,0.711,-0.441
48.505,-0.553,0.715,-0.436
48.515,-0.555,0.723,-0.439
48.525,-0.553,0.723,-0.439
48.535,-0.553,0.723,-0.439
48.545,-0.557,0.723,-0.439
48.555,-0.557,0.723,-0.441
48.565,-0.555,0.727,-0.438
48.575,-0.555,0.727,-0.439
48.585,-0.555,0.721,-0.443
48.595,-0.553,0.719,-0.441
48.605,-0.553,0.717,-0.441
48.615,-0.549,0.721,-0.439
48.625,-0.551,0.725,-0.436
48.635,-0.551,0.723,-0.439
48.645,-0.551,0.725,-0.441
48.655,-0.549,0.727,-0.439
48.665,-0.551,0.725,-0.434
48.675,-0.551,0.723,-0.438
48.685,-0.553,0.717,-0.441
48.695,-0.553,0.719,-0.438
48.705,-0.553,0.725,-0.438
48.715,-0.557,0.727,-0.438
48.725,-0.553,0.725,-0.438
48.735,-0.551,0.721,-0.438
48.745,-0.547,0.721,-0.438
48.755,-0.551,0.725,-0.441
48.765,-0.549,0.732,-0.434
48.775,-0.549,0.730,-0.436
48.785,-0.549,0.730,-0.434
48.795,-0.549,0.730,-0.439
48.805,-0.545,0.729,-0.434
48.815,-0.545,0.723,-0.432
48.825,-0.549,0.725,-0.432
48.835,-0.551,0.725,-0.434
48.845,-0.547,0.725,-0.430
48.855,-0.547,0.727,-0.432
48.865,-0.545,0.729,-0.428
48.875,-0.545,0.729,-0.432
48.885,-0.545,0.729,-0.432
48.895,-0.543,0.729,-0.430
48.905,-0.547,0.727,-0.430
48.915,-0.547,0.725,-0.430
48.925,-0.549,0.725,-0.434
48.935,-0.551,0.727,-0.434
48.945,-0.553,0.723,-0.432
48.955,-0.553,0.723,-0.436
48.965,-0.553,0.723,-0.434
48.975,-0.557,0.725,-0.434
48.985,-0.557,0.721,-0.436
48.995,-0.555,0.723,-0.436
49.005,-0.559,0.723,-0.436
49.015,-0.557,0.727,-0.438
49.025,-0.559,0.727,-0.434
49.035,-0.561,0.725,-0.438
49.045,-0.559,0.723,-0.434
49.055,-0.559,0.723,-0.430
49.065,-0.557,0.725,-0.430
49.075,-0.555,0.723,-0.434
49.085,-0.557,0.725,-0.430
49.095,-0.557,0.725,-0.432
49.105,-0.557,0.721,-0.434
49.115,-0.557,0.721,-0.432
49.125,-0.559,0.723,-0.428
49.135,-0.564,0.730,-0.428
49.145,-0.564,0.729,-0.424
49.155,-0.564,0.721,-0.426
49.165,-0.561,0.723,-0.428
49.175,-0.561,0.723,-0.424
49.185,-0.564,0.719,-0.422
49.195,-0.564,0.715,-0.428
49.205,-0.564,0.713,-0.426
49.215,-0.566,0.715,-0.428
49.225,-0.562,0.717,-0.426
49.235,-0.564,0.719,-0.424
49.245,-0.562,0.721,-0.426
49.255,-0.564,0.721,-0.424
49.265,-0.561,0.723,-0.426
49.275,-0.561,0.723,-0.424
49.285,-0.559,0.725,-0.426
49.295,-0.559,0.725,-0.426
49.305,-0.559,0.723,-0.426
49.315,-0.559,0.721,-0.424
49.325,-0.555,0.727,-0.424
49.335,-0.559,0.729,-0.426
49.345,-0.557,0.727,-0.426
49.355,-0.555,0.721,-0.430
49.365,-0.555,0.721,-0.426
49.375,-0.553,0.723,-0.430
49.385,-0.559,0.734,-0.430
49.395,-0.555,0.738,-0.430
49.405,-0.553,0.734,-0.426
49.415,-0.553,0.732,-0.426
49.425,-0.551,0.730,-0.428
49.435,-0.549,0.727,-0.428
49.445,-0.553,0.725,-0.428
49.455,-0.549,0.723,-0.424
49.465,-0.551,0.723,-0.426
49.475,-0.551,0.723,-0.424
49.485,-0.551,0.725,-0.426
49.495,-0.553,0.727,-0.428
49.505,-0.551,0.729,-0.430
49.515,-0.551,0.727,-0.424
49.525,-0.551,0.730,-0.424
49.535,-0.553,0.729,-0.424
49.545,-0.549,0.725,-0.426
49.555,-0.553,0.727,-0.428
49.565,-0.555,0.723,-0.428
49.575,-0.557,0.721,-0.430
49.585,-0.557,0.719,-0.432
49.595,-0.555,0.721,-0.430
49.605,-0.561,0.727,-0.430
49.615,-0.559,0.725,-0.432
49.625,-0.559,0.717,-0.436
49.635,-0.561,0.719,-0.438
49.645,-0.562,0.717,-0.438
49.655,-0.562,0.719,-0.436
49.665,-0.561,0.723,-0.438
49.675,-0.555,0.721,-0.438
49.685,-0.557,0.719,-0.438
49.695,-0.557,0.721,-0.436
49.705,-0.557,0.719,-0.438
