df_hash,22ZHK4.HLFD3X
device,HZ2X61
project_hash,29R7
project_name,istanbul_aydin_university
person_hash,29R7.F6U0
person_label,V53
date_time_start,2025-10-31_14-12-01.952000_+03
date_time_start_unix,1761905521.952
date_time_end,2025-10-31_14-20-17.243000_+03
length_difference_noticed,no

time,acc_x,acc_y,acc_z
4.807,-0.146,-0.955,-0.270
4.817,-0.148,-0.947,-0.270
4.826,-0.148,-0.949,-0.270
4.836,-0.146,-0.947,-0.271
4.846,-0.139,-0.945,-0.271
4.856,-0.139,-0.945,-0.273
4.866,-0.139,-0.941,-0.275
4.876,-0.137,-0.941,-0.266
4.886,-0.145,-0.941,-0.258
4.896,-0.148,-0.947,-0.260
4.906,-0.148,-0.959,-0.277
4.916,-0.145,-0.965,-0.279
4.926,-0.145,-0.967,-0.279
4.936,-0.145,-0.963,-0.275
4.946,-0.141,-0.955,-0.271
4.956,-0.143,-0.949,-0.270
4.965,-0.143,-0.947,-0.268
4.975,-0.143,-0.941,-0.264
4.985,-0.141,-0.943,-0.268
4.995,-0.143,-0.949,-0.270
5.005,-0.146,-0.953,-0.271
5.015,-0.145,-0.953,-0.271
5.025,-0.145,-0.953,-0.273
5.035,-0.143,-0.949,-0.266
5.045,-0.143,-0.949,-0.268
5.055,-0.141,-0.949,-0.266
5.065,-0.145,-0.945,-0.268
5.075,-0.141,-0.955,-0.270
5.085,-0.146,-0.955,-0.268
5.095,-0.146,-0.955,-0.268
5.104,-0.145,-0.953,-0.273
5.114,-0.139,-0.955,-0.273
5.124,-0.139,-0.951,-0.271
5.134,-0.143,-0.945,-0.264
5.144,-0.141,-0.943,-0.260
5.154,-0.139,-0.951,-0.268
5.164,-0.143,-0.953,-0.268
5.174,-0.143,-0.959,-0.268
5.184,-0.146,-0.955,-0.266
5.194,-0.141,-0.957,-0.270
5.204,-0.141,-0.955,-0.271
5.214,-0.139,-0.949,-0.268
5.224,-0.139,-0.949,-0.264
5.234,-0.139,-0.949,-0.266
5.243,-0.139,-0.953,-0.262
5.253,-0.137,-0.951,-0.268
5.263,-0.137,-0.955,-0.271
5.273,-0.139,-0.955,-0.268
5.283,-0.139,-0.953,-0.270
5.293,-0.137,-0.951,-0.271
5.303,-0.141,-0.949,-0.264
5.313,-0.137,-0.947,-0.266
5.323,-0.135,-0.949,-0.270
5.333,-0.137,-0.949,-0.268
5.343,-0.137,-0.951,-0.268
5.353,-0.141,-0.949,-0.271
5.363,-0.139,-0.949,-0.266
5.373,-0.139,-0.947,-0.264
5.383,-0.143,-0.945,-0.264
5.392,-0.139,-0.945,-0.266
5.402,-0.141,-0.951,-0.268
5.412,-0.143,-0.951,-0.264
5.422,-0.143,-0.955,-0.264
5.432,-0.143,-0.957,-0.266
5.442,-0.141,-0.957,-0.266
5.452,-0.139,-0.957,-0.266
5.462,-0.139,-0.951,-0.270
5.472,-0.137,-0.953,-0.268
5.482,-0.143,-0.951,-0.260
5.492,-0.143,-0.947,-0.264
5.502,-0.139,-0.947,-0.264
5.512,-0.135,-0.953,-0.273
5.522,-0.133,-0.951,-0.270
5.531,-0.135,-0.947,-0.270
5.541,-0.133,-0.953,-0.270
5.551,-0.133,-0.949,-0.266
5.561,-0.139,-0.953,-0.266
5.571,-0.143,-0.953,-0.266
5.581,-0.143,-0.955,-0.271
5.591,-0.146,-0.961,-0.273
5.601,-0.143,-0.959,-0.271
5.611,-0.141,-0.955,-0.270
5.621,-0.139,-0.949,-0.268
5.631,-0.139,-0.947,-0.270
5.641,-0.139,-0.949,-0.270
5.651,-0.137,-0.947,-0.271
5.661,-0.137,-0.947,-0.273
5.670,-0.141,-0.947,-0.268
5.680,-0.141,-0.949,-0.268
5.690,-0.139,-0.945,-0.270
5.700,-0.137,-0.945,-0.271
5.710,-0.135,-0.953,-0.271
5.720,-0.133,-0.951,-0.271
5.730,-0.135,-0.947,-0.268
5.740,-0.137,-0.955,-0.266
5.750,-0.135,-0.951,-0.268
5.760,-0.133,-0.951,-0.271
5.770,-0.129,-0.953,-0.270
5.780,-0.131,-0.951,-0.270
5.790,-0.129,-0.951,-0.268
5.800,-0.135,-0.949,-0.264
5.809,-0.131,-0.953,-0.270
5.819,-0.135,-0.957,-0.271
5.829,-0.137,-0.955,-0.271
5.839,-0.135,-0.961,-0.275
5.849,-0.137,-0.959,-0.273
5.859,-0.133,-0.957,-0.271
5.869,-0.133,-0.955,-0.271
5.879,-0.133,-0.951,-0.271
5.889,-0.135,-0.947,-0.268
5.899,-0.135,-0.949,-0.270
5.909,-0.131,-0.949,-0.271
5.919,-0.135,-0.947,-0.273
5.929,-0.133,-0.949,-0.275
5.939,-0.135,-0.947,-0.275
5.948,-0.135,-0.949,-0.271
5.958,-0.135,-0.945,-0.273
5.968,-0.133,-0.947,-0.271
5.978,-0.135,-0.953,-0.273
5.988,-0.135,-0.953,-0.268
5.998,-0.135,-0.953,-0.271
6.008,-0.135,-0.951,-0.270
6.018,-0.133,-0.947,-0.270
6.028,-0.131,-0.947,-0.268
6.038,-0.133,-0.945,-0.264
6.048,-0.133,-0.951,-0.268
6.058,-0.129,-0.955,-0.268
6.068,-0.133,-0.959,-0.270
6.078,-0.133,-0.959,-0.270
6.088,-0.135,-0.961,-0.270
6.097,-0.133,-0.955,-0.268
6.107,-0.135,-0.953,-0.271
6.117,-0.131,-0.957,-0.273
6.127,-0.135,-0.957,-0.271
6.137,-0.135,-0.951,-0.270
6.147,-0.139,-0.949,-0.271
6.157,-0.135,-0.953,-0.270
6.167,-0.135,-0.949,-0.275
6.177,-0.135,-0.945,-0.275
6.187,-0.135,-0.945,-0.271
6.197,-0.137,-0.941,-0.266
6.207,-0.141,-0.945,-0.264
6.217,-0.141,-0.951,-0.275
6.227,-0.141,-0.957,-0.281
6.236,-0.145,-0.957,-0.275
6.246,-0.141,-0.957,-0.270
6.256,-0.139,-0.949,-0.271
6.266,-0.137,-0.949,-0.273
6.276,-0.137,-0.947,-0.271
6.286,-0.139,-0.945,-0.268
6.296,-0.139,-0.943,-0.270
6.306,-0.137,-0.947,-0.266
6.316,-0.145,-0.951,-0.266
6.326,-0.143,-0.951,-0.264
6.336,-0.143,-0.953,-0.266
6.346,-0.139,-0.955,-0.268
6.356,-0.137,-0.955,-0.266
6.366,-0.139,-0.953,-0.268
6.375,-0.135,-0.955,-0.273
6.385,-0.133,-0.955,-0.270
6.395,-0.131,-0.955,-0.277
6.405,-0.131,-0.955,-0.275
6.415,-0.129,-0.949,-0.285
6.425,-0.129,-0.953,-0.279
6.435,-0.129,-0.951,-0.281
6.445,-0.125,-0.951,-0.283
6.455,-0.133,-0.947,-0.273
6.465,-0.133,-0.945,-0.271
6.475,-0.139,-0.949,-0.277
6.485,-0.141,-0.949,-0.275
6.495,-0.141,-0.951,-0.273
6.505,-0.141,-0.951,-0.275
6.514,-0.145,-0.953,-0.277
6.524,-0.141,-0.951,-0.271
6.534,-0.146,-0.949,-0.273
6.544,-0.143,-0.949,-0.275
6.554,-0.146,-0.949,-0.271
6.564,-0.145,-0.949,-0.273
6.574,-0.143,-0.951,-0.273
6.584,-0.143,-0.949,-0.275
6.594,-0.139,-0.949,-0.275
6.604,-0.141,-0.949,-0.275
6.614,-0.135,-0.947,-0.275
6.624,-0.137,-0.949,-0.277
6.634,-0.137,-0.947,-0.275
6.644,-0.139,-0.949,-0.271
6.653,-0.139,-0.951,-0.273
6.663,-0.139,-0.949,-0.271
6.673,-0.141,-0.953,-0.277
6.683,-0.137,-0.953,-0.275
6.693,-0.139,-0.949,-0.275
6.703,-0.137,-0.949,-0.273
6.713,-0.135,-0.947,-0.270
6.723,-0.135,-0.947,-0.271
6.733,-0.137,-0.949,-0.275
6.743,-0.137,-0.951,-0.275
6.753,-0.139,-0.947,-0.275
6.763,-0.135,-0.949,-0.273
6.773,-0.139,-0.947,-0.273
6.783,-0.137,-0.949,-0.275
6.793,-0.137,-0.957,-0.275
6.802,-0.141,-0.955,-0.275
6.812,-0.143,-0.953,-0.275
6.822,-0.143,-0.953,-0.273
6.832,-0.141,-0.951,-0.277
6.842,-0.143,-0.953,-0.275
6.852,-0.141,-0.945,-0.270
6.862,-0.141,-0.947,-0.279
6.872,-0.139,-0.945,-0.277
6.882,-0.135,-0.947,-0.283
6.892,-0.131,-0.947,-0.281
6.902,-0.129,-0.943,-0.279
6.912,-0.133,-0.939,-0.275
6.922,-0.135,-0.939,-0.271
6.932,-0.141,-0.945,-0.270
6.941,-0.141,-0.953,-0.279
6.951,-0.141,-0.959,-0.281
6.961,-0.141,-0.961,-0.281
6.971,-0.137,-0.953,-0.275
6.981,-0.135,-0.951,-0.271
6.991,-0.137,-0.949,-0.275
7.001,-0.137,-0.951,-0.273
7.011,-0.139,-0.947,-0.271
7.021,-0.141,-0.947,-0.266
7.031,-0.141,-0.947,-0.266
7.041,-0.141,-0.953,-0.270
7.051,-0.141,-0.949,-0.268
7.061,-0.143,-0.949,-0.270
7.071,-0.139,-0.951,-0.270
7.080,-0.141,-0.953,-0.271
7.090,-0.139,-0.955,-0.273
7.100,-0.141,-0.955,-0.277
7.110,-0.135,-0.955,-0.275
7.120,-0.139,-0.951,-0.273
7.130,-0.137,-0.947,-0.271
7.140,-0.137,-0.947,-0.270
7.150,-0.135,-0.947,-0.271
7.160,-0.135,-0.949,-0.273
7.170,-0.137,-0.949,-0.271
7.180,-0.139,-0.949,-0.273
7.190,-0.141,-0.955,-0.273
7.200,-0.143,-0.955,-0.275
7.210,-0.143,-0.955,-0.273
7.219,-0.143,-0.953,-0.273
7.229,-0.143,-0.951,-0.270
7.239,-0.141,-0.949,-0.273
7.249,-0.141,-0.951,-0.275
7.259,-0.139,-0.949,-0.271
7.269,-0.137,-0.945,-0.271
7.279,-0.137,-0.947,-0.273
7.289,-0.139,-0.947,-0.270
7.299,-0.137,-0.945,-0.273
7.309,-0.137,-0.949,-0.273
7.319,-0.137,-0.951,-0.271
7.329,-0.133,-0.951,-0.273
7.339,-0.135,-0.953,-0.273
7.349,-0.135,-0.951,-0.271
7.358,-0.133,-0.951,-0.275
7.368,-0.133,-0.953,-0.273
7.378,-0.137,-0.949,-0.271
7.388,-0.137,-0.949,-0.271
7.398,-0.135,-0.953,-0.273
7.408,-0.133,-0.951,-0.275
7.418,-0.137,-0.947,-0.271
7.428,-0.135,-0.949,-0.270
7.438,-0.135,-0.953,-0.275
7.448,-0.141,-0.947,-0.270
7.458,-0.137,-0.945,-0.271
7.468,-0.137,-0.951,-0.270
7.478,-0.141,-0.949,-0.270
7.488,-0.139,-0.949,-0.270
7.498,-0.143,-0.949,-0.271
7.507,-0.139,-0.951,-0.270
7.517,-0.137,-0.953,-0.277
7.527,-0.141,-0.953,-0.270
7.537,-0.143,-0.953,-0.271
7.547,-0.143,-0.957,-0.268
7.557,-0.141,-0.955,-0.270
7.567,-0.139,-0.957,-0.273
7.577,-0.139,-0.955,-0.277
7.587,-0.141,-0.955,-0.270
7.597,-0.141,-0.949,-0.268
7.607,-0.133,-0.955,-0.279
7.617,-0.133,-0.951,-0.273
7.627,-0.135,-0.951,-0.277
7.637,-0.129,-0.947,-0.277
7.646,-0.133,-0.945,-0.275
7.656,-0.137,-0.943,-0.279
7.666,-0.141,-0.939,-0.271
7.676,-0.141,-0.939,-0.275
7.686,-0.145,-0.947,-0.281
7.696,-0.146,-0.953,-0.281
7.706,-0.148,-0.953,-0.283
7.716,-0.150,-0.945,-0.273
7.726,-0.146,-0.943,-0.275
7.736,-0.146,-0.947,-0.273
7.746,-0.145,-0.947,-0.277
7.756,-0.143,-0.949,-0.275
7.766,-0.145,-0.945,-0.275
7.776,-0.146,-0.947,-0.275
7.785,-0.146,-0.947,-0.275
7.795,-0.141,-0.947,-0.281
7.805,-0.139,-0.945,-0.277
7.815,-0.139,-0.949,-0.277
7.825,-0.139,-0.945,-0.277
7.835,-0.137,-0.949,-0.277
7.845,-0.133,-0.951,-0.275
7.855,-0.137,-0.949,-0.275
7.865,-0.137,-0.949,-0.273
7.875,-0.135,-0.951,-0.279
7.885,-0.135,-0.951,-0.281
7.895,-0.133,-0.951,-0.281
7.905,-0.135,-0.949,-0.285
7.915,-0.137,-0.947,-0.281
7.924,-0.135,-0.943,-0.273
7.934,-0.141,-0.941,-0.275
7.944,-0.141,-0.945,-0.277
7.954,-0.148,-0.951,-0.273
7.964,-0.145,-0.951,-0.277
7.974,-0.145,-0.955,-0.277
7.984,-0.145,-0.953,-0.281
7.994,-0.145,-0.951,-0.279
8.004,-0.141,-0.949,-0.279
8.014,-0.137,-0.945,-0.279
8.024,-0.135,-0.941,-0.275
8.034,-0.137,-0.938,-0.273
8.044,-0.135,-0.943,-0.273
8.054,-0.131,-0.945,-0.271
8.063,-0.133,-0.949,-0.277
8.073,-0.131,-0.951,-0.279
8.083,-0.133,-0.953,-0.279
8.093,-0.131,-0.951,-0.279
8.103,-0.133,-0.949,-0.275
8.113,-0.133,-0.949,-0.271
8.123,-0.135,-0.947,-0.273
8.133,-0.135,-0.951,-0.273
8.143,-0.135,-0.955,-0.273
8.153,-0.137,-0.953,-0.271
8.163,-0.139,-0.955,-0.273
8.173,-0.137,-0.953,-0.273
8.183,-0.135,-0.949,-0.273
8.193,-0.135,-0.949,-0.275
8.203,-0.131,-0.945,-0.273
8.212,-0.137,-0.945,-0.277
8.222,-0.139,-0.949,-0.275
8.232,-0.137,-0.947,-0.275
8.242,-0.139,-0.947,-0.273
8.252,-0.139,-0.945,-0.271
8.262,-0.141,-0.947,-0.273
8.272,-0.141,-0.953,-0.275
8.282,-0.143,-0.953,-0.275
8.292,-0.143,-0.955,-0.273
8.302,-0.141,-0.953,-0.270
8.312,-0.139,-0.951,-0.273
8.322,-0.143,-0.951,-0.273
8.332,-0.135,-0.949,-0.268
8.342,-0.137,-0.947,-0.270
8.351,-0.137,-0.947,-0.266
8.361,-0.139,-0.955,-0.273
8.371,-0.137,-0.953,-0.273
8.381,-0.129,-0.949,-0.277
8.391,-0.129,-0.949,-0.275
8.401,-0.127,-0.943,-0.271
8.411,-0.127,-0.945,-0.270
8.421,-0.129,-0.943,-0.264
8.431,-0.135,-0.949,-0.271
8.441,-0.137,-0.959,-0.273
8.451,-0.135,-0.963,-0.277
8.461,-0.137,-0.965,-0.277
8.471,-0.135,-0.959,-0.277
8.481,-0.133,-0.953,-0.273
8.490,-0.135,-0.949,-0.271
8.500,-0.133,-0.947,-0.273
8.510,-0.135,-0.947,-0.271
8.520,-0.139,-0.947,-0.268
8.530,-0.137,-0.949,-0.270
8.540,-0.139,-0.949,-0.270
8.550,-0.139,-0.949,-0.268
8.560,-0.141,-0.949,-0.270
8.570,-0.139,-0.951,-0.275
8.580,-0.137,-0.949,-0.270
8.590,-0.135,-0.951,-0.273
8.600,-0.133,-0.951,-0.273
8.610,-0.131,-0.951,-0.275
8.620,-0.135,-0.951,-0.275
8.629,-0.137,-0.953,-0.277
8.639,-0.133,-0.945,-0.279
8.649,-0.133,-0.947,-0.277
8.659,-0.133,-0.947,-0.277
8.669,-0.137,-0.943,-0.268
8.679,-0.137,-0.943,-0.268
8.689,-0.141,-0.951,-0.271
8.699,-0.145,-0.951,-0.277
8.709,-0.141,-0.953,-0.277
8.719,-0.139,-0.955,-0.277
8.729,-0.137,-0.955,-0.279
8.739,-0.139,-0.951,-0.277
8.749,-0.137,-0.947,-0.273
8.759,-0.137,-0.947,-0.275
8.768,-0.141,-0.941,-0.271
8.778,-0.141,-0.945,-0.271
8.788,-0.139,-0.945,-0.271
8.798,-0.139,-0.947,-0.273
8.808,-0.137,-0.949,-0.275
8.818,-0.137,-0.953,-0.277
8.828,-0.137,-0.955,-0.275
8.838,-0.133,-0.955,-0.281
8.848,-0.131,-0.955,-0.281
8.858,-0.131,-0.951,-0.277
8.868,-0.129,-0.949,-0.273
8.878,-0.131,-0.949,-0.279
8.888,-0.137,-0.945,-0.273
8.898,-0.133,-0.947,-0.271
8.908,-0.137,-0.947,-0.271
8.917,-0.135,-0.947,-0.271
8.927,-0.137,-0.947,-0.271
8.937,-0.137,-0.949,-0.273
8.947,-0.133,-0.949,-0.275
8.957,-0.131,-0.949,-0.277
8.967,-0.131,-0.953,-0.275
8.977,-0.135,-0.951,-0.279
8.987,-0.137,-0.947,-0.275
8.997,-0.135,-0.945,-0.277
9.007,-0.137,-0.945,-0.271
9.017,-0.139,-0.947,-0.271
9.027,-0.139,-0.947,-0.270
9.037,-0.145,-0.951,-0.270
9.047,-0.143,-0.957,-0.273
9.056,-0.143,-0.961,-0.275
9.066,-0.139,-0.961,-0.275
9.076,-0.135,-0.959,-0.281
9.086,-0.135,-0.957,-0.283
9.096,-0.135,-0.947,-0.273
9.106,-0.135,-0.943,-0.277
9.116,-0.133,-0.941,-0.281
9.126,-0.135,-0.941,-0.281
9.136,-0.133,-0.938,-0.283
9.146,-0.131,-0.938,-0.281
9.156,-0.129,-0.938,-0.281
9.166,-0.135,-0.939,-0.277
9.176,-0.141,-0.943,-0.273
9.186,-0.141,-0.943,-0.275
9.195,-0.141,-0.951,-0.277
9.205,-0.143,-0.959,-0.281
9.215,-0.141,-0.957,-0.279
9.225,-0.143,-0.953,-0.277
9.235,-0.141,-0.955,-0.277
9.245,-0.143,-0.951,-0.279
9.255,-0.143,-0.949,-0.273
9.265,-0.143,-0.949,-0.273
9.275,-0.139,-0.951,-0.275
9.285,-0.139,-0.947,-0.277
9.295,-0.141,-0.945,-0.273
9.305,-0.143,-0.943,-0.271
9.315,-0.141,-0.943,-0.273
9.325,-0.139,-0.947,-0.270
9.334,-0.141,-0.947,-0.277
9.344,-0.141,-0.951,-0.271
9.354,-0.139,-0.949,-0.275
9.364,-0.141,-0.953,-0.273
9.374,-0.143,-0.951,-0.273
9.384,-0.141,-0.951,-0.279
9.394,-0.141,-0.947,-0.279
9.404,-0.135,-0.949,-0.281
9.414,-0.133,-0.949,-0.277
9.424,-0.137,-0.941,-0.277
9.434,-0.137,-0.939,-0.271
9.444,-0.139,-0.943,-0.273
9.454,-0.141,-0.949,-0.273
9.464,-0.145,-0.955,-0.275
9.473,-0.139,-0.957,-0.277
9.483,-0.141,-0.955,-0.275
9.493,-0.141,-0.953,-0.270
9.503,-0.139,-0.951,-0.273
9.513,-0.135,-0.951,-0.277
9.523,-0.135,-0.949,-0.277
9.533,-0.135,-0.945,-0.275
9.543,-0.129,-0.943,-0.277
9.553,-0.129,-0.949,-0.275
9.563,-0.127,-0.947,-0.281
9.573,-0.131,-0.951,-0.277
9.583,-0.131,-0.949,-0.281
9.593,-0.135,-0.951,-0.281
9.603,-0.135,-0.949,-0.279
9.613,-0.137,-0.949,-0.277
9.622,-0.139,-0.949,-0.279
9.632,-0.139,-0.947,-0.273
9.642,-0.137,-0.945,-0.271
9.652,-0.139,-0.947,-0.268
9.662,-0.146,-0.943,-0.270
9.672,-0.139,-0.947,-0.271
9.682,-0.141,-0.949,-0.277
9.692,-0.139,-0.953,-0.273
9.702,-0.137,-0.953,-0.279
9.712,-0.131,-0.949,-0.277
9.722,-0.131,-0.949,-0.279
9.732,-0.129,-0.947,-0.279
9.742,-0.135,-0.947,-0.277
9.752,-0.129,-0.945,-0.279
9.761,-0.137,-0.951,-0.277
9.771,-0.139,-0.953,-0.279
9.781,-0.141,-0.953,-0.277
9.791,-0.143,-0.955,-0.275
9.801,-0.143,-0.949,-0.277
9.811,-0.141,-0.951,-0.275
9.821,-0.143,-0.951,-0.277
9.831,-0.146,-0.947,-0.270
9.841,-0.145,-0.947,-0.279
9.851,-0.143,-0.947,-0.273
9.861,-0.143,-0.943,-0.277
9.871,-0.139,-0.941,-0.281
9.881,-0.135,-0.938,-0.281
9.891,-0.133,-0.939,-0.279
9.900,-0.133,-0.941,-0.277
9.910,-0.139,-0.941,-0.279
9.920,-0.139,-0.947,-0.287
9.930,-0.139,-0.959,-0.289
9.940,-0.143,-0.959,-0.283
9.950,-0.143,-0.955,-0.283
9.960,-0.141,-0.951,-0.275
9.970,-0.145,-0.947,-0.281
9.980,-0.145,-0.945,-0.271
9.990,-0.143,-0.941,-0.273
10.000,-0.148,-0.945,-0.271
10.010,-0.146,-0.945,-0.271
10.020,-0.145,-0.945,-0.275
10.030,-0.145,-0.947,-0.273
10.039,-0.139,-0.945,-0.277
10.049,-0.137,-0.949,-0.281
10.059,-0.131,-0.951,-0.279
10.069,-0.133,-0.951,-0.281
10.079,-0.133,-0.947,-0.277
10.089,-0.133,-0.947,-0.277
10.099,-0.133,-0.947,-0.270
10.109,-0.137,-0.945,-0.270
10.119,-0.135,-0.945,-0.273
10.129,-0.133,-0.949,-0.270
10.139,-0.131,-0.953,-0.275
10.149,-0.135,-0.953,-0.273
10.159,-0.133,-0.957,-0.271
10.169,-0.135,-0.959,-0.275
10.179,-0.135,-0.961,-0.275
10.188,-0.133,-0.959,-0.279
10.198,-0.133,-0.957,-0.273
10.208,-0.135,-0.951,-0.273
10.218,-0.137,-0.951,-0.273
10.228,-0.139,-0.943,-0.270
10.238,-0.139,-0.943,-0.270
10.248,-0.139,-0.945,-0.268
10.258,-0.139,-0.945,-0.271
10.268,-0.141,-0.953,-0.271
10.278,-0.139,-0.953,-0.275
10.288,-0.141,-0.955,-0.275
10.298,-0.139,-0.953,-0.273
10.308,-0.141,-0.949,-0.273
10.318,-0.141,-0.949,-0.271
10.327,-0.141,-0.949,-0.273
10.337,-0.143,-0.949,-0.275
10.347,-0.139,-0.953,-0.275
10.357,-0.139,-0.953,-0.275
10.367,-0.139,-0.951,-0.270
10.377,-0.137,-0.947,-0.273
10.387,-0.139,-0.947,-0.273
10.397,-0.137,-0.945,-0.271
10.407,-0.139,-0.949,-0.271
10.417,-0.139,-0.951,-0.270
10.427,-0.141,-0.955,-0.273
10.437,-0.137,-0.953,-0.273
10.447,-0.139,-0.955,-0.273
10.457,-0.137,-0.953,-0.275
10.466,-0.133,-0.951,-0.273
10.476,-0.133,-0.951,-0.273
10.486,-0.135,-0.949,-0.273
10.496,-0.139,-0.951,-0.275
10.506,-0.141,-0.949,-0.273
10.516,-0.145,-0.949,-0.273
10.526,-0.141,-0.953,-0.273
10.536,-0.139,-0.955,-0.277
10.546,-0.141,-0.951,-0.271
10.556,-0.143,-0.951,-0.277
10.566,-0.141,-0.949,-0.273
10.576,-0.137,-0.943,-0.277
10.586,-0.133,-0.947,-0.281
10.596,-0.133,-0.941,-0.281
10.605,-0.133,-0.939,-0.277
10.615,-0.137,-0.939,-0.273
10.625,-0.141,-0.943,-0.270
10.635,-0.141,-0.953,-0.277
10.645,-0.139,-0.961,-0.283
10.655,-0.145,-0.961,-0.279
10.665,-0.143,-0.961,-0.283
10.675,-0.141,-0.955,-0.277
10.685,-0.141,-0.949,-0.275
10.695,-0.139,-0.943,-0.275
10.705,-0.135,-0.941,-0.275
10.715,-0.141,-0.943,-0.273
10.725,-0.145,-0.943,-0.271
10.735,-0.146,-0.941,-0.268
10.744,-0.150,-0.947,-0.273
10.754,-0.145,-0.949,-0.275
10.764,-0.148,-0.951,-0.275
10.774,-0.145,-0.951,-0.273
10.784,-0.145,-0.951,-0.279
10.794,-0.145,-0.947,-0.279
10.804,-0.145,-0.947,-0.273
10.814,-0.143,-0.945,-0.273
10.824,-0.143,-0.943,-0.273
10.834,-0.143,-0.939,-0.271
10.844,-0.143,-0.941,-0.270
10.854,-0.143,-0.949,-0.275
10.864,-0.145,-0.949,-0.273
10.874,-0.148,-0.949,-0.270
10.884,-0.143,-0.951,-0.277
10.893,-0.146,-0.953,-0.279
10.903,-0.143,-0.953,-0.281
10.913,-0.141,-0.953,-0.277
10.923,-0.145,-0.947,-0.273
10.933,-0.145,-0.947,-0.270
10.943,-0.143,-0.945,-0.270
10.953,-0.141,-0.945,-0.270
10.963,-0.145,-0.945,-0.264
10.973,-0.141,-0.951,-0.271
10.983,-0.141,-0.951,-0.273
10.993,-0.143,-0.951,-0.271
11.003,-0.141,-0.949,-0.273
11.013,-0.139,-0.949,-0.273
11.023,-0.137,-0.945,-0.270
11.032,-0.139,-0.949,-0.270
11.042,-0.143,-0.947,-0.270
11.052,-0.141,-0.951,-0.273
11.062,-0.143,-0.951,-0.277
11.072,-0.145,-0.953,-0.273
11.082,-0.148,-0.949,-0.277
11.092,-0.148,-0.945,-0.270
11.102,-0.150,-0.943,-0.270
11.112,-0.150,-0.947,-0.271
11.122,-0.150,-0.951,-0.270
11.132,-0.154,-0.951,-0.275
11.142,-0.154,-0.953,-0.271
11.152,-0.160,-0.953,-0.270
11.162,-0.154,-0.953,-0.273
11.171,-0.154,-0.955,-0.271
11.181,-0.156,-0.957,-0.271
11.191,-0.152,-0.953,-0.271
11.201,-0.152,-0.951,-0.271
11.211,-0.146,-0.951,-0.273
11.221,-0.148,-0.951,-0.277
11.231,-0.145,-0.951,-0.277
11.241,-0.143,-0.943,-0.275
11.251,-0.143,-0.941,-0.273
11.261,-0.146,-0.939,-0.268
11.271,-0.146,-0.943,-0.268
11.281,-0.145,-0.949,-0.268
11.291,-0.146,-0.957,-0.277
11.301,-0.150,-0.959,-0.281
11.310,-0.152,-0.959,-0.279
11.320,-0.150,-0.953,-0.279
11.330,-0.150,-0.951,-0.275
11.340,-0.152,-0.949,-0.275
11.350,-0.152,-0.943,-0.271
11.360,-0.158,-0.943,-0.271
11.370,-0.156,-0.943,-0.277
11.380,-0.158,-0.943,-0.273
11.390,-0.160,-0.949,-0.275
11.400,-0.162,-0.947,-0.273
11.410,-0.158,-0.947,-0.279
11.420,-0.156,-0.947,-0.273
11.430,-0.156,-0.945,-0.275
11.440,-0.160,-0.947,-0.277
11.449,-0.156,-0.947,-0.271
11.459,-0.152,-0.945,-0.273
11.469,-0.156,-0.947,-0.277
11.479,-0.150,-0.943,-0.275
11.489,-0.154,-0.943,-0.277
11.499,-0.150,-0.945,-0.277
11.509,-0.148,-0.947,-0.279
11.519,-0.150,-0.947,-0.271
11.529,-0.146,-0.943,-0.275
11.539,-0.146,-0.949,-0.279
11.549,-0.148,-0.953,-0.277
11.559,-0.148,-0.949,-0.279
11.569,-0.145,-0.953,-0.281
11.579,-0.146,-0.949,-0.279
11.589,-0.143,-0.949,-0.279
11.598,-0.145,-0.945,-0.277
11.608,-0.146,-0.943,-0.275
11.618,-0.143,-0.943,-0.273
11.628,-0.143,-0.947,-0.277
11.638,-0.146,-0.945,-0.273
11.648,-0.146,-0.945,-0.275
11.658,-0.148,-0.949,-0.277
11.668,-0.146,-0.951,-0.279
11.678,-0.148,-0.951,-0.277
11.688,-0.146,-0.949,-0.279
11.698,-0.145,-0.949,-0.277
11.708,-0.145,-0.945,-0.279
11.718,-0.141,-0.949,-0.277
11.728,-0.148,-0.947,-0.275
11.737,-0.150,-0.943,-0.271
11.747,-0.146,-0.947,-0.275
11.757,-0.148,-0.947,-0.273
11.767,-0.150,-0.947,-0.270
11.777,-0.154,-0.949,-0.275
11.787,-0.156,-0.949,-0.273
11.797,-0.154,-0.951,-0.273
11.807,-0.156,-0.949,-0.277
11.817,-0.152,-0.953,-0.277
11.827,-0.152,-0.953,-0.273
11.837,-0.156,-0.947,-0.268
11.847,-0.156,-0.949,-0.273
11.857,-0.152,-0.953,-0.277
11.867,-0.156,-0.951,-0.279
11.876,-0.150,-0.945,-0.281
11.886,-0.146,-0.943,-0.273
11.896,-0.152,-0.941,-0.273
11.906,-0.150,-0.938,-0.271
11.916,-0.154,-0.939,-0.270
11.926,-0.156,-0.951,-0.271
11.936,-0.162,-0.953,-0.281
11.946,-0.160,-0.957,-0.279
11.956,-0.158,-0.955,-0.281
11.966,-0.156,-0.955,-0.273
11.976,-0.156,-0.953,-0.273
11.986,-0.152,-0.949,-0.271
11.996,-0.156,-0.949,-0.271
12.006,-0.156,-0.947,-0.273
12.015,-0.158,-0.945,-0.273
12.025,-0.156,-0.943,-0.273
12.035,-0.156,-0.949,-0.270
12.045,-0.154,-0.947,-0.271
12.055,-0.154,-0.947,-0.273
12.065,-0.148,-0.945,-0.275
12.075,-0.152,-0.945,-0.271
12.085,-0.150,-0.949,-0.275
12.095,-0.150,-0.949,-0.273
12.105,-0.154,-0.951,-0.270
12.115,-0.154,-0.949,-0.271
12.125,-0.150,-0.951,-0.277
12.135,-0.148,-0.949,-0.277
12.145,-0.152,-0.947,-0.273
12.154,-0.150,-0.947,-0.277
12.164,-0.150,-0.949,-0.273
12.174,-0.148,-0.951,-0.275
12.184,-0.152,-0.945,-0.277
12.194,-0.152,-0.953,-0.273
12.204,-0.148,-0.955,-0.277
12.214,-0.154,-0.949,-0.277
12.224,-0.150,-0.949,-0.277
12.234,-0.152,-0.945,-0.273
12.244,-0.152,-0.947,-0.275
12.254,-0.152,-0.945,-0.275
12.264,-0.148,-0.943,-0.271
12.274,-0.152,-0.947,-0.275
12.284,-0.152,-0.947,-0.277
12.294,-0.146,-0.945,-0.275
12.303,-0.148,-0.949,-0.277
12.313,-0.148,-0.943,-0.273
12.323,-0.146,-0.945,-0.275
12.333,-0.145,-0.945,-0.275
12.343,-0.146,-0.947,-0.275
12.353,-0.145,-0.951,-0.271
12.363,-0.146,-0.947,-0.275
12.373,-0.146,-0.949,-0.273
12.383,-0.143,-0.945,-0.270
12.393,-0.146,-0.947,-0.271
12.403,-0.146,-0.949,-0.271
12.413,-0.150,-0.947,-0.271
12.423,-0.146,-0.953,-0.271
12.433,-0.150,-0.951,-0.271
12.442,-0.152,-0.953,-0.271
12.452,-0.148,-0.951,-0.275
12.462,-0.146,-0.951,-0.273
12.472,-0.152,-0.949,-0.271
12.482,-0.152,-0.955,-0.275
12.492,-0.154,-0.953,-0.277
12.502,-0.148,-0.945,-0.277
12.512,-0.145,-0.941,-0.275
12.522,-0.150,-0.939,-0.271
12.532,-0.152,-0.943,-0.270
12.542,-0.160,-0.945,-0.268
12.552,-0.156,-0.947,-0.273
12.562,-0.158,-0.955,-0.277
12.572,-0.156,-0.957,-0.279
12.581,-0.156,-0.961,-0.281
12.591,-0.154,-0.955,-0.275
12.601,-0.154,-0.949,-0.271
12.611,-0.152,-0.945,-0.268
12.621,-0.152,-0.945,-0.271
12.631,-0.154,-0.943,-0.271
12.641,-0.156,-0.945,-0.275
12.651,-0.158,-0.945,-0.271
12.661,-0.154,-0.949,-0.271
12.671,-0.154,-0.949,-0.273
12.681,-0.150,-0.947,-0.275
12.691,-0.148,-0.951,-0.275
12.701,-0.150,-0.949,-0.275
12.711,-0.150,-0.949,-0.270
12.720,-0.150,-0.951,-0.271
12.730,-0.152,-0.947,-0.268
12.740,-0.154,-0.949,-0.271
12.750,-0.152,-0.947,-0.271
12.760,-0.150,-0.949,-0.273
12.770,-0.148,-0.951,-0.277
12.780,-0.148,-0.947,-0.277
12.790,-0.148,-0.947,-0.273
12.800,-0.148,-0.947,-0.271
12.810,-0.150,-0.947,-0.275
12.820,-0.150,-0.949,-0.273
12.830,-0.152,-0.951,-0.277
12.840,-0.152,-0.951,-0.275
12.850,-0.156,-0.951,-0.273
12.859,-0.152,-0.949,-0.277
12.869,-0.154,-0.951,-0.275
12.879,-0.152,-0.947,-0.275
12.889,-0.150,-0.947,-0.271
12.899,-0.150,-0.947,-0.273
12.909,-0.152,-0.945,-0.270
12.919,-0.154,-0.943,-0.271
12.929,-0.152,-0.947,-0.273
12.939,-0.150,-0.951,-0.271
12.949,-0.150,-0.951,-0.273
12.959,-0.150,-0.951,-0.279
12.969,-0.146,-0.949,-0.277
12.979,-0.148,-0.949,-0.277
12.989,-0.146,-0.945,-0.271
12.999,-0.145,-0.947,-0.275
13.008,-0.146,-0.947,-0.275
13.018,-0.150,-0.945,-0.271
13.028,-0.148,-0.943,-0.270
13.038,-0.148,-0.947,-0.273
13.048,-0.148,-0.949,-0.275
13.058,-0.156,-0.951,-0.271
13.068,-0.154,-0.953,-0.273
13.078,-0.152,-0.951,-0.273
13.088,-0.154,-0.951,-0.271
13.098,-0.154,-0.949,-0.273
13.108,-0.156,-0.945,-0.271
13.118,-0.156,-0.945,-0.273
13.128,-0.154,-0.947,-0.270
13.138,-0.158,-0.951,-0.271
13.147,-0.158,-0.951,-0.275
13.157,-0.154,-0.947,-0.275
13.167,-0.150,-0.947,-0.277
13.177,-0.150,-0.943,-0.275
13.187,-0.152,-0.941,-0.275
13.197,-0.158,-0.941,-0.270
13.207,-0.158,-0.943,-0.271
13.217,-0.158,-0.949,-0.281
13.227,-0.160,-0.955,-0.277
13.237,-0.162,-0.955,-0.275
13.247,-0.160,-0.949,-0.273
13.257,-0.160,-0.947,-0.273
13.267,-0.156,-0.945,-0.273
13.277,-0.156,-0.939,-0.271
13.286,-0.154,-0.938,-0.271
13.296,-0.152,-0.938,-0.275
13.306,-0.148,-0.941,-0.275
13.316,-0.146,-0.941,-0.277
13.326,-0.148,-0.943,-0.279
13.336,-0.150,-0.949,-0.281
13.346,-0.148,-0.953,-0.279
13.356,-0.152,-0.955,-0.277
13.366,-0.150,-0.953,-0.277
13.376,-0.152,-0.953,-0.275
13.386,-0.150,-0.949,-0.271
13.396,-0.154,-0.951,-0.271
13.406,-0.154,-0.953,-0.271
13.416,-0.152,-0.947,-0.270
13.425,-0.154,-0.953,-0.273
13.435,-0.158,-0.953,-0.273
13.445,-0.154,-0.949,-0.275
13.455,-0.156,-0.947,-0.270
13.465,-0.156,-0.947,-0.270
13.475,-0.160,-0.949,-0.273
13.485,-0.158,-0.943,-0.270
13.495,-0.160,-0.951,-0.270
13.505,-0.156,-0.949,-0.271
13.515,-0.160,-0.951,-0.268
13.525,-0.158,-0.953,-0.271
13.535,-0.160,-0.951,-0.270
13.545,-0.158,-0.949,-0.270
13.555,-0.156,-0.947,-0.271
13.564,-0.154,-0.947,-0.273
13.574,-0.156,-0.943,-0.270
13.584,-0.158,-0.945,-0.266
13.594,-0.150,-0.947,-0.268
13.604,-0.152,-0.953,-0.270
13.614,-0.154,-0.949,-0.271
13.624,-0.154,-0.951,-0.268
13.634,-0.154,-0.949,-0.270
13.644,-0.152,-0.953,-0.271
13.654,-0.158,-0.949,-0.266
13.664,-0.158,-0.949,-0.268
13.674,-0.156,-0.951,-0.271
13.684,-0.156,-0.951,-0.266
13.694,-0.154,-0.947,-0.268
13.704,-0.156,-0.949,-0.270
13.713,-0.156,-0.949,-0.271
13.723,-0.158,-0.947,-0.268
13.733,-0.158,-0.949,-0.268
13.743,-0.154,-0.947,-0.266
13.753,-0.150,-0.945,-0.268
13.763,-0.154,-0.949,-0.271
13.773,-0.156,-0.955,-0.270
13.783,-0.154,-0.951,-0.270
13.793,-0.156,-0.953,-0.268
13.803,-0.158,-0.949,-0.264
13.813,-0.162,-0.951,-0.266
13.823,-0.158,-0.953,-0.268
13.833,-0.154,-0.953,-0.271
13.843,-0.154,-0.953,-0.270
13.852,-0.152,-0.951,-0.273
13.862,-0.150,-0.951,-0.273
13.872,-0.152,-0.947,-0.271
13.882,-0.145,-0.945,-0.277
13.892,-0.143,-0.943,-0.273
13.902,-0.148,-0.939,-0.271
13.912,-0.148,-0.941,-0.266
13.922,-0.156,-0.939,-0.268
13.932,-0.156,-0.951,-0.275
13.942,-0.158,-0.959,-0.279
13.952,-0.158,-0.961,-0.275
13.962,-0.160,-0.959,-0.275
13.972,-0.154,-0.957,-0.275
13.982,-0.154,-0.949,-0.273
13.991,-0.156,-0.945,-0.271
14.001,-0.154,-0.945,-0.275
14.011,-0.160,-0.938,-0.271
14.021,-0.160,-0.939,-0.268
14.031,-0.158,-0.941,-0.270
14.041,-0.160,-0.947,-0.271
14.051,-0.162,-0.951,-0.270
14.061,-0.158,-0.951,-0.275
14.071,-0.162,-0.947,-0.277
14.081,-0.158,-0.949,-0.275
14.091,-0.154,-0.947,-0.273
14.101,-0.154,-0.945,-0.273
14.111,-0.158,-0.945,-0.271
14.121,-0.160,-0.941,-0.271
14.130,-0.156,-0.943,-0.273
14.140,-0.154,-0.943,-0.271
14.150,-0.156,-0.947,-0.277
14.160,-0.152,-0.949,-0.273
14.170,-0.160,-0.947,-0.273
14.180,-0.158,-0.947,-0.271
14.190,-0.154,-0.949,-0.273
14.200,-0.160,-0.953,-0.275
14.210,-0.158,-0.957,-0.273
14.220,-0.156,-0.951,-0.273
14.230,-0.156,-0.949,-0.273
14.240,-0.158,-0.949,-0.271
14.250,-0.154,-0.949,-0.275
14.260,-0.154,-0.947,-0.273
14.269,-0.156,-0.947,-0.271
14.279,-0.152,-0.938,-0.270
14.289,-0.156,-0.943,-0.271
14.299,-0.152,-0.943,-0.271
14.309,-0.156,-0.947,-0.273
14.319,-0.154,-0.949,-0.275
14.329,-0.156,-0.949,-0.273
14.339,-0.154,-0.947,-0.271
14.349,-0.154,-0.945,-0.271
14.359,-0.154,-0.943,-0.270
14.369,-0.156,-0.945,-0.271
14.379,-0.160,-0.945,-0.270
14.389,-0.158,-0.945,-0.271
14.399,-0.160,-0.953,-0.277
14.409,-0.154,-0.951,-0.273
14.418,-0.160,-0.949,-0.273
14.428,-0.160,-0.949,-0.275
14.438,-0.160,-0.947,-0.273
14.448,-0.158,-0.947,-0.273
14.458,-0.158,-0.953,-0.273
14.468,-0.154,-0.947,-0.275
14.478,-0.158,-0.951,-0.271
14.488,-0.154,-0.949,-0.268
14.498,-0.156,-0.943,-0.264
14.508,-0.154,-0.945,-0.268
14.518,-0.154,-0.951,-0.266
14.528,-0.154,-0.953,-0.266
14.538,-0.152,-0.955,-0.266
14.548,-0.152,-0.957,-0.266
14.557,-0.150,-0.955,-0.262
14.567,-0.146,-0.955,-0.262
14.577,-0.145,-0.957,-0.266
14.587,-0.145,-0.959,-0.270
14.597,-0.145,-0.951,-0.260
14.607,-0.145,-0.945,-0.258
14.617,-0.141,-0.945,-0.260
14.627,-0.135,-0.949,-0.266
14.637,-0.133,-0.949,-0.270
14.647,-0.135,-0.949,-0.262
14.657,-0.135,-0.951,-0.264
14.667,-0.141,-0.949,-0.260
14.677,-0.143,-0.953,-0.264
14.687,-0.145,-0.961,-0.270
14.696,-0.146,-0.967,-0.270
14.706,-0.148,-0.965,-0.268
14.716,-0.146,-0.965,-0.266
14.726,-0.143,-0.961,-0.268
14.736,-0.146,-0.953,-0.264
14.746,-0.143,-0.949,-0.264
14.756,-0.145,-0.949,-0.266
14.766,-0.146,-0.947,-0.264
14.776,-0.148,-0.949,-0.268
14.786,-0.148,-0.947,-0.268
14.796,-0.146,-0.945,-0.268
14.806,-0.148,-0.949,-0.270
14.816,-0.148,-0.947,-0.270
14.826,-0.152,-0.941,-0.264
14.835,-0.150,-0.943,-0.258
14.845,-0.150,-0.945,-0.264
14.855,-0.150,-0.949,-0.264
14.865,-0.152,-0.951,-0.262
14.875,-0.150,-0.953,-0.268
14.885,-0.148,-0.951,-0.266
14.895,-0.145,-0.947,-0.260
14.905,-0.145,-0.951,-0.268
14.915,-0.146,-0.953,-0.266
14.925,-0.143,-0.951,-0.266
14.935,-0.145,-0.957,-0.270
14.945,-0.146,-0.959,-0.271
14.955,-0.148,-0.957,-0.270
14.965,-0.148,-0.957,-0.271
14.974,-0.150,-0.953,-0.268
14.984,-0.152,-0.945,-0.266
14.994,-0.154,-0.947,-0.264
15.004,-0.154,-0.945,-0.264
15.014,-0.156,-0.945,-0.264
15.024,-0.154,-0.945,-0.264
15.034,-0.154,-0.949,-0.266
15.044,-0.154,-0.951,-0.262
15.054,-0.156,-0.957,-0.262
15.064,-0.162,-0.955,-0.262
15.074,-0.156,-0.955,-0.262
15.084,-0.154,-0.957,-0.268
15.094,-0.152,-0.957,-0.266
15.104,-0.148,-0.955,-0.268
15.114,-0.148,-0.953,-0.264
15.123,-0.146,-0.951,-0.262
15.133,-0.145,-0.953,-0.268
15.143,-0.141,-0.945,-0.264
15.153,-0.145,-0.949,-0.266
15.163,-0.141,-0.949,-0.266
15.173,-0.141,-0.949,-0.268
15.183,-0.143,-0.949,-0.262
15.193,-0.143,-0.945,-0.264
15.203,-0.145,-0.947,-0.264
15.213,-0.143,-0.951,-0.266
15.223,-0.143,-0.955,-0.270
15.233,-0.141,-0.957,-0.270
15.243,-0.141,-0.951,-0.266
15.253,-0.143,-0.953,-0.266
15.262,-0.143,-0.949,-0.264
15.272,-0.145,-0.951,-0.266
15.282,-0.139,-0.953,-0.264
15.292,-0.141,-0.947,-0.262
15.302,-0.143,-0.947,-0.266
15.312,-0.139,-0.947,-0.264
15.322,-0.141,-0.951,-0.266
15.332,-0.137,-0.951,-0.270
15.342,-0.135,-0.947,-0.266
15.352,-0.135,-0.949,-0.266
15.362,-0.139,-0.949,-0.266
15.372,-0.141,-0.949,-0.264
15.382,-0.143,-0.953,-0.266
15.392,-0.146,-0.957,-0.271
15.401,-0.145,-0.963,-0.271
15.411,-0.150,-0.957,-0.270
15.421,-0.146,-0.955,-0.268
15.431,-0.145,-0.949,-0.264
15.441,-0.148,-0.949,-0.264
15.451,-0.146,-0.949,-0.262
15.461,-0.146,-0.949,-0.260
15.471,-0.150,-0.951,-0.264
15.481,-0.148,-0.947,-0.262
15.491,-0.150,-0.949,-0.260
15.501,-0.146,-0.951,-0.262
15.511,-0.146,-0.955,-0.262
15.521,-0.143,-0.955,-0.268
15.531,-0.143,-0.955,-0.268
15.540,-0.143,-0.957,-0.268
15.550,-0.143,-0.957,-0.264
15.560,-0.145,-0.955,-0.262
15.570,-0.143,-0.951,-0.268
15.580,-0.145,-0.949,-0.264
15.590,-0.145,-0.951,-0.262
15.600,-0.145,-0.953,-0.266
15.610,-0.146,-0.953,-0.262
15.620,-0.148,-0.955,-0.264
15.630,-0.148,-0.955,-0.268
15.640,-0.146,-0.961,-0.271
15.650,-0.146,-0.953,-0.270
15.660,-0.150,-0.955,-0.268
15.670,-0.148,-0.953,-0.268
15.680,-0.148,-0.949,-0.268
15.689,-0.148,-0.949,-0.270
15.699,-0.148,-0.945,-0.266
15.709,-0.150,-0.945,-0.264
15.719,-0.152,-0.945,-0.266
15.729,-0.150,-0.949,-0.270
15.739,-0.148,-0.949,-0.270
15.749,-0.148,-0.947,-0.268
15.759,-0.150,-0.949,-0.271
15.769,-0.146,-0.947,-0.270
15.779,-0.146,-0.951,-0.270
15.789,-0.146,-0.947,-0.270
15.799,-0.146,-0.951,-0.271
15.809,-0.148,-0.949,-0.268
15.819,-0.145,-0.949,-0.268
15.828,-0.145,-0.951,-0.271
15.838,-0.141,-0.951,-0.270
15.848,-0.141,-0.949,-0.268
15.858,-0.141,-0.947,-0.268
15.868,-0.143,-0.949,-0.264
15.878,-0.143,-0.949,-0.264
15.888,-0.145,-0.949,-0.268
15.898,-0.148,-0.955,-0.268
15.908,-0.148,-0.955,-0.270
15.918,-0.152,-0.959,-0.268
15.928,-0.150,-0.959,-0.270
15.938,-0.150,-0.959,-0.271
15.948,-0.150,-0.959,-0.273
15.958,-0.150,-0.955,-0.268
15.967,-0.150,-0.951,-0.270
15.977,-0.150,-0.949,-0.268
15.987,-0.146,-0.951,-0.271
15.997,-0.143,-0.947,-0.275
16.007,-0.145,-0.945,-0.273
16.017,-0.141,-0.943,-0.271
16.027,-0.146,-0.941,-0.270
16.037,-0.152,-0.941,-0.264
16.047,-0.156,-0.949,-0.270
16.057,-0.156,-0.951,-0.275
16.067,-0.158,-0.953,-0.273
16.077,-0.158,-0.957,-0.275
16.087,-0.158,-0.951,-0.273
16.097,-0.154,-0.951,-0.270
16.106,-0.160,-0.947,-0.268
16.116,-0.156,-0.945,-0.268
16.126,-0.162,-0.951,-0.268
16.136,-0.160,-0.947,-0.266
16.146,-0.164,-0.945,-0.266
16.156,-0.160,-0.949,-0.266
16.166,-0.160,-0.951,-0.270
16.176,-0.158,-0.949,-0.266
16.186,-0.154,-0.951,-0.273
16.196,-0.154,-0.949,-0.273
16.206,-0.148,-0.949,-0.271
16.216,-0.148,-0.945,-0.271
16.226,-0.150,-0.945,-0.271
16.236,-0.150,-0.943,-0.266
16.245,-0.150,-0.943,-0.270
16.255,-0.150,-0.947,-0.271
16.265,-0.150,-0.949,-0.268
16.275,-0.148,-0.951,-0.270
16.285,-0.146,-0.955,-0.270
16.295,-0.148,-0.953,-0.271
16.305,-0.146,-0.951,-0.271
16.315,-0.152,-0.951,-0.270
16.325,-0.148,-0.951,-0.271
16.335,-0.148,-0.949,-0.270
16.345,-0.148,-0.949,-0.270
16.355,-0.148,-0.949,-0.270
16.365,-0.150,-0.947,-0.273
16.375,-0.152,-0.947,-0.268
16.385,-0.152,-0.945,-0.268
16.394,-0.154,-0.949,-0.271
16.404,-0.154,-0.951,-0.271
16.414,-0.148,-0.953,-0.271
16.424,-0.152,-0.949,-0.270
16.434,-0.148,-0.951,-0.275
16.444,-0.148,-0.949,-0.273
16.454,-0.146,-0.947,-0.273
16.464,-0.148,-0.947,-0.273
16.474,-0.154,-0.945,-0.268
16.484,-0.152,-0.945,-0.271
16.494,-0.152,-0.947,-0.271
16.504,-0.156,-0.947,-0.268
16.514,-0.152,-0.951,-0.271
16.524,-0.152,-0.953,-0.273
16.533,-0.150,-0.947,-0.273
16.543,-0.148,-0.945,-0.270
16.553,-0.146,-0.945,-0.268
16.563,-0.150,-0.947,-0.273
16.573,-0.150,-0.949,-0.271
16.583,-0.152,-0.953,-0.273
16.593,-0.156,-0.953,-0.270
16.603,-0.160,-0.955,-0.268
16.613,-0.156,-0.951,-0.266
16.623,-0.154,-0.953,-0.273
16.633,-0.154,-0.949,-0.266
16.643,-0.158,-0.947,-0.268
16.653,-0.158,-0.951,-0.273
16.663,-0.158,-0.953,-0.271
16.672,-0.156,-0.951,-0.268
16.682,-0.152,-0.947,-0.273
16.692,-0.150,-0.945,-0.271
16.702,-0.152,-0.943,-0.271
16.712,-0.156,-0.941,-0.266
16.722,-0.158,-0.941,-0.270
16.732,-0.154,-0.949,-0.273
16.742,-0.154,-0.955,-0.279
16.752,-0.160,-0.955,-0.277
16.762,-0.158,-0.951,-0.270
16.772,-0.156,-0.953,-0.270
16.782,-0.158,-0.949,-0.268
16.792,-0.156,-0.947,-0.270
16.802,-0.156,-0.949,-0.271
16.811,-0.154,-0.943,-0.264
16.821,-0.160,-0.947,-0.270
16.831,-0.158,-0.951,-0.270
16.841,-0.156,-0.947,-0.268
16.851,-0.154,-0.949,-0.270
16.861,-0.152,-0.949,-0.273
16.871,-0.156,-0.949,-0.270
16.881,-0.152,-0.945,-0.268
16.891,-0.152,-0.951,-0.270
16.901,-0.150,-0.951,-0.271
16.911,-0.152,-0.951,-0.270
16.921,-0.154,-0.947,-0.268
16.931,-0.154,-0.947,-0.270
16.941,-0.148,-0.947,-0.273
16.950,-0.148,-0.953,-0.275
16.960,-0.148,-0.951,-0.277
16.970,-0.148,-0.947,-0.270
16.980,-0.150,-0.945,-0.270
16.990,-0.150,-0.949,-0.275
17.000,-0.152,-0.951,-0.273
17.010,-0.156,-0.951,-0.273
17.020,-0.160,-0.947,-0.268
17.030,-0.158,-0.951,-0.270
17.040,-0.154,-0.947,-0.271
17.050,-0.156,-0.947,-0.268
17.060,-0.152,-0.951,-0.271
17.070,-0.152,-0.951,-0.275
17.080,-0.150,-0.951,-0.273
17.090,-0.152,-0.949,-0.273
17.099,-0.148,-0.949,-0.277
17.109,-0.150,-0.949,-0.271
17.119,-0.150,-0.949,-0.270
17.129,-0.146,-0.945,-0.273
17.139,-0.148,-0.943,-0.268
17.149,-0.148,-0.945,-0.268
17.159,-0.152,-0.951,-0.270
17.169,-0.152,-0.951,-0.268
17.179,-0.152,-0.951,-0.270
17.189,-0.150,-0.951,-0.268
17.199,-0.154,-0.951,-0.270
17.209,-0.148,-0.949,-0.271
17.219,-0.150,-0.951,-0.270
17.229,-0.150,-0.949,-0.268
17.238,-0.148,-0.943,-0.270
17.248,-0.152,-0.943,-0.271
17.258,-0.152,-0.951,-0.270
17.268,-0.156,-0.953,-0.270
17.278,-0.150,-0.955,-0.270
17.288,-0.154,-0.951,-0.270
17.298,-0.150,-0.955,-0.270
17.308,-0.154,-0.955,-0.270
17.318,-0.156,-0.949,-0.262
17.328,-0.158,-0.951,-0.266
17.338,-0.160,-0.951,-0.268
17.348,-0.160,-0.947,-0.270
17.358,-0.154,-0.947,-0.273
17.368,-0.152,-0.949,-0.273
17.377,-0.150,-0.943,-0.270
17.387,-0.152,-0.941,-0.266
17.397,-0.158,-0.941,-0.264
17.407,-0.156,-0.947,-0.270
17.417,-0.156,-0.951,-0.273
17.427,-0.158,-0.959,-0.277
17.437,-0.154,-0.959,-0.275
17.447,-0.154,-0.953,-0.270
17.457,-0.148,-0.951,-0.271
17.467,-0.152,-0.945,-0.271
17.477,-0.156,-0.945,-0.262
17.487,-0.156,-0.941,-0.264
17.497,-0.160,-0.945,-0.264
17.507,-0.160,-0.947,-0.262
17.516,-0.160,-0.953,-0.266
17.526,-0.162,-0.955,-0.268
17.536,-0.156,-0.953,-0.266
17.546,-0.150,-0.961,-0.273
17.556,-0.154,-0.955,-0.273
17.566,-0.154,-0.951,-0.275
17.576,-0.148,-0.951,-0.271
17.586,-0.150,-0.949,-0.271
17.596,-0.154,-0.943,-0.270
17.606,-0.152,-0.941,-0.270
17.616,-0.154,-0.941,-0.270
17.626,-0.160,-0.947,-0.275
17.636,-0.160,-0.947,-0.273
17.646,-0.162,-0.947,-0.271
17.655,-0.164,-0.947,-0.271
17.665,-0.162,-0.949,-0.273
17.675,-0.162,-0.951,-0.271
17.685,-0.162,-0.949,-0.271
17.695,-0.162,-0.953,-0.273
17.705,-0.160,-0.951,-0.273
17.715,-0.160,-0.947,-0.273
17.725,-0.162,-0.945,-0.270
17.735,-0.158,-0.945,-0.270
17.745,-0.158,-0.949,-0.271
17.755,-0.156,-0.945,-0.270
17.765,-0.156,-0.945,-0.270
17.775,-0.154,-0.947,-0.273
17.785,-0.152,-0.949,-0.273
17.795,-0.154,-0.947,-0.273
17.804,-0.148,-0.949,-0.275
17.814,-0.150,-0.947,-0.273
17.824,-0.146,-0.947,-0.271
17.834,-0.150,-0.947,-0.271
17.844,-0.154,-0.947,-0.270
17.854,-0.148,-0.945,-0.268
17.864,-0.148,-0.951,-0.270
17.874,-0.150,-0.953,-0.273
17.884,-0.148,-0.951,-0.273
17.894,-0.146,-0.953,-0.275
17.904,-0.143,-0.949,-0.273
17.914,-0.143,-0.947,-0.270
17.924,-0.148,-0.943,-0.266
17.934,-0.146,-0.947,-0.271
17.943,-0.152,-0.947,-0.264
17.953,-0.152,-0.953,-0.270
17.963,-0.154,-0.957,-0.270
17.973,-0.158,-0.955,-0.264
17.983,-0.156,-0.957,-0.268
17.993,-0.154,-0.957,-0.268
18.003,-0.152,-0.957,-0.270
18.013,-0.154,-0.955,-0.264
18.023,-0.154,-0.951,-0.264
18.033,-0.156,-0.949,-0.266
18.043,-0.148,-0.945,-0.273
18.053,-0.146,-0.949,-0.270
18.063,-0.150,-0.943,-0.266
18.073,-0.154,-0.943,-0.268
18.082,-0.156,-0.943,-0.258
18.092,-0.160,-0.951,-0.264
18.102,-0.158,-0.957,-0.270
18.112,-0.162,-0.959,-0.277
18.122,-0.160,-0.963,-0.270
18.132,-0.160,-0.955,-0.268
18.142,-0.156,-0.955,-0.268
18.152,-0.158,-0.953,-0.264
18.162,-0.154,-0.949,-0.266
18.172,-0.160,-0.947,-0.264
18.182,-0.158,-0.941,-0.262
18.192,-0.160,-0.947,-0.264
18.202,-0.156,-0.949,-0.260
18.212,-0.156,-0.951,-0.266
18.221,-0.156,-0.955,-0.266
18.231,-0.156,-0.953,-0.266
18.241,-0.154,-0.953,-0.264
18.251,-0.152,-0.951,-0.268
18.261,-0.148,-0.949,-0.266
18.271,-0.148,-0.951,-0.270
18.281,-0.156,-0.949,-0.264
18.291,-0.148,-0.949,-0.264
18.301,-0.152,-0.951,-0.268
18.311,-0.152,-0.949,-0.266
18.321,-0.152,-0.949,-0.268
18.331,-0.154,-0.943,-0.264
18.341,-0.152,-0.945,-0.264
18.351,-0.152,-0.947,-0.268
18.360,-0.156,-0.947,-0.268
18.370,-0.156,-0.953,-0.268
18.380,-0.158,-0.955,-0.268
18.390,-0.160,-0.955,-0.266
18.400,-0.158,-0.953,-0.264
18.410,-0.158,-0.953,-0.268
18.420,-0.156,-0.955,-0.266
18.430,-0.154,-0.953,-0.264
18.440,-0.154,-0.953,-0.266
18.450,-0.154,-0.955,-0.268
18.460,-0.150,-0.953,-0.271
18.470,-0.150,-0.951,-0.266
18.480,-0.150,-0.949,-0.268
18.490,-0.148,-0.953,-0.270
18.500,-0.152,-0.955,-0.271
18.509,-0.154,-0.951,-0.264
18.519,-0.154,-0.949,-0.266
18.529,-0.154,-0.949,-0.266
18.539,-0.154,-0.949,-0.268
18.549,-0.154,-0.945,-0.266
18.559,-0.152,-0.939,-0.262
18.569,-0.150,-0.945,-0.266
18.579,-0.152,-0.947,-0.268
18.589,-0.154,-0.949,-0.268
18.599,-0.156,-0.951,-0.266
18.609,-0.156,-0.945,-0.264
18.619,-0.158,-0.947,-0.264
18.629,-0.158,-0.945,-0.270
18.639,-0.158,-0.949,-0.270
18.648,-0.158,-0.951,-0.270
18.658,-0.158,-0.945,-0.264
18.668,-0.158,-0.943,-0.266
18.678,-0.160,-0.949,-0.268
18.688,-0.154,-0.951,-0.275
18.698,-0.156,-0.947,-0.266
18.708,-0.154,-0.945,-0.270
18.718,-0.156,-0.945,-0.266
18.728,-0.156,-0.949,-0.264
18.738,-0.160,-0.951,-0.266
18.748,-0.162,-0.951,-0.270
18.758,-0.158,-0.957,-0.271
18.768,-0.160,-0.955,-0.270
18.778,-0.162,-0.955,-0.271
18.787,-0.156,-0.951,-0.271
18.797,-0.154,-0.953,-0.268
18.807,-0.152,-0.949,-0.270
18.817,-0.150,-0.949,-0.268
18.827,-0.156,-0.947,-0.268
18.837,-0.156,-0.949,-0.268
18.847,-0.156,-0.949,-0.266
18.857,-0.156,-0.951,-0.266
18.867,-0.156,-0.949,-0.268
18.877,-0.158,-0.945,-0.268
18.887,-0.156,-0.943,-0.266
18.897,-0.152,-0.941,-0.268
18.907,-0.156,-0.945,-0.266
18.917,-0.152,-0.945,-0.264
18.926,-0.156,-0.951,-0.270
18.936,-0.154,-0.949,-0.277
18.946,-0.156,-0.951,-0.271
18.956,-0.160,-0.953,-0.273
18.966,-0.160,-0.947,-0.270
18.976,-0.160,-0.949,-0.266
18.986,-0.166,-0.947,-0.266
18.996,-0.166,-0.949,-0.268
19.006,-0.162,-0.953,-0.273
19.016,-0.166,-0.951,-0.271
19.026,-0.164,-0.953,-0.271
19.036,-0.166,-0.949,-0.271
19.046,-0.160,-0.949,-0.270
19.056,-0.160,-0.947,-0.270
19.065,-0.158,-0.943,-0.270
19.075,-0.160,-0.943,-0.270
19.085,-0.156,-0.947,-0.266
19.095,-0.158,-0.947,-0.270
19.105,-0.154,-0.949,-0.270
19.115,-0.156,-0.947,-0.268
19.125,-0.158,-0.949,-0.266
19.135,-0.154,-0.951,-0.264
19.145,-0.152,-0.951,-0.271
19.155,-0.154,-0.955,-0.268
19.165,-0.152,-0.953,-0.271
19.175,-0.152,-0.955,-0.277
19.185,-0.148,-0.953,-0.271
19.195,-0.148,-0.949,-0.273
19.205,-0.146,-0.947,-0.271
19.214,-0.150,-0.943,-0.268
19.224,-0.152,-0.947,-0.271
19.234,-0.152,-0.947,-0.270
19.244,-0.154,-0.947,-0.271
19.254,-0.160,-0.947,-0.270
19.264,-0.162,-0.949,-0.268
19.274,-0.160,-0.949,-0.271
19.284,-0.158,-0.949,-0.270
19.294,-0.162,-0.945,-0.270
19.304,-0.162,-0.945,-0.268
19.314,-0.160,-0.953,-0.273
19.324,-0.160,-0.947,-0.273
19.334,-0.158,-0.943,-0.273
19.344,-0.154,-0.943,-0.270
19.353,-0.156,-0.945,-0.271
19.363,-0.156,-0.943,-0.271
19.373,-0.156,-0.943,-0.262
19.383,-0.158,-0.947,-0.266
19.393,-0.156,-0.951,-0.275
19.403,-0.160,-0.955,-0.277
19.413,-0.160,-0.955,-0.273
19.423,-0.156,-0.951,-0.270
19.433,-0.160,-0.947,-0.270
19.443,-0.156,-0.949,-0.271
19.453,-0.154,-0.951,-0.270
19.463,-0.156,-0.951,-0.270
19.473,-0.158,-0.951,-0.270
19.483,-0.158,-0.949,-0.270
19.492,-0.160,-0.947,-0.270
19.502,-0.156,-0.949,-0.270
19.512,-0.154,-0.947,-0.270
19.522,-0.156,-0.947,-0.271
19.532,-0.154,-0.945,-0.271
19.542,-0.158,-0.951,-0.270
19.552,-0.156,-0.947,-0.270
19.562,-0.156,-0.947,-0.268
19.572,-0.160,-0.951,-0.270
19.582,-0.160,-0.949,-0.270
19.592,-0.156,-0.949,-0.270
19.602,-0.158,-0.949,-0.270
19.612,-0.154,-0.951,-0.273
19.622,-0.158,-0.951,-0.268
19.631,-0.156,-0.945,-0.264
19.641,-0.156,-0.943,-0.264
19.651,-0.154,-0.949,-0.268
19.661,-0.158,-0.951,-0.270
19.671,-0.160,-0.955,-0.270
19.681,-0.160,-0.955,-0.273
19.691,-0.160,-0.951,-0.268
19.701,-0.154,-0.949,-0.270
19.711,-0.158,-0.947,-0.270
19.721,-0.156,-0.945,-0.268
19.731,-0.158,-0.947,-0.270
19.741,-0.156,-0.947,-0.271
19.751,-0.160,-0.949,-0.270
19.761,-0.160,-0.949,-0.273
19.770,-0.162,-0.949,-0.270
19.780,-0.158,-0.951,-0.270
19.790,-0.156,-0.949,-0.273
19.800,-0.158,-0.953,-0.270
19.810,-0.158,-0.951,-0.270
19.820,-0.158,-0.955,-0.273
19.830,-0.160,-0.957,-0.273
19.840,-0.160,-0.949,-0.268
19.850,-0.162,-0.947,-0.266
19.860,-0.156,-0.949,-0.268
19.870,-0.156,-0.951,-0.268
19.880,-0.156,-0.945,-0.264
19.890,-0.156,-0.947,-0.266
19.900,-0.162,-0.947,-0.268
19.910,-0.162,-0.949,-0.266
19.919,-0.160,-0.949,-0.268
19.929,-0.162,-0.949,-0.268
19.939,-0.164,-0.945,-0.266
19.949,-0.164,-0.947,-0.266
19.959,-0.162,-0.949,-0.271
19.969,-0.164,-0.949,-0.271
19.979,-0.162,-0.947,-0.271
19.989,-0.158,-0.945,-0.275
19.999,-0.156,-0.945,-0.273
20.009,-0.158,-0.943,-0.271
20.019,-0.160,-0.943,-0.266
20.029,-0.164,-0.943,-0.270
20.039,-0.160,-0.951,-0.275
20.049,-0.162,-0.957,-0.275
20.058,-0.164,-0.953,-0.281
20.068,-0.162,-0.955,-0.275
20.078,-0.158,-0.953,-0.273
20.088,-0.162,-0.945,-0.270
20.098,-0.160,-0.945,-0.271
20.108,-0.160,-0.945,-0.270
20.118,-0.162,-0.943,-0.268
20.128,-0.166,-0.945,-0.268
20.138,-0.166,-0.947,-0.270
20.148,-0.164,-0.951,-0.268
20.158,-0.160,-0.949,-0.270
20.168,-0.160,-0.949,-0.277
20.178,-0.160,-0.953,-0.273
20.188,-0.158,-0.949,-0.275
20.197,-0.156,-0.949,-0.273
20.207,-0.158,-0.949,-0.273
20.217,-0.162,-0.947,-0.268
20.227,-0.166,-0.949,-0.273
20.237,-0.162,-0.951,-0.275
20.247,-0.164,-0.947,-0.271
20.257,-0.160,-0.949,-0.271
20.267,-0.158,-0.945,-0.273
20.277,-0.156,-0.943,-0.273
20.287,-0.158,-0.943,-0.271
20.297,-0.160,-0.945,-0.271
20.307,-0.164,-0.947,-0.275
20.317,-0.162,-0.947,-0.279
20.327,-0.160,-0.947,-0.275
20.336,-0.158,-0.945,-0.277
20.346,-0.162,-0.941,-0.277
20.356,-0.166,-0.941,-0.273
20.366,-0.162,-0.939,-0.275
20.376,-0.162,-0.945,-0.275
20.386,-0.162,-0.943,-0.271
20.396,-0.162,-0.943,-0.268
20.406,-0.162,-0.949,-0.279
20.416,-0.160,-0.951,-0.275
20.426,-0.158,-0.949,-0.279
20.436,-0.158,-0.949,-0.281
20.446,-0.160,-0.945,-0.273
20.456,-0.158,-0.945,-0.277
20.466,-0.156,-0.943,-0.270
20.475,-0.154,-0.943,-0.271
20.485,-0.156,-0.947,-0.277
20.495,-0.156,-0.947,-0.271
20.505,-0.162,-0.947,-0.268
20.515,-0.160,-0.943,-0.271
20.525,-0.154,-0.945,-0.271
20.535,-0.156,-0.947,-0.275
20.545,-0.158,-0.947,-0.277
20.555,-0.160,-0.949,-0.273
20.565,-0.164,-0.951,-0.275
20.575,-0.162,-0.951,-0.271
20.585,-0.166,-0.951,-0.273
20.595,-0.168,-0.949,-0.271
20.605,-0.164,-0.951,-0.271
20.615,-0.168,-0.947,-0.268
20.624,-0.168,-0.951,-0.270
20.634,-0.168,-0.949,-0.275
20.644,-0.166,-0.945,-0.273
20.654,-0.160,-0.943,-0.273
20.664,-0.160,-0.939,-0.271
20.674,-0.160,-0.941,-0.273
20.684,-0.164,-0.938,-0.268
20.694,-0.162,-0.943,-0.270
20.704,-0.166,-0.951,-0.279
20.714,-0.168,-0.959,-0.279
20.724,-0.166,-0.957,-0.281
20.734,-0.164,-0.953,-0.273
20.744,-0.168,-0.949,-0.268
20.754,-0.164,-0.945,-0.270
20.763,-0.160,-0.945,-0.271
20.773,-0.164,-0.943,-0.270
20.783,-0.162,-0.943,-0.273
20.793,-0.168,-0.945,-0.273
20.803,-0.162,-0.949,-0.275
20.813,-0.162,-0.945,-0.275
20.823,-0.164,-0.943,-0.273
20.833,-0.162,-0.947,-0.271
20.843,-0.162,-0.945,-0.279
20.853,-0.162,-0.945,-0.273
20.863,-0.160,-0.945,-0.271
20.873,-0.160,-0.947,-0.275
20.883,-0.162,-0.947,-0.275
20.893,-0.164,-0.947,-0.271
20.902,-0.164,-0.945,-0.271
20.912,-0.158,-0.949,-0.279
20.922,-0.158,-0.949,-0.279
20.932,-0.160,-0.943,-0.273
20.942,-0.162,-0.943,-0.273
20.952,-0.160,-0.949,-0.277
20.962,-0.160,-0.947,-0.277
20.972,-0.162,-0.951,-0.281
20.982,-0.164,-0.949,-0.277
20.992,-0.166,-0.949,-0.273
21.002,-0.166,-0.947,-0.275
21.012,-0.166,-0.947,-0.275
21.022,-0.168,-0.947,-0.273
21.032,-0.164,-0.943,-0.277
21.041,-0.166,-0.941,-0.273
21.051,-0.164,-0.941,-0.277
21.061,-0.164,-0.939,-0.275
21.071,-0.162,-0.943,-0.275
21.081,-0.162,-0.943,-0.271
21.091,-0.162,-0.947,-0.277
21.101,-0.162,-0.949,-0.275
21.111,-0.162,-0.947,-0.277
21.121,-0.162,-0.947,-0.275
21.131,-0.160,-0.945,-0.273
21.141,-0.164,-0.943,-0.273
21.151,-0.164,-0.947,-0.273
21.161,-0.160,-0.945,-0.273
21.171,-0.158,-0.947,-0.275
21.180,-0.160,-0.949,-0.273
21.190,-0.160,-0.943,-0.271
21.200,-0.160,-0.945,-0.270
21.210,-0.158,-0.947,-0.271
21.220,-0.158,-0.951,-0.277
21.230,-0.164,-0.951,-0.271
21.240,-0.164,-0.949,-0.271
21.250,-0.162,-0.951,-0.277
21.260,-0.166,-0.951,-0.273
21.270,-0.164,-0.951,-0.273
21.280,-0.164,-0.951,-0.273
21.290,-0.164,-0.945,-0.266
21.300,-0.164,-0.947,-0.270
21.310,-0.164,-0.947,-0.270
21.320,-0.162,-0.941,-0.273
21.329,-0.160,-0.947,-0.275
21.339,-0.156,-0.941,-0.277
21.349,-0.158,-0.939,-0.271
21.359,-0.158,-0.943,-0.268
21.369,-0.164,-0.945,-0.268
21.379,-0.160,-0.949,-0.271
21.389,-0.162,-0.959,-0.279
21.399,-0.166,-0.965,-0.279
21.409,-0.166,-0.957,-0.270
21.419,-0.164,-0.953,-0.270
21.429,-0.162,-0.945,-0.266
21.439,-0.162,-0.943,-0.264
21.449,-0.162,-0.943,-0.264
21.459,-0.160,-0.945,-0.268
21.468,-0.164,-0.951,-0.268
21.478,-0.166,-0.951,-0.268
21.488,-0.162,-0.953,-0.270
21.498,-0.160,-0.951,-0.271
21.508,-0.158,-0.947,-0.275
21.518,-0.158,-0.947,-0.273
21.528,-0.154,-0.947,-0.273
21.538,-0.152,-0.941,-0.270
21.548,-0.152,-0.941,-0.268
21.558,-0.158,-0.941,-0.264
21.568,-0.160,-0.943,-0.268
21.578,-0.154,-0.945,-0.277
21.588,-0.156,-0.949,-0.268
21.598,-0.162,-0.951,-0.268
21.607,-0.160,-0.949,-0.266
21.617,-0.154,-0.947,-0.262
21.627,-0.154,-0.949,-0.268
21.637,-0.156,-0.953,-0.270
21.647,-0.158,-0.953,-0.271
21.657,-0.154,-0.955,-0.270
21.667,-0.156,-0.953,-0.270
21.677,-0.152,-0.951,-0.270
21.687,-0.154,-0.949,-0.271
21.697,-0.152,-0.949,-0.270
21.707,-0.152,-0.947,-0.270
21.717,-0.156,-0.949,-0.266
21.727,-0.154,-0.949,-0.271
21.737,-0.154,-0.953,-0.270
21.746,-0.160,-0.949,-0.266
21.756,-0.152,-0.949,-0.268
21.766,-0.158,-0.949,-0.270
21.776,-0.158,-0.951,-0.270
21.786,-0.158,-0.949,-0.268
21.796,-0.154,-0.951,-0.270
21.806,-0.160,-0.949,-0.270
21.816,-0.156,-0.947,-0.264
21.826,-0.152,-0.947,-0.268
21.836,-0.152,-0.949,-0.268
21.846,-0.150,-0.951,-0.270
21.856,-0.150,-0.951,-0.270
21.866,-0.150,-0.949,-0.270
21.876,-0.152,-0.947,-0.270
21.886,-0.152,-0.951,-0.266
21.895,-0.152,-0.955,-0.270
21.905,-0.156,-0.955,-0.266
21.915,-0.158,-0.955,-0.264
21.925,-0.158,-0.951,-0.270
21.935,-0.156,-0.953,-0.270
21.945,-0.156,-0.953,-0.268
21.955,-0.156,-0.953,-0.268
21.965,-0.158,-0.953,-0.271
21.975,-0.154,-0.955,-0.271
21.985,-0.150,-0.951,-0.275
21.995,-0.152,-0.943,-0.275
22.005,-0.146,-0.941,-0.268
22.015,-0.150,-0.939,-0.271
22.025,-0.152,-0.943,-0.266
22.034,-0.156,-0.939,-0.264
22.044,-0.162,-0.951,-0.270
22.054,-0.162,-0.957,-0.277
22.064,-0.164,-0.959,-0.273
22.074,-0.164,-0.957,-0.273
22.084,-0.160,-0.953,-0.273
22.094,-0.158,-0.949,-0.275
22.104,-0.158,-0.947,-0.268
22.114,-0.160,-0.945,-0.270
22.124,-0.166,-0.943,-0.268
22.134,-0.162,-0.943,-0.268
22.144,-0.162,-0.941,-0.266
22.154,-0.164,-0.947,-0.268
22.164,-0.162,-0.949,-0.268
22.173,-0.162,-0.947,-0.270
22.183,-0.160,-0.949,-0.270
22.193,-0.156,-0.947,-0.270
22.203,-0.154,-0.949,-0.271
22.213,-0.152,-0.951,-0.273
22.223,-0.156,-0.947,-0.275
22.233,-0.156,-0.949,-0.271
22.243,-0.154,-0.949,-0.273
22.253,-0.154,-0.949,-0.273
22.263,-0.154,-0.949,-0.273
22.273,-0.158,-0.943,-0.266
22.283,-0.158,-0.943,-0.266
22.293,-0.160,-0.953,-0.270
22.303,-0.158,-0.953,-0.275
22.312,-0.158,-0.955,-0.271
22.322,-0.160,-0.953,-0.273
22.332,-0.160,-0.949,-0.271
22.342,-0.156,-0.951,-0.271
22.352,-0.156,-0.949,-0.275
22.362,-0.154,-0.947,-0.270
22.372,-0.156,-0.951,-0.271
22.382,-0.154,-0.951,-0.271
22.392,-0.152,-0.949,-0.270
22.402,-0.152,-0.947,-0.270
22.412,-0.150,-0.947,-0.270
22.422,-0.154,-0.945,-0.271
22.432,-0.152,-0.945,-0.271
22.442,-0.154,-0.947,-0.266
22.451,-0.152,-0.947,-0.271
22.461,-0.152,-0.951,-0.275
22.471,-0.156,-0.953,-0.273
22.481,-0.156,-0.951,-0.273
22.491,-0.160,-0.949,-0.273
22.501,-0.154,-0.947,-0.271
22.511,-0.156,-0.949,-0.270
22.521,-0.158,-0.945,-0.270
22.531,-0.156,-0.941,-0.268
22.541,-0.156,-0.943,-0.268
22.551,-0.156,-0.947,-0.270
22.561,-0.158,-0.949,-0.270
22.571,-0.164,-0.949,-0.268
22.581,-0.164,-0.955,-0.268
22.591,-0.164,-0.955,-0.273
22.600,-0.162,-0.953,-0.271
22.610,-0.160,-0.953,-0.273
22.620,-0.158,-0.951,-0.271
22.630,-0.160,-0.949,-0.268
22.640,-0.160,-0.947,-0.271
22.650,-0.164,-0.949,-0.270
22.660,-0.160,-0.947,-0.271
22.670,-0.156,-0.947,-0.273
22.680,-0.156,-0.947,-0.273
22.690,-0.154,-0.947,-0.270
22.700,-0.156,-0.943,-0.264
22.710,-0.158,-0.943,-0.266
22.720,-0.158,-0.951,-0.275
22.730,-0.158,-0.957,-0.281
22.739,-0.158,-0.959,-0.277
22.749,-0.154,-0.957,-0.271
22.759,-0.156,-0.951,-0.268
22.769,-0.156,-0.949,-0.270
22.779,-0.160,-0.945,-0.266
22.789,-0.154,-0.947,-0.271
22.799,-0.160,-0.947,-0.268
22.809,-0.160,-0.945,-0.264
22.819,-0.160,-0.943,-0.270
22.829,-0.158,-0.949,-0.268
22.839,-0.158,-0.949,-0.271
22.849,-0.158,-0.949,-0.270
22.859,-0.154,-0.947,-0.270
22.869,-0.152,-0.947,-0.270
22.878,-0.158,-0.949,-0.268
22.888,-0.154,-0.949,-0.270
22.898,-0.158,-0.947,-0.270
22.908,-0.156,-0.951,-0.273
22.918,-0.156,-0.949,-0.271
22.928,-0.150,-0.947,-0.275
22.938,-0.148,-0.947,-0.275
22.948,-0.154,-0.949,-0.275
22.958,-0.152,-0.947,-0.270
22.968,-0.156,-0.941,-0.270
22.978,-0.156,-0.945,-0.273
22.988,-0.156,-0.949,-0.271
22.998,-0.160,-0.951,-0.271
23.008,-0.162,-0.951,-0.270
23.017,-0.158,-0.953,-0.271
23.027,-0.158,-0.949,-0.271
23.037,-0.154,-0.949,-0.271
23.047,-0.156,-0.945,-0.270
23.057,-0.152,-0.947,-0.273
23.067,-0.150,-0.949,-0.270
23.077,-0.143,-0.947,-0.275
23.087,-0.143,-0.949,-0.279
23.097,-0.141,-0.949,-0.277
23.107,-0.137,-0.949,-0.275
23.117,-0.143,-0.949,-0.271
23.127,-0.152,-0.947,-0.271
23.137,-0.152,-0.947,-0.275
23.147,-0.156,-0.953,-0.275
23.156,-0.164,-0.949,-0.266
23.166,-0.164,-0.945,-0.262
23.176,-0.158,-0.945,-0.266
23.186,-0.152,-0.949,-0.268
23.196,-0.152,-0.943,-0.273
23.206,-0.152,-0.943,-0.270
23.216,-0.152,-0.934,-0.262
23.226,-0.148,-0.939,-0.266
23.236,-0.145,-0.947,-0.273
23.246,-0.145,-0.957,-0.273
23.256,-0.148,-0.959,-0.273
23.266,-0.152,-0.961,-0.271
23.276,-0.154,-0.961,-0.271
23.286,-0.154,-0.963,-0.275
23.296,-0.150,-0.957,-0.270
23.305,-0.150,-0.951,-0.273
23.315,-0.152,-0.951,-0.273
23.325,-0.148,-0.949,-0.273
23.335,-0.150,-0.939,-0.273
23.345,-0.145,-0.936,-0.277
23.355,-0.145,-0.938,-0.271
23.365,-0.150,-0.939,-0.277
23.375,-0.148,-0.939,-0.270
23.385,-0.154,-0.939,-0.268
23.395,-0.156,-0.945,-0.270
23.405,-0.158,-0.957,-0.281
23.415,-0.162,-0.957,-0.277
23.425,-0.162,-0.955,-0.271
23.435,-0.162,-0.951,-0.270
23.444,-0.160,-0.947,-0.268
23.454,-0.164,-0.947,-0.266
23.464,-0.162,-0.951,-0.268
23.474,-0.162,-0.951,-0.270
23.484,-0.160,-0.949,-0.270
23.494,-0.158,-0.953,-0.271
23.504,-0.154,-0.953,-0.275
23.514,-0.148,-0.953,-0.281
23.524,-0.146,-0.953,-0.283
23.534,-0.145,-0.949,-0.283
23.544,-0.146,-0.945,-0.279
23.554,-0.148,-0.943,-0.277
23.564,-0.148,-0.941,-0.279
23.574,-0.152,-0.941,-0.275
23.583,-0.152,-0.941,-0.275
23.593,-0.152,-0.943,-0.279
23.603,-0.150,-0.943,-0.279
23.613,-0.150,-0.947,-0.281
23.623,-0.152,-0.943,-0.275
23.633,-0.152,-0.943,-0.275
23.643,-0.152,-0.945,-0.275
23.653,-0.154,-0.943,-0.275
23.663,-0.152,-0.945,-0.275
23.673,-0.146,-0.953,-0.277
23.683,-0.146,-0.949,-0.279
23.693,-0.146,-0.951,-0.279
23.703,-0.143,-0.949,-0.281
23.713,-0.145,-0.951,-0.283
23.722,-0.143,-0.947,-0.281
23.732,-0.141,-0.947,-0.279
23.742,-0.141,-0.947,-0.277
23.752,-0.145,-0.945,-0.277
23.762,-0.141,-0.947,-0.277
23.772,-0.141,-0.947,-0.277
23.782,-0.145,-0.949,-0.277
23.792,-0.146,-0.947,-0.275
23.802,-0.148,-0.945,-0.271
23.812,-0.152,-0.945,-0.275
23.822,-0.150,-0.947,-0.275
23.832,-0.150,-0.949,-0.275
23.842,-0.154,-0.951,-0.277
23.852,-0.146,-0.951,-0.277
23.861,-0.152,-0.949,-0.281
23.871,-0.148,-0.951,-0.275
23.881,-0.152,-0.949,-0.283
23.891,-0.150,-0.947,-0.271
23.901,-0.150,-0.945,-0.273
23.911,-0.152,-0.943,-0.270
23.921,-0.154,-0.945,-0.277
23.931,-0.150,-0.949,-0.277
23.941,-0.154,-0.955,-0.283
23.951,-0.154,-0.953,-0.281
23.961,-0.152,-0.947,-0.275
23.971,-0.154,-0.947,-0.275
23.981,-0.156,-0.947,-0.275
23.991,-0.154,-0.949,-0.275
24.001,-0.154,-0.949,-0.271
24.010,-0.156,-0.945,-0.268
24.020,-0.156,-0.941,-0.273
24.030,-0.152,-0.941,-0.270
24.040,-0.150,-0.941,-0.277
24.050,-0.143,-0.945,-0.281
24.060,-0.145,-0.939,-0.271
24.070,-0.146,-0.941,-0.273
24.080,-0.146,-0.945,-0.270
24.090,-0.152,-0.949,-0.270
24.100,-0.150,-0.957,-0.277
24.110,-0.150,-0.963,-0.279
24.120,-0.150,-0.961,-0.279
24.130,-0.154,-0.951,-0.275
24.140,-0.150,-0.947,-0.266
24.149,-0.152,-0.945,-0.264
24.159,-0.152,-0.945,-0.268
24.169,-0.154,-0.947,-0.262
24.179,-0.154,-0.951,-0.266
24.189,-0.154,-0.951,-0.268
24.199,-0.152,-0.955,-0.268
24.209,-0.156,-0.953,-0.270
24.219,-0.152,-0.953,-0.270
24.229,-0.150,-0.955,-0.270
24.239,-0.150,-0.947,-0.268
24.249,-0.154,-0.949,-0.268
24.259,-0.150,-0.949,-0.271
24.269,-0.148,-0.947,-0.268
24.279,-0.150,-0.947,-0.268
24.288,-0.148,-0.945,-0.268
24.298,-0.150,-0.949,-0.270
24.308,-0.146,-0.949,-0.270
24.318,-0.148,-0.951,-0.273
24.328,-0.150,-0.945,-0.266
24.338,-0.148,-0.945,-0.268
24.348,-0.152,-0.951,-0.270
24.358,-0.152,-0.955,-0.271
24.368,-0.152,-0.955,-0.275
24.378,-0.150,-0.957,-0.271
24.388,-0.148,-0.951,-0.273
24.398,-0.148,-0.951,-0.273
24.408,-0.146,-0.945,-0.268
24.418,-0.148,-0.941,-0.268
24.427,-0.150,-0.941,-0.268
24.437,-0.148,-0.943,-0.270
24.447,-0.146,-0.947,-0.270
24.457,-0.146,-0.949,-0.270
24.467,-0.146,-0.949,-0.271
24.477,-0.150,-0.951,-0.271
24.487,-0.146,-0.951,-0.275
24.497,-0.146,-0.949,-0.271
24.507,-0.148,-0.951,-0.273
24.517,-0.148,-0.951,-0.271
24.527,-0.146,-0.947,-0.270
24.537,-0.145,-0.949,-0.270
24.547,-0.145,-0.945,-0.268
24.557,-0.148,-0.941,-0.268
24.566,-0.150,-0.945,-0.268
24.576,-0.148,-0.949,-0.268
24.586,-0.146,-0.951,-0.271
24.596,-0.148,-0.957,-0.275
24.606,-0.150,-0.955,-0.271
24.616,-0.152,-0.955,-0.273
24.626,-0.148,-0.957,-0.270
24.636,-0.148,-0.951,-0.268
24.646,-0.150,-0.953,-0.270
24.656,-0.150,-0.951,-0.266
24.666,-0.148,-0.945,-0.268
24.676,-0.152,-0.947,-0.275
24.686,-0.148,-0.947,-0.275
24.696,-0.146,-0.945,-0.277
24.706,-0.141,-0.943,-0.277
24.715,-0.143,-0.945,-0.277
24.725,-0.146,-0.945,-0.277
24.735,-0.148,-0.947,-0.275
24.745,-0.150,-0.947,-0.275
24.755,-0.152,-0.947,-0.281
24.765,-0.152,-0.951,-0.279
24.775,-0.156,-0.951,-0.279
24.785,-0.152,-0.947,-0.277
24.795,-0.154,-0.943,-0.275
24.805,-0.152,-0.945,-0.271
24.815,-0.156,-0.943,-0.273
24.825,-0.150,-0.945,-0.273
24.835,-0.156,-0.945,-0.273
24.845,-0.152,-0.947,-0.275
24.854,-0.152,-0.949,-0.277
24.864,-0.152,-0.945,-0.273
24.874,-0.148,-0.947,-0.275
24.884,-0.148,-0.949,-0.277
24.894,-0.148,-0.949,-0.279
24.904,-0.148,-0.947,-0.275
24.914,-0.148,-0.943,-0.277
24.924,-0.154,-0.945,-0.270
24.934,-0.152,-0.947,-0.271
24.944,-0.154,-0.945,-0.275
24.954,-0.156,-0.947,-0.277
24.964,-0.154,-0.951,-0.277
24.974,-0.152,-0.949,-0.273
24.984,-0.156,-0.943,-0.266
24.993,-0.150,-0.949,-0.270
25.003,-0.154,-0.951,-0.271
25.013,-0.152,-0.951,-0.270
25.023,-0.152,-0.955,-0.270
25.033,-0.150,-0.953,-0.270
25.043,-0.152,-0.953,-0.270
25.053,-0.152,-0.949,-0.268
25.063,-0.146,-0.949,-0.271
25.073,-0.146,-0.947,-0.273
25.083,-0.145,-0.947,-0.271
25.093,-0.143,-0.947,-0.273
25.103,-0.146,-0.943,-0.271
25.113,-0.146,-0.949,-0.277
25.123,-0.145,-0.947,-0.273
25.132,-0.146,-0.947,-0.271
25.142,-0.148,-0.947,-0.271
25.152,-0.152,-0.949,-0.268
25.162,-0.150,-0.947,-0.270
25.172,-0.150,-0.947,-0.268
25.182,-0.148,-0.949,-0.266
25.192,-0.152,-0.951,-0.270
25.202,-0.150,-0.951,-0.270
25.212,-0.148,-0.951,-0.271
25.222,-0.148,-0.953,-0.266
25.232,-0.148,-0.953,-0.270
25.242,-0.148,-0.951,-0.270
25.252,-0.148,-0.953,-0.270
25.262,-0.146,-0.947,-0.270
25.271,-0.145,-0.949,-0.271
25.281,-0.146,-0.953,-0.270
25.291,-0.148,-0.955,-0.264
25.301,-0.150,-0.957,-0.270
25.311,-0.146,-0.953,-0.270
25.321,-0.154,-0.951,-0.271
25.331,-0.146,-0.949,-0.271
25.341,-0.141,-0.943,-0.273
25.351,-0.141,-0.941,-0.268
25.361,-0.146,-0.943,-0.260
25.371,-0.154,-0.943,-0.258
25.381,-0.156,-0.949,-0.260
25.391,-0.160,-0.957,-0.262
25.401,-0.158,-0.965,-0.268
25.411,-0.158,-0.967,-0.266
25.420,-0.154,-0.967,-0.270
25.430,-0.148,-0.967,-0.268
25.440,-0.146,-0.957,-0.270
25.450,-0.145,-0.951,-0.266
25.460,-0.143,-0.951,-0.268
25.470,-0.143,-0.945,-0.268
25.480,-0.148,-0.939,-0.264
25.490,-0.146,-0.939,-0.268
25.500,-0.146,-0.941,-0.268
25.510,-0.146,-0.943,-0.264
25.520,-0.148,-0.949,-0.264
25.530,-0.152,-0.947,-0.262
25.540,-0.154,-0.949,-0.264
25.550,-0.152,-0.951,-0.268
25.559,-0.154,-0.955,-0.260
25.569,-0.156,-0.955,-0.264
25.579,-0.156,-0.957,-0.264
25.589,-0.154,-0.951,-0.260
25.599,-0.150,-0.953,-0.258
25.609,-0.148,-0.957,-0.264
25.619,-0.146,-0.951,-0.264
25.629,-0.146,-0.951,-0.262
25.639,-0.143,-0.955,-0.266
25.649,-0.139,-0.959,-0.273
25.659,-0.141,-0.957,-0.268
25.669,-0.141,-0.953,-0.266
25.679,-0.141,-0.949,-0.262
25.689,-0.143,-0.949,-0.258
25.698,-0.137,-0.949,-0.262
25.708,-0.145,-0.951,-0.264
25.718,-0.145,-0.955,-0.262
25.728,-0.141,-0.955,-0.262
25.738,-0.141,-0.957,-0.271
25.748,-0.141,-0.955,-0.266
25.758,-0.139,-0.955,-0.268
25.768,-0.135,-0.953,-0.273
25.778,-0.135,-0.947,-0.273
25.788,-0.139,-0.949,-0.266
25.798,-0.137,-0.949,-0.271
25.808,-0.143,-0.949,-0.266
25.818,-0.143,-0.947,-0.260
25.828,-0.146,-0.949,-0.264
25.837,-0.148,-0.949,-0.256
25.847,-0.148,-0.947,-0.260
25.857,-0.150,-0.951,-0.260
25.867,-0.150,-0.953,-0.256
25.877,-0.152,-0.953,-0.262
25.887,-0.150,-0.959,-0.262
25.897,-0.148,-0.961,-0.264
25.907,-0.146,-0.959,-0.266
25.917,-0.145,-0.957,-0.264
25.927,-0.146,-0.955,-0.266
25.937,-0.146,-0.959,-0.262
25.947,-0.146,-0.955,-0.266
25.957,-0.143,-0.955,-0.268
25.967,-0.141,-0.953,-0.271
25.976,-0.137,-0.947,-0.271
25.986,-0.139,-0.945,-0.268
25.996,-0.141,-0.943,-0.268
26.006,-0.148,-0.943,-0.264
26.016,-0.148,-0.947,-0.264
26.026,-0.150,-0.953,-0.275
26.036,-0.156,-0.957,-0.270
26.046,-0.154,-0.955,-0.268
26.056,-0.152,-0.951,-0.273
26.066,-0.154,-0.953,-0.266
26.076,-0.150,-0.949,-0.266
26.086,-0.148,-0.949,-0.270
26.096,-0.148,-0.949,-0.271
26.106,-0.148,-0.953,-0.271
26.116,-0.145,-0.949,-0.270
26.125,-0.145,-0.945,-0.270
26.135,-0.146,-0.947,-0.270
26.145,-0.146,-0.947,-0.270
26.155,-0.143,-0.947,-0.270
26.165,-0.146,-0.949,-0.270
26.175,-0.143,-0.953,-0.270
26.185,-0.146,-0.951,-0.266
26.195,-0.143,-0.949,-0.270
26.205,-0.143,-0.951,-0.270
26.215,-0.145,-0.953,-0.271
26.225,-0.141,-0.949,-0.271
26.235,-0.135,-0.949,-0.271
26.245,-0.137,-0.945,-0.271
26.255,-0.137,-0.943,-0.275
26.264,-0.141,-0.947,-0.271
26.274,-0.143,-0.947,-0.270
26.284,-0.146,-0.947,-0.266
26.294,-0.145,-0.953,-0.268
26.304,-0.152,-0.955,-0.268
26.314,-0.150,-0.955,-0.270
26.324,-0.145,-0.955,-0.271
26.334,-0.143,-0.957,-0.273
26.344,-0.143,-0.955,-0.273
26.354,-0.141,-0.951,-0.273
26.364,-0.143,-0.945,-0.271
26.374,-0.141,-0.943,-0.270
26.384,-0.145,-0.943,-0.270
26.394,-0.146,-0.941,-0.262
26.403,-0.146,-0.945,-0.268
26.413,-0.146,-0.949,-0.271
26.423,-0.148,-0.949,-0.270
26.433,-0.145,-0.951,-0.270
26.443,-0.145,-0.951,-0.273
26.453,-0.146,-0.951,-0.268
26.463,-0.145,-0.951,-0.271
26.473,-0.143,-0.949,-0.270
26.483,-0.141,-0.951,-0.270
26.493,-0.141,-0.945,-0.270
26.503,-0.141,-0.947,-0.268
26.513,-0.139,-0.943,-0.268
26.523,-0.139,-0.947,-0.268
26.533,-0.143,-0.951,-0.270
26.542,-0.145,-0.959,-0.268
26.552,-0.148,-0.957,-0.268
26.562,-0.150,-0.957,-0.266
26.572,-0.150,-0.961,-0.268
26.582,-0.146,-0.957,-0.268
26.592,-0.143,-0.959,-0.268
26.602,-0.143,-0.953,-0.268
26.612,-0.141,-0.951,-0.271
26.622,-0.143,-0.949,-0.268
26.632,-0.141,-0.943,-0.270
26.642,-0.141,-0.943,-0.270
26.652,-0.143,-0.943,-0.266
26.662,-0.145,-0.941,-0.260
26.672,-0.150,-0.939,-0.256
26.681,-0.148,-0.947,-0.264
26.691,-0.150,-0.959,-0.268
26.701,-0.152,-0.965,-0.273
26.711,-0.150,-0.967,-0.271
26.721,-0.146,-0.961,-0.273
26.731,-0.145,-0.959,-0.270
26.741,-0.145,-0.951,-0.266
26.751,-0.141,-0.945,-0.266
26.761,-0.141,-0.943,-0.266
26.771,-0.146,-0.945,-0.258
26.781,-0.148,-0.945,-0.258
26.791,-0.150,-0.949,-0.262
26.801,-0.146,-0.955,-0.260
26.811,-0.146,-0.955,-0.262
26.821,-0.145,-0.957,-0.262
26.830,-0.143,-0.953,-0.264
26.840,-0.141,-0.953,-0.270
26.850,-0.139,-0.953,-0.270
26.860,-0.139,-0.953,-0.268
26.870,-0.143,-0.949,-0.260
26.880,-0.141,-0.945,-0.260
26.890,-0.137,-0.947,-0.266
26.900,-0.139,-0.953,-0.262
26.910,-0.141,-0.953,-0.262
26.920,-0.141,-0.953,-0.260
26.930,-0.143,-0.955,-0.262
26.940,-0.141,-0.957,-0.264
26.950,-0.145,-0.961,-0.262
26.960,-0.141,-0.961,-0.271
26.969,-0.141,-0.961,-0.266
26.979,-0.143,-0.955,-0.264
26.989,-0.141,-0.953,-0.262
26.999,-0.139,-0.951,-0.260
27.009,-0.143,-0.949,-0.262
27.019,-0.143,-0.949,-0.256
27.029,-0.145,-0.949,-0.262
27.039,-0.148,-0.953,-0.262
27.049,-0.143,-0.957,-0.266
27.059,-0.143,-0.959,-0.266
27.069,-0.143,-0.959,-0.268
27.079,-0.141,-0.957,-0.268
27.089,-0.141,-0.957,-0.264
27.099,-0.141,-0.953,-0.266
27.108,-0.139,-0.953,-0.262
27.118,-0.143,-0.949,-0.262
27.128,-0.141,-0.949,-0.262
27.138,-0.139,-0.949,-0.262
27.148,-0.141,-0.945,-0.260
27.158,-0.137,-0.947,-0.262
27.168,-0.141,-0.951,-0.262
27.178,-0.137,-0.955,-0.264
27.188,-0.139,-0.959,-0.268
27.198,-0.139,-0.961,-0.266
27.208,-0.141,-0.957,-0.266
27.218,-0.141,-0.957,-0.264
27.228,-0.137,-0.955,-0.262
27.238,-0.135,-0.953,-0.266
27.247,-0.143,-0.949,-0.260
27.257,-0.139,-0.947,-0.264
27.267,-0.137,-0.943,-0.262
27.277,-0.133,-0.947,-0.270
27.287,-0.131,-0.947,-0.270
27.297,-0.133,-0.945,-0.264
27.307,-0.135,-0.947,-0.262
27.317,-0.137,-0.951,-0.256
27.327,-0.145,-0.951,-0.256
27.337,-0.143,-0.959,-0.266
27.347,-0.143,-0.965,-0.268
27.357,-0.146,-0.965,-0.270
27.367,-0.143,-0.963,-0.268
27.377,-0.139,-0.959,-0.266
27.387,-0.135,-0.951,-0.262
27.396,-0.135,-0.951,-0.262
27.406,-0.135,-0.951,-0.264
27.416,-0.135,-0.949,-0.264
27.426,-0.135,-0.953,-0.266
27.436,-0.139,-0.951,-0.264
27.446,-0.139,-0.951,-0.264
27.456,-0.143,-0.949,-0.262
27.466,-0.139,-0.949,-0.270
27.476,-0.141,-0.953,-0.266
27.486,-0.139,-0.953,-0.271
27.496,-0.137,-0.951,-0.268
27.506,-0.139,-0.953,-0.266
27.516,-0.139,-0.949,-0.266
27.526,-0.139,-0.947,-0.266
27.535,-0.139,-0.945,-0.264
27.545,-0.137,-0.947,-0.266
27.555,-0.137,-0.945,-0.260
27.565,-0.137,-0.945,-0.258
27.575,-0.137,-0.949,-0.260
27.585,-0.137,-0.953,-0.260
27.595,-0.137,-0.961,-0.262
27.605,-0.137,-0.961,-0.266
27.615,-0.133,-0.965,-0.264
27.625,-0.131,-0.963,-0.268
27.635,-0.129,-0.961,-0.268
27.645,-0.129,-0.955,-0.264
27.655,-0.125,-0.957,-0.268
27.665,-0.129,-0.953,-0.266
27.674,-0.131,-0.951,-0.258
27.684,-0.131,-0.951,-0.266
27.694,-0.135,-0.955,-0.264
27.704,-0.133,-0.955,-0.260
27.714,-0.137,-0.955,-0.264
27.724,-0.133,-0.953,-0.264
27.734,-0.137,-0.953,-0.268
27.744,-0.135,-0.949,-0.266
27.754,-0.137,-0.951,-0.266
27.764,-0.137,-0.949,-0.258
27.774,-0.139,-0.945,-0.260
27.784,-0.137,-0.951,-0.262
27.794,-0.139,-0.955,-0.264
27.804,-0.137,-0.955,-0.260
27.813,-0.139,-0.957,-0.264
27.823,-0.139,-0.959,-0.266
27.833,-0.139,-0.955,-0.262
27.843,-0.143,-0.953,-0.262
27.853,-0.137,-0.955,-0.264
27.863,-0.141,-0.955,-0.256
27.873,-0.145,-0.949,-0.254
27.883,-0.141,-0.949,-0.254
27.893,-0.143,-0.953,-0.258
27.903,-0.137,-0.955,-0.264
27.913,-0.135,-0.951,-0.262
27.923,-0.131,-0.953,-0.262
27.933,-0.133,-0.951,-0.264
27.943,-0.133,-0.953,-0.262
27.952,-0.135,-0.959,-0.270
27.962,-0.135,-0.965,-0.271
27.972,-0.137,-0.963,-0.271
27.982,-0.141,-0.959,-0.268
27.992,-0.141,-0.957,-0.266
28.002,-0.141,-0.949,-0.262
28.012,-0.146,-0.949,-0.260
28.022,-0.145,-0.947,-0.258
28.032,-0.145,-0.951,-0.260
28.042,-0.145,-0.953,-0.264
28.052,-0.150,-0.953,-0.266
28.062,-0.146,-0.953,-0.264
28.072,-0.148,-0.951,-0.266
28.082,-0.146,-0.953,-0.264
28.092,-0.143,-0.951,-0.266
28.101,-0.143,-0.943,-0.268
28.111,-0.143,-0.949,-0.268
28.121,-0.141,-0.947,-0.266
28.131,-0.141,-0.947,-0.266
28.141,-0.143,-0.949,-0.264
28.151,-0.139,-0.949,-0.270
28.161,-0.139,-0.953,-0.268
28.171,-0.141,-0.957,-0.268
28.181,-0.139,-0.957,-0.268
28.191,-0.139,-0.951,-0.262
28.201,-0.141,-0.951,-0.264
28.211,-0.137,-0.951,-0.268
28.221,-0.141,-0.951,-0.266
28.231,-0.143,-0.953,-0.268
28.240,-0.141,-0.955,-0.270
28.250,-0.139,-0.955,-0.270
28.260,-0.137,-0.955,-0.268
28.270,-0.137,-0.953,-0.270
28.280,-0.139,-0.953,-0.271
28.290,-0.135,-0.949,-0.266
28.300,-0.139,-0.949,-0.270
28.310,-0.139,-0.947,-0.266
28.320,-0.139,-0.947,-0.271
28.330,-0.137,-0.951,-0.271
28.340,-0.137,-0.947,-0.270
28.350,-0.137,-0.951,-0.273
28.360,-0.135,-0.951,-0.270
28.370,-0.137,-0.949,-0.270
28.379,-0.135,-0.951,-0.270
28.389,-0.139,-0.947,-0.268
28.399,-0.135,-0.949,-0.271
28.409,-0.139,-0.949,-0.270
28.419,-0.139,-0.951,-0.268
28.429,-0.141,-0.953,-0.268
28.439,-0.141,-0.951,-0.268
28.449,-0.145,-0.955,-0.266
28.459,-0.143,-0.953,-0.262
28.469,-0.141,-0.955,-0.266
28.479,-0.141,-0.955,-0.264
28.489,-0.141,-0.955,-0.266
28.499,-0.141,-0.957,-0.270
28.509,-0.141,-0.949,-0.268
28.518,-0.135,-0.949,-0.266
28.528,-0.131,-0.949,-0.268
28.538,-0.135,-0.943,-0.266
28.548,-0.139,-0.943,-0.262
28.558,-0.141,-0.947,-0.262
28.568,-0.141,-0.953,-0.266
28.578,-0.141,-0.963,-0.273
28.588,-0.143,-0.963,-0.273
28.598,-0.139,-0.961,-0.270
28.608,-0.141,-0.959,-0.271
28.618,-0.139,-0.953,-0.266
28.628,-0.143,-0.953,-0.266
28.638,-0.141,-0.953,-0.270
28.648,-0.145,-0.951,-0.266
28.657,-0.146,-0.947,-0.264
28.667,-0.145,-0.947,-0.268
28.677,-0.145,-0.949,-0.264
28.687,-0.148,-0.947,-0.264
28.697,-0.148,-0.949,-0.266
28.707,-0.146,-0.949,-0.268
28.717,-0.146,-0.955,-0.268
28.727,-0.145,-0.949,-0.268
28.737,-0.143,-0.951,-0.268
28.747,-0.145,-0.949,-0.264
28.757,-0.148,-0.947,-0.264
28.767,-0.148,-0.945,-0.264
28.777,-0.148,-0.947,-0.266
28.787,-0.146,-0.953,-0.270
28.797,-0.145,-0.955,-0.266
28.806,-0.148,-0.949,-0.260
28.816,-0.146,-0.951,-0.262
28.826,-0.145,-0.953,-0.270
28.836,-0.145,-0.959,-0.270
28.846,-0.143,-0.957,-0.268
28.856,-0.141,-0.957,-0.271
28.866,-0.143,-0.955,-0.268
28.876,-0.143,-0.953,-0.268
28.886,-0.145,-0.951,-0.268
28.896,-0.143,-0.947,-0.264
28.906,-0.143,-0.953,-0.266
28.916,-0.145,-0.951,-0.266
28.926,-0.143,-0.947,-0.266
28.936,-0.139,-0.955,-0.270
28.945,-0.141,-0.951,-0.266
28.955,-0.141,-0.951,-0.271
28.965,-0.139,-0.951,-0.268
28.975,-0.139,-0.951,-0.270
28.985,-0.137,-0.949,-0.271
28.995,-0.141,-0.951,-0.271
29.005,-0.141,-0.949,-0.266
29.015,-0.137,-0.947,-0.268
29.025,-0.139,-0.947,-0.264
29.035,-0.141,-0.947,-0.268
29.045,-0.141,-0.947,-0.264
29.055,-0.139,-0.953,-0.270
29.065,-0.139,-0.957,-0.268
29.075,-0.137,-0.959,-0.271
29.084,-0.137,-0.955,-0.271
29.094,-0.137,-0.955,-0.273
29.104,-0.137,-0.953,-0.268
29.114,-0.139,-0.947,-0.270
29.124,-0.139,-0.949,-0.271
29.134,-0.141,-0.947,-0.270
29.144,-0.139,-0.947,-0.271
29.154,-0.137,-0.945,-0.270
29.164,-0.141,-0.947,-0.271
29.174,-0.143,-0.947,-0.268
29.184,-0.145,-0.945,-0.262
29.194,-0.148,-0.947,-0.262
29.204,-0.148,-0.953,-0.268
29.214,-0.148,-0.961,-0.275
29.223,-0.148,-0.957,-0.275
29.233,-0.146,-0.957,-0.268
29.243,-0.145,-0.955,-0.270
29.253,-0.141,-0.951,-0.270
29.263,-0.141,-0.945,-0.268
29.273,-0.145,-0.947,-0.270
29.283,-0.145,-0.943,-0.268
29.293,-0.146,-0.947,-0.270
29.303,-0.145,-0.947,-0.264
29.313,-0.145,-0.947,-0.266
29.323,-0.145,-0.951,-0.268
29.333,-0.145,-0.949,-0.270
29.343,-0.141,-0.953,-0.270
29.353,-0.141,-0.955,-0.268
29.362,-0.141,-0.955,-0.268
29.372,-0.141,-0.955,-0.275
29.382,-0.143,-0.955,-0.273
29.392,-0.143,-0.951,-0.271
29.402,-0.141,-0.947,-0.268
29.412,-0.139,-0.949,-0.271
29.422,-0.137,-0.951,-0.270
29.432,-0.139,-0.945,-0.264
29.442,-0.145,-0.949,-0.268
29.452,-0.145,-0.953,-0.273
29.462,-0.145,-0.955,-0.275
29.472,-0.146,-0.957,-0.271
29.482,-0.146,-0.951,-0.266
29.492,-0.143,-0.949,-0.270
29.502,-0.145,-0.955,-0.271
29.511,-0.141,-0.951,-0.270
29.521,-0.145,-0.951,-0.271
29.531,-0.145,-0.945,-0.270
29.541,-0.141,-0.949,-0.273
29.551,-0.139,-0.945,-0.271
29.561,-0.139,-0.943,-0.270
29.571,-0.141,-0.943,-0.270
29.581,-0.139,-0.947,-0.271
29.591,-0.139,-0.951,-0.275
29.601,-0.141,-0.951,-0.275
29.611,-0.143,-0.955,-0.275
29.621,-0.143,-0.953,-0.273
29.631,-0.139,-0.951,-0.275
29.641,-0.145,-0.949,-0.268
29.650,-0.143,-0.945,-0.268
29.660,-0.143,-0.947,-0.266
29.670,-0.143,-0.947,-0.270
29.680,-0.143,-0.951,-0.264
29.690,-0.145,-0.951,-0.268
29.700,-0.143,-0.949,-0.270
29.710,-0.139,-0.949,-0.268
29.720,-0.141,-0.953,-0.268
29.730,-0.141,-0.957,-0.273
29.740,-0.141,-0.955,-0.273
29.750,-0.143,-0.959,-0.271
29.760,-0.141,-0.957,-0.271
29.770,-0.143,-0.957,-0.270
29.780,-0.143,-0.953,-0.270
29.789,-0.146,-0.949,-0.264
29.799,-0.146,-0.949,-0.268
29.809,-0.145,-0.949,-0.270
29.819,-0.143,-0.945,-0.270
29.829,-0.139,-0.945,-0.273
29.839,-0.137,-0.947,-0.271
29.849,-0.141,-0.945,-0.268
29.859,-0.141,-0.947,-0.268
29.869,-0.143,-0.945,-0.264
29.879,-0.143,-0.951,-0.275
29.889,-0.146,-0.959,-0.281
29.899,-0.143,-0.959,-0.275
29.909,-0.145,-0.953,-0.271
29.919,-0.143,-0.951,-0.271
29.928,-0.143,-0.949,-0.266
29.938,-0.146,-0.947,-0.268
29.948,-0.146,-0.949,-0.270
29.958,-0.146,-0.951,-0.270
29.968,-0.150,-0.953,-0.270
29.978,-0.146,-0.951,-0.268
29.988,-0.143,-0.951,-0.273
29.998,-0.145,-0.951,-0.273
30.008,-0.139,-0.953,-0.271
30.018,-0.145,-0.945,-0.271
30.028,-0.143,-0.947,-0.270
30.038,-0.146,-0.949,-0.270
30.048,-0.141,-0.951,-0.270
30.058,-0.145,-0.949,-0.270
30.067,-0.145,-0.947,-0.270
30.077,-0.139,-0.945,-0.268
30.087,-0.133,-0.945,-0.270
30.097,-0.139,-0.945,-0.275
30.107,-0.143,-0.939,-0.271
30.117,-0.145,-0.939,-0.268
30.127,-0.146,-0.943,-0.268
30.137,-0.150,-0.951,-0.275
30.147,-0.152,-0.953,-0.271
30.157,-0.150,-0.957,-0.270
30.167,-0.150,-0.959,-0.271
30.177,-0.152,-0.959,-0.270
30.187,-0.152,-0.955,-0.268
30.197,-0.148,-0.951,-0.270
30.207,-0.150,-0.953,-0.268
30.216,-0.150,-0.951,-0.273
30.226,-0.146,-0.945,-0.268
30.236,-0.143,-0.953,-0.279
30.246,-0.145,-0.953,-0.271
30.256,-0.146,-0.951,-0.270
30.266,-0.143,-0.949,-0.275
30.276,-0.141,-0.949,-0.271
30.286,-0.145,-0.949,-0.270
30.296,-0.146,-0.947,-0.271
30.306,-0.143,-0.947,-0.270
30.316,-0.145,-0.949,-0.270
30.326,-0.145,-0.947,-0.268
30.336,-0.146,-0.949,-0.266
30.346,-0.141,-0.949,-0.264
30.355,-0.150,-0.947,-0.262
30.365,-0.145,-0.949,-0.270
30.375,-0.145,-0.953,-0.271
30.385,-0.143,-0.955,-0.266
30.395,-0.143,-0.951,-0.264
30.405,-0.141,-0.949,-0.270
30.415,-0.141,-0.957,-0.271
30.425,-0.143,-0.959,-0.270
30.435,-0.143,-0.955,-0.268
30.445,-0.148,-0.953,-0.266
30.455,-0.150,-0.955,-0.264
30.465,-0.152,-0.955,-0.264
30.475,-0.150,-0.951,-0.266
30.485,-0.148,-0.955,-0.264
30.494,-0.152,-0.953,-0.262
30.504,-0.156,-0.947,-0.262
30.514,-0.152,-0.951,-0.260
30.524,-0.152,-0.945,-0.266
30.534,-0.139,-0.951,-0.273
30.544,-0.143,-0.945,-0.266
30.554,-0.146,-0.943,-0.262
30.564,-0.148,-0.945,-0.260
30.574,-0.152,-0.951,-0.262
30.584,-0.148,-0.953,-0.268
30.594,-0.148,-0.959,-0.271
30.604,-0.152,-0.957,-0.268
30.614,-0.152,-0.955,-0.264
30.624,-0.150,-0.949,-0.262
30.633,-0.146,-0.949,-0.262
30.643,-0.146,-0.945,-0.266
30.653,-0.145,-0.949,-0.262
30.663,-0.146,-0.949,-0.264
30.673,-0.146,-0.953,-0.262
30.683,-0.148,-0.955,-0.266
30.693,-0.145,-0.957,-0.266
30.703,-0.143,-0.957,-0.268
30.713,-0.143,-0.957,-0.270
30.723,-0.141,-0.955,-0.266
30.733,-0.139,-0.953,-0.270
30.743,-0.137,-0.951,-0.266
30.753,-0.135,-0.951,-0.266
30.763,-0.137,-0.947,-0.266
30.772,-0.135,-0.947,-0.270
30.782,-0.135,-0.951,-0.266
30.792,-0.137,-0.951,-0.264
30.802,-0.137,-0.951,-0.266
30.812,-0.141,-0.949,-0.258
30.822,-0.143,-0.951,-0.260
30.832,-0.137,-0.955,-0.264
30.842,-0.141,-0.959,-0.268
30.852,-0.145,-0.959,-0.271
30.862,-0.141,-0.959,-0.266
30.872,-0.141,-0.953,-0.266
30.882,-0.141,-0.951,-0.266
30.892,-0.139,-0.945,-0.266
30.902,-0.141,-0.945,-0.266
30.912,-0.141,-0.947,-0.264
30.921,-0.145,-0.947,-0.264
30.931,-0.146,-0.947,-0.264
30.941,-0.145,-0.949,-0.262
30.951,-0.145,-0.953,-0.266
30.961,-0.146,-0.955,-0.266
30.971,-0.146,-0.957,-0.262
30.981,-0.143,-0.955,-0.266
30.991,-0.141,-0.955,-0.266
31.001,-0.139,-0.955,-0.264
31.011,-0.135,-0.949,-0.264
31.021,-0.137,-0.947,-0.266
31.031,-0.135,-0.949,-0.262
31.041,-0.133,-0.949,-0.264
31.051,-0.135,-0.947,-0.262
31.060,-0.139,-0.953,-0.262
31.070,-0.137,-0.955,-0.262
31.080,-0.141,-0.957,-0.260
31.090,-0.143,-0.961,-0.264
31.100,-0.139,-0.959,-0.266
31.110,-0.139,-0.961,-0.268
31.120,-0.139,-0.961,-0.264
31.130,-0.143,-0.955,-0.262
31.140,-0.139,-0.955,-0.264
31.150,-0.137,-0.949,-0.262
31.160,-0.133,-0.953,-0.270
31.170,-0.131,-0.949,-0.266
31.180,-0.137,-0.949,-0.264
31.190,-0.137,-0.947,-0.266
31.199,-0.143,-0.949,-0.264
31.209,-0.145,-0.953,-0.262
31.219,-0.146,-0.959,-0.270
31.229,-0.150,-0.961,-0.271
31.239,-0.152,-0.957,-0.270
31.249,-0.152,-0.955,-0.264
31.259,-0.150,-0.947,-0.268
31.269,-0.148,-0.945,-0.266
31.279,-0.150,-0.941,-0.262
31.289,-0.152,-0.943,-0.262
31.299,-0.152,-0.943,-0.262
31.309,-0.150,-0.947,-0.264
31.319,-0.150,-0.949,-0.264
31.329,-0.146,-0.945,-0.264
31.338,-0.146,-0.953,-0.264
31.348,-0.141,-0.953,-0.270
31.358,-0.141,-0.949,-0.271
31.368,-0.137,-0.951,-0.270
31.378,-0.137,-0.949,-0.270
31.388,-0.135,-0.949,-0.268
31.398,-0.139,-0.945,-0.264
31.408,-0.139,-0.947,-0.266
31.418,-0.135,-0.947,-0.266
31.428,-0.137,-0.951,-0.266
31.438,-0.139,-0.953,-0.270
31.448,-0.141,-0.955,-0.266
31.458,-0.141,-0.955,-0.264
31.468,-0.139,-0.957,-0.270
31.477,-0.139,-0.957,-0.266
31.487,-0.139,-0.957,-0.270
31.497,-0.137,-0.955,-0.271
31.507,-0.137,-0.949,-0.268
31.517,-0.137,-0.951,-0.270
31.527,-0.137,-0.949,-0.270
31.537,-0.137,-0.947,-0.271
31.547,-0.139,-0.949,-0.271
31.557,-0.141,-0.945,-0.266
31.567,-0.143,-0.947,-0.268
31.577,-0.145,-0.949,-0.266
31.587,-0.146,-0.949,-0.266
31.597,-0.141,-0.949,-0.266
31.607,-0.141,-0.947,-0.266
31.617,-0.143,-0.953,-0.264
31.626,-0.143,-0.953,-0.270
31.636,-0.139,-0.953,-0.266
31.646,-0.141,-0.953,-0.270
31.656,-0.143,-0.953,-0.268
31.666,-0.139,-0.953,-0.266
31.676,-0.141,-0.951,-0.264
31.686,-0.137,-0.951,-0.264
31.696,-0.139,-0.949,-0.266
31.706,-0.139,-0.953,-0.264
31.716,-0.141,-0.951,-0.262
31.726,-0.145,-0.953,-0.264
31.736,-0.145,-0.953,-0.264
31.746,-0.141,-0.951,-0.270
31.756,-0.135,-0.951,-0.268
31.765,-0.135,-0.949,-0.270
31.775,-0.139,-0.949,-0.270
31.785,-0.141,-0.945,-0.264
31.795,-0.141,-0.945,-0.264
31.805,-0.145,-0.953,-0.270
31.815,-0.145,-0.955,-0.271
31.825,-0.148,-0.957,-0.271
31.835,-0.150,-0.949,-0.268
31.845,-0.148,-0.949,-0.264
31.855,-0.148,-0.953,-0.264
31.865,-0.146,-0.949,-0.264
31.875,-0.148,-0.949,-0.260
31.885,-0.148,-0.953,-0.258
31.895,-0.150,-0.951,-0.260
31.904,-0.150,-0.953,-0.260
31.914,-0.145,-0.957,-0.266
31.924,-0.143,-0.959,-0.268
31.934,-0.141,-0.957,-0.266
31.944,-0.139,-0.957,-0.271
31.954,-0.133,-0.957,-0.268
31.964,-0.135,-0.953,-0.271
31.974,-0.139,-0.953,-0.271
31.984,-0.137,-0.949,-0.270
31.994,-0.137,-0.947,-0.270
32.004,-0.141,-0.945,-0.270
32.014,-0.139,-0.947,-0.273
32.024,-0.145,-0.947,-0.273
32.034,-0.145,-0.945,-0.266
32.043,-0.148,-0.945,-0.264
32.053,-0.152,-0.947,-0.266
32.063,-0.154,-0.951,-0.268
32.073,-0.156,-0.953,-0.271
32.083,-0.152,-0.955,-0.273
32.093,-0.152,-0.951,-0.270
32.103,-0.150,-0.951,-0.271
32.113,-0.148,-0.947,-0.271
32.123,-0.148,-0.945,-0.268
32.133,-0.148,-0.947,-0.266
32.143,-0.145,-0.947,-0.266
32.153,-0.145,-0.951,-0.266
32.163,-0.146,-0.951,-0.266
32.173,-0.143,-0.949,-0.266
32.182,-0.141,-0.957,-0.270
32.192,-0.141,-0.957,-0.268
32.202,-0.135,-0.955,-0.266
32.212,-0.133,-0.955,-0.270
32.222,-0.135,-0.955,-0.270
32.232,-0.135,-0.953,-0.264
32.242,-0.137,-0.949,-0.264
32.252,-0.135,-0.951,-0.266
32.262,-0.139,-0.951,-0.266
32.272,-0.137,-0.951,-0.262
32.282,-0.133,-0.957,-0.271
32.292,-0.135,-0.955,-0.268
32.302,-0.133,-0.955,-0.268
32.312,-0.133,-0.951,-0.268
32.322,-0.135,-0.951,-0.268
32.331,-0.133,-0.949,-0.266
32.341,-0.133,-0.949,-0.271
32.351,-0.129,-0.947,-0.270
32.361,-0.131,-0.949,-0.268
32.371,-0.137,-0.949,-0.266
32.381,-0.141,-0.951,-0.268
32.391,-0.141,-0.953,-0.268
32.401,-0.141,-0.959,-0.271
32.411,-0.141,-0.961,-0.271
32.421,-0.146,-0.957,-0.268
32.431,-0.143,-0.957,-0.270
32.441,-0.145,-0.955,-0.270
32.451,-0.145,-0.953,-0.270
32.461,-0.146,-0.949,-0.268
32.470,-0.145,-0.951,-0.270
32.480,-0.146,-0.949,-0.264
32.490,-0.145,-0.945,-0.266
32.500,-0.145,-0.947,-0.268
32.510,-0.145,-0.945,-0.268
32.520,-0.143,-0.945,-0.268
32.530,-0.141,-0.947,-0.275
32.540,-0.139,-0.945,-0.268
32.550,-0.141,-0.947,-0.268
32.560,-0.143,-0.947,-0.270
32.570,-0.146,-0.949,-0.262
32.580,-0.141,-0.947,-0.266
32.590,-0.141,-0.947,-0.268
32.600,-0.139,-0.949,-0.268
32.609,-0.139,-0.951,-0.266
32.619,-0.137,-0.951,-0.262
32.629,-0.137,-0.953,-0.266
32.639,-0.137,-0.955,-0.266
32.649,-0.137,-0.959,-0.268
32.659,-0.139,-0.959,-0.264
32.669,-0.135,-0.959,-0.270
32.679,-0.133,-0.957,-0.270
32.689,-0.133,-0.955,-0.266
32.699,-0.135,-0.953,-0.268
32.709,-0.131,-0.951,-0.266
32.719,-0.133,-0.955,-0.266
32.729,-0.135,-0.955,-0.268
32.739,-0.133,-0.955,-0.268
32.748,-0.133,-0.951,-0.266
32.758,-0.133,-0.953,-0.268
32.768,-0.133,-0.951,-0.271
32.778,-0.137,-0.947,-0.270
32.788,-0.135,-0.949,-0.270
32.798,-0.139,-0.949,-0.268
32.808,-0.139,-0.947,-0.264
32.818,-0.139,-0.945,-0.262
32.828,-0.139,-0.945,-0.264
32.838,-0.141,-0.947,-0.262
32.848,-0.141,-0.949,-0.264
32.858,-0.141,-0.955,-0.266
32.868,-0.141,-0.953,-0.268
32.878,-0.137,-0.955,-0.266
32.888,-0.133,-0.959,-0.268
32.897,-0.137,-0.957,-0.266
32.907,-0.139,-0.953,-0.262
32.917,-0.139,-0.951,-0.258
32.927,-0.139,-0.955,-0.262
32.937,-0.141,-0.953,-0.262
32.947,-0.135,-0.953,-0.266
32.957,-0.129,-0.955,-0.270
32.967,-0.133,-0.953,-0.270
32.977,-0.133,-0.951,-0.266
32.987,-0.137,-0.949,-0.262
32.997,-0.139,-0.953,-0.266
33.007,-0.141,-0.955,-0.273
33.017,-0.145,-0.961,-0.273
33.027,-0.146,-0.955,-0.268
33.036,-0.150,-0.951,-0.266
33.046,-0.148,-0.951,-0.262
33.056,-0.148,-0.949,-0.264
33.066,-0.152,-0.949,-0.264
33.076,-0.152,-0.947,-0.264
33.086,-0.152,-0.947,-0.262
33.096,-0.148,-0.949,-0.266
33.106,-0.148,-0.949,-0.266
33.116,-0.148,-0.947,-0.266
33.126,-0.145,-0.949,-0.266
33.136,-0.143,-0.951,-0.266
33.146,-0.143,-0.949,-0.268
33.156,-0.143,-0.951,-0.268
33.166,-0.141,-0.949,-0.266
33.175,-0.141,-0.951,-0.264
33.185,-0.139,-0.949,-0.264
33.195,-0.139,-0.947,-0.264
33.205,-0.137,-0.949,-0.266
33.215,-0.137,-0.953,-0.266
33.225,-0.135,-0.955,-0.264
33.235,-0.133,-0.953,-0.268
33.245,-0.135,-0.953,-0.266
33.255,-0.137,-0.957,-0.266
33.265,-0.133,-0.957,-0.266
33.275,-0.133,-0.955,-0.264
33.285,-0.133,-0.953,-0.264
33.295,-0.135,-0.953,-0.264
33.305,-0.133,-0.955,-0.268
33.314,-0.129,-0.955,-0.270
33.324,-0.131,-0.957,-0.266
33.334,-0.131,-0.953,-0.268
33.344,-0.127,-0.955,-0.268
33.354,-0.131,-0.949,-0.268
33.364,-0.135,-0.949,-0.264
33.374,-0.131,-0.947,-0.262
33.384,-0.133,-0.951,-0.262
33.394,-0.133,-0.949,-0.266
33.404,-0.135,-0.951,-0.266
33.414,-0.135,-0.955,-0.266
33.424,-0.137,-0.955,-0.268
33.434,-0.137,-0.953,-0.264
33.444,-0.137,-0.955,-0.268
33.453,-0.139,-0.951,-0.266
33.463,-0.139,-0.949,-0.270
33.473,-0.139,-0.947,-0.264
33.483,-0.141,-0.947,-0.264
33.493,-0.141,-0.945,-0.266
33.503,-0.143,-0.951,-0.268
33.513,-0.141,-0.951,-0.266
33.523,-0.145,-0.955,-0.266
33.533,-0.146,-0.953,-0.264
33.543,-0.148,-0.957,-0.266
33.553,-0.146,-0.955,-0.268
33.563,-0.148,-0.953,-0.266
33.573,-0.145,-0.951,-0.262
33.583,-0.145,-0.951,-0.262
33.593,-0.148,-0.947,-0.264
33.602,-0.148,-0.951,-0.266
33.612,-0.146,-0.949,-0.266
33.622,-0.141,-0.949,-0.271
33.632,-0.139,-0.949,-0.268
33.642,-0.141,-0.951,-0.266
33.652,-0.143,-0.947,-0.260
33.662,-0.143,-0.945,-0.262
33.672,-0.145,-0.955,-0.270
33.682,-0.143,-0.961,-0.273
33.692,-0.143,-0.961,-0.275
33.702,-0.145,-0.957,-0.271
33.712,-0.139,-0.953,-0.266
33.722,-0.143,-0.949,-0.266
33.732,-0.145,-0.949,-0.264
33.741,-0.143,-0.951,-0.266
33.751,-0.145,-0.949,-0.264
33.761,-0.150,-0.949,-0.264
33.771,-0.148,-0.951,-0.262
33.781,-0.146,-0.951,-0.270
33.791,-0.145,-0.953,-0.268
33.801,-0.145,-0.955,-0.266
33.811,-0.139,-0.951,-0.268
33.821,-0.141,-0.947,-0.266
33.831,-0.141,-0.947,-0.264
33.841,-0.141,-0.947,-0.264
33.851,-0.143,-0.947,-0.264
33.861,-0.143,-0.947,-0.266
33.871,-0.143,-0.951,-0.264
33.880,-0.139,-0.957,-0.264
33.890,-0.139,-0.959,-0.271
33.900,-0.135,-0.953,-0.270
33.910,-0.137,-0.951,-0.268
33.920,-0.139,-0.951,-0.264
33.930,-0.141,-0.955,-0.268
33.940,-0.143,-0.957,-0.270
33.950,-0.141,-0.955,-0.270
33.960,-0.141,-0.955,-0.266
33.970,-0.141,-0.955,-0.266
33.980,-0.139,-0.953,-0.266
33.990,-0.141,-0.949,-0.262
34.000,-0.141,-0.949,-0.260
34.010,-0.143,-0.947,-0.264
34.019,-0.141,-0.947,-0.260
34.029,-0.139,-0.953,-0.264
34.039,-0.135,-0.953,-0.266
34.049,-0.137,-0.953,-0.266
34.059,-0.135,-0.955,-0.264
34.069,-0.135,-0.953,-0.264
34.079,-0.135,-0.953,-0.268
34.089,-0.135,-0.953,-0.264
34.099,-0.135,-0.953,-0.262
34.109,-0.135,-0.955,-0.262
34.119,-0.135,-0.953,-0.260
34.129,-0.137,-0.953,-0.258
34.139,-0.139,-0.953,-0.262
34.149,-0.137,-0.953,-0.262
34.158,-0.135,-0.953,-0.266
34.168,-0.135,-0.955,-0.264
34.178,-0.139,-0.953,-0.262
34.188,-0.141,-0.951,-0.262
34.198,-0.139,-0.951,-0.256
34.208,-0.141,-0.951,-0.262
34.218,-0.141,-0.951,-0.260
34.228,-0.141,-0.953,-0.262
34.238,-0.141,-0.957,-0.262
34.248,-0.145,-0.955,-0.258
34.258,-0.145,-0.951,-0.256
34.268,-0.141,-0.953,-0.260
34.278,-0.139,-0.955,-0.262
34.288,-0.141,-0.955,-0.262
34.298,-0.145,-0.959,-0.260
34.307,-0.143,-0.955,-0.262
34.317,-0.143,-0.959,-0.260
34.327,-0.145,-0.955,-0.258
34.337,-0.143,-0.951,-0.258
34.347,-0.141,-0.953,-0.260
34.357,-0.139,-0.953,-0.264
34.367,-0.143,-0.957,-0.254
34.377,-0.145,-0.951,-0.254
34.387,-0.137,-0.947,-0.254
34.397,-0.137,-0.947,-0.262
34.407,-0.131,-0.953,-0.260
34.417,-0.131,-0.947,-0.262
34.427,-0.133,-0.951,-0.256
34.437,-0.137,-0.951,-0.250
34.446,-0.141,-0.953,-0.256
34.456,-0.137,-0.965,-0.264
34.466,-0.139,-0.969,-0.270
34.476,-0.139,-0.967,-0.264
34.486,-0.135,-0.961,-0.262
34.496,-0.133,-0.953,-0.260
34.506,-0.131,-0.945,-0.256
34.516,-0.135,-0.945,-0.254
34.526,-0.137,-0.943,-0.252
34.536,-0.137,-0.947,-0.256
34.546,-0.143,-0.953,-0.258
34.556,-0.141,-0.955,-0.262
34.566,-0.143,-0.957,-0.260
34.576,-0.143,-0.957,-0.258
34.585,-0.139,-0.953,-0.262
34.595,-0.137,-0.955,-0.260
34.605,-0.133,-0.953,-0.262
34.615,-0.137,-0.953,-0.260
34.625,-0.137,-0.949,-0.258
34.635,-0.133,-0.951,-0.264
34.645,-0.135,-0.949,-0.262
34.655,-0.137,-0.949,-0.262
34.665,-0.131,-0.955,-0.268
34.675,-0.135,-0.949,-0.262
34.685,-0.135,-0.951,-0.264
34.695,-0.135,-0.955,-0.258
34.705,-0.137,-0.955,-0.264
34.715,-0.135,-0.957,-0.264
34.724,-0.137,-0.955,-0.264
34.734,-0.137,-0.955,-0.262
34.744,-0.139,-0.951,-0.262
34.754,-0.137,-0.953,-0.262
34.764,-0.135,-0.951,-0.262
34.774,-0.135,-0.953,-0.260
34.784,-0.135,-0.951,-0.260
34.794,-0.133,-0.955,-0.262
34.804,-0.133,-0.959,-0.266
34.814,-0.131,-0.957,-0.268
34.824,-0.133,-0.953,-0.266
34.834,-0.135,-0.957,-0.266
34.844,-0.133,-0.953,-0.264
34.854,-0.133,-0.955,-0.268
34.863,-0.129,-0.951,-0.264
34.873,-0.139,-0.945,-0.260
34.883,-0.133,-0.949,-0.262
34.893,-0.135,-0.951,-0.264
34.903,-0.137,-0.949,-0.262
34.913,-0.139,-0.951,-0.260
34.923,-0.135,-0.953,-0.264
34.933,-0.135,-0.951,-0.264
34.943,-0.133,-0.951,-0.266
34.953,-0.135,-0.951,-0.264
34.963,-0.135,-0.953,-0.268
34.973,-0.135,-0.955,-0.266
34.983,-0.139,-0.953,-0.262
34.993,-0.135,-0.955,-0.262
35.003,-0.139,-0.953,-0.262
35.012,-0.139,-0.951,-0.262
35.022,-0.141,-0.953,-0.256
35.032,-0.145,-0.953,-0.258
35.042,-0.143,-0.959,-0.260
35.052,-0.139,-0.959,-0.260
35.062,-0.137,-0.955,-0.270
35.072,-0.129,-0.953,-0.264
35.082,-0.129,-0.949,-0.270
35.092,-0.125,-0.947,-0.268
35.102,-0.129,-0.949,-0.268
35.112,-0.131,-0.947,-0.268
35.122,-0.129,-0.951,-0.275
35.132,-0.135,-0.953,-0.271
35.142,-0.135,-0.957,-0.273
35.151,-0.137,-0.955,-0.270
35.161,-0.139,-0.951,-0.262
35.171,-0.139,-0.955,-0.262
35.181,-0.141,-0.951,-0.264
35.191,-0.139,-0.953,-0.264
35.201,-0.143,-0.951,-0.266
35.211,-0.141,-0.953,-0.262
35.221,-0.141,-0.951,-0.262
35.231,-0.141,-0.953,-0.264
35.241,-0.133,-0.953,-0.266
35.251,-0.137,-0.949,-0.266
35.261,-0.135,-0.949,-0.268
35.271,-0.131,-0.949,-0.268
35.281,-0.127,-0.955,-0.270
35.290,-0.131,-0.955,-0.270
35.300,-0.135,-0.953,-0.266
35.310,-0.133,-0.955,-0.266
35.320,-0.129,-0.955,-0.268
35.330,-0.129,-0.955,-0.271
35.340,-0.131,-0.953,-0.270
35.350,-0.131,-0.953,-0.271
35.360,-0.131,-0.949,-0.264
35.370,-0.133,-0.953,-0.264
35.380,-0.135,-0.951,-0.268
35.390,-0.135,-0.953,-0.264
35.400,-0.137,-0.955,-0.266
35.410,-0.139,-0.955,-0.266
35.420,-0.137,-0.957,-0.270
35.429,-0.137,-0.955,-0.268
35.439,-0.133,-0.955,-0.270
35.449,-0.135,-0.953,-0.271
35.459,-0.131,-0.945,-0.266
35.469,-0.127,-0.945,-0.266
35.479,-0.129,-0.947,-0.264
35.489,-0.129,-0.947,-0.262
35.499,-0.129,-0.953,-0.271
35.509,-0.129,-0.955,-0.270
35.519,-0.129,-0.957,-0.271
35.529,-0.129,-0.961,-0.281
35.539,-0.127,-0.963,-0.277
35.549,-0.125,-0.959,-0.277
35.559,-0.131,-0.951,-0.271
35.568,-0.133,-0.949,-0.266
35.578,-0.137,-0.945,-0.270
35.588,-0.137,-0.945,-0.266
35.598,-0.137,-0.941,-0.262
35.608,-0.135,-0.945,-0.268
35.618,-0.131,-0.949,-0.273
35.628,-0.135,-0.955,-0.270
35.638,-0.135,-0.959,-0.271
35.648,-0.129,-0.961,-0.277
35.658,-0.127,-0.961,-0.279
35.668,-0.131,-0.953,-0.277
35.678,-0.125,-0.955,-0.281
35.688,-0.127,-0.955,-0.283
35.698,-0.127,-0.955,-0.287
35.708,-0.121,-0.953,-0.291
35.717,-0.125,-0.947,-0.287
35.727,-0.125,-0.932,-0.279
35.737,-0.129,-0.924,-0.275
35.747,-0.127,-0.928,-0.277
35.757,-0.129,-0.936,-0.281
35.767,-0.133,-0.932,-0.277
35.777,-0.133,-0.936,-0.281
35.787,-0.133,-0.945,-0.285
35.797,-0.135,-0.947,-0.281
35.807,-0.137,-0.945,-0.285
35.817,-0.127,-0.947,-0.287
35.827,-0.127,-0.943,-0.281
35.837,-0.125,-0.945,-0.281
35.847,-0.129,-0.945,-0.285
35.856,-0.127,-0.949,-0.279
35.866,-0.131,-0.945,-0.275
35.876,-0.133,-0.943,-0.266
35.886,-0.133,-0.943,-0.266
35.896,-0.131,-0.945,-0.270
35.906,-0.131,-0.949,-0.270
35.916,-0.131,-0.957,-0.273
35.926,-0.127,-0.957,-0.273
35.936,-0.125,-0.959,-0.275
35.946,-0.125,-0.953,-0.273
35.956,-0.125,-0.949,-0.271
35.966,-0.127,-0.951,-0.268
35.976,-0.125,-0.951,-0.268
35.986,-0.125,-0.951,-0.268
35.995,-0.121,-0.953,-0.266
36.005,-0.123,-0.953,-0.271
36.015,-0.127,-0.953,-0.264
36.025,-0.131,-0.955,-0.262
36.035,-0.131,-0.955,-0.262
36.045,-0.131,-0.957,-0.262
36.055,-0.133,-0.963,-0.268
36.065,-0.133,-0.967,-0.266
36.075,-0.135,-0.963,-0.268
36.085,-0.133,-0.961,-0.266
36.095,-0.127,-0.955,-0.264
36.105,-0.127,-0.955,-0.266
36.115,-0.123,-0.957,-0.262
36.125,-0.125,-0.951,-0.264
36.134,-0.129,-0.949,-0.262
36.144,-0.127,-0.953,-0.264
36.154,-0.125,-0.953,-0.266
36.164,-0.125,-0.955,-0.266
36.174,-0.125,-0.957,-0.270
36.184,-0.127,-0.957,-0.271
36.194,-0.127,-0.957,-0.268
36.204,-0.129,-0.957,-0.268
36.214,-0.129,-0.957,-0.270
36.224,-0.129,-0.953,-0.271
36.234,-0.133,-0.953,-0.266
36.244,-0.131,-0.947,-0.271
36.254,-0.129,-0.949,-0.271
36.264,-0.129,-0.949,-0.275
36.273,-0.127,-0.949,-0.279
36.283,-0.129,-0.947,-0.277
36.293,-0.127,-0.947,-0.271
36.303,-0.129,-0.947,-0.271
36.313,-0.129,-0.945,-0.271
36.323,-0.135,-0.947,-0.271
36.333,-0.137,-0.951,-0.277
36.343,-0.135,-0.953,-0.275
36.353,-0.137,-0.955,-0.275
36.363,-0.137,-0.953,-0.277
36.373,-0.137,-0.951,-0.277
36.383,-0.135,-0.953,-0.273
36.393,-0.133,-0.949,-0.271
36.403,-0.133,-0.949,-0.275
36.413,-0.129,-0.951,-0.277
36.422,-0.133,-0.949,-0.279
36.432,-0.129,-0.947,-0.281
36.442,-0.125,-0.943,-0.279
36.452,-0.127,-0.939,-0.277
36.462,-0.129,-0.939,-0.279
36.472,-0.131,-0.936,-0.271
36.482,-0.129,-0.939,-0.273
36.492,-0.125,-0.953,-0.283
36.502,-0.127,-0.957,-0.287
36.512,-0.131,-0.959,-0.285
36.522,-0.131,-0.957,-0.285
36.532,-0.127,-0.955,-0.285
36.542,-0.129,-0.951,-0.285
36.552,-0.129,-0.945,-0.285
36.561,-0.127,-0.941,-0.285
36.571,-0.133,-0.941,-0.283
36.581,-0.129,-0.939,-0.281
36.591,-0.131,-0.941,-0.283
36.601,-0.129,-0.943,-0.283
36.611,-0.129,-0.945,-0.285
36.621,-0.127,-0.945,-0.283
36.631,-0.135,-0.943,-0.283
36.641,-0.131,-0.945,-0.287
36.651,-0.131,-0.947,-0.285
36.661,-0.133,-0.949,-0.281
36.671,-0.135,-0.947,-0.281
36.681,-0.129,-0.945,-0.287
36.691,-0.127,-0.943,-0.287
36.700,-0.123,-0.945,-0.283
36.710,-0.125,-0.943,-0.289
36.720,-0.125,-0.943,-0.285
36.730,-0.131,-0.939,-0.281
36.740,-0.133,-0.941,-0.273
36.750,-0.131,-0.945,-0.279
36.760,-0.133,-0.953,-0.279
36.770,-0.137,-0.953,-0.281
36.780,-0.135,-0.957,-0.281
36.790,-0.135,-0.953,-0.279
36.800,-0.133,-0.949,-0.279
36.810,-0.133,-0.947,-0.277
36.820,-0.131,-0.945,-0.271
36.830,-0.133,-0.943,-0.273
36.839,-0.131,-0.947,-0.275
36.849,-0.133,-0.951,-0.273
36.859,-0.133,-0.947,-0.279
36.869,-0.133,-0.949,-0.275
36.879,-0.135,-0.949,-0.273
36.889,-0.133,-0.949,-0.273
36.899,-0.131,-0.955,-0.277
36.909,-0.129,-0.955,-0.277
36.919,-0.127,-0.957,-0.275
36.929,-0.127,-0.957,-0.281
36.939,-0.129,-0.949,-0.277
36.949,-0.131,-0.949,-0.273
36.959,-0.131,-0.945,-0.271
36.969,-0.133,-0.945,-0.271
36.978,-0.133,-0.947,-0.270
36.988,-0.133,-0.945,-0.271
36.998,-0.131,-0.949,-0.275
37.008,-0.131,-0.951,-0.275
37.018,-0.131,-0.953,-0.275
37.028,-0.133,-0.951,-0.277
37.038,-0.127,-0.947,-0.277
37.048,-0.131,-0.951,-0.279
37.058,-0.129,-0.951,-0.275
37.068,-0.133,-0.951,-0.275
37.078,-0.135,-0.949,-0.277
37.088,-0.131,-0.949,-0.277
37.098,-0.137,-0.951,-0.273
37.108,-0.133,-0.947,-0.275
37.118,-0.133,-0.955,-0.277
37.127,-0.131,-0.951,-0.273
37.137,-0.133,-0.951,-0.273
37.147,-0.133,-0.949,-0.279
37.157,-0.131,-0.945,-0.275
37.167,-0.125,-0.947,-0.281
37.177,-0.125,-0.945,-0.283
37.187,-0.121,-0.947,-0.275
37.197,-0.125,-0.943,-0.275
37.207,-0.129,-0.941,-0.273
37.217,-0.131,-0.945,-0.275
37.227,-0.131,-0.953,-0.281
37.237,-0.135,-0.955,-0.281
37.247,-0.135,-0.951,-0.275
37.257,-0.137,-0.955,-0.271
37.266,-0.137,-0.951,-0.271
37.276,-0.137,-0.949,-0.273
37.286,-0.135,-0.947,-0.271
37.296,-0.133,-0.947,-0.273
37.306,-0.135,-0.949,-0.271
37.316,-0.131,-0.947,-0.273
37.326,-0.133,-0.949,-0.275
37.336,-0.133,-0.945,-0.275
37.346,-0.133,-0.947,-0.271
37.356,-0.135,-0.945,-0.268
37.366,-0.131,-0.949,-0.271
37.376,-0.133,-0.953,-0.271
37.386,-0.135,-0.953,-0.271
37.396,-0.137,-0.951,-0.270
37.405,-0.137,-0.951,-0.270
37.415,-0.137,-0.951,-0.270
37.425,-0.131,-0.953,-0.275
37.435,-0.127,-0.953,-0.271
37.445,-0.131,-0.953,-0.271
37.455,-0.129,-0.953,-0.271
37.465,-0.133,-0.949,-0.270
37.475,-0.133,-0.949,-0.271
37.485,-0.131,-0.949,-0.270
37.495,-0.137,-0.951,-0.271
37.505,-0.137,-0.951,-0.270
37.515,-0.137,-0.951,-0.268
37.525,-0.135,-0.953,-0.271
37.535,-0.135,-0.955,-0.271
37.544,-0.137,-0.953,-0.271
37.554,-0.137,-0.949,-0.270
37.564,-0.137,-0.947,-0.270
37.574,-0.135,-0.953,-0.271
37.584,-0.133,-0.953,-0.268
37.594,-0.133,-0.949,-0.271
37.604,-0.129,-0.953,-0.271
37.614,-0.131,-0.951,-0.271
37.624,-0.133,-0.947,-0.271
37.634,-0.131,-0.947,-0.273
37.644,-0.133,-0.949,-0.268
37.654,-0.131,-0.951,-0.268
37.664,-0.133,-0.949,-0.266
37.674,-0.135,-0.949,-0.266
37.683,-0.135,-0.951,-0.266
37.693,-0.131,-0.951,-0.266
37.703,-0.131,-0.951,-0.268
37.713,-0.129,-0.953,-0.268
37.723,-0.131,-0.949,-0.266
37.733,-0.129,-0.947,-0.266
37.743,-0.131,-0.953,-0.264
37.753,-0.129,-0.951,-0.266
37.763,-0.133,-0.959,-0.266
37.773,-0.135,-0.965,-0.270
37.783,-0.135,-0.965,-0.273
37.793,-0.131,-0.953,-0.270
37.803,-0.135,-0.955,-0.270
37.813,-0.135,-0.949,-0.266
37.823,-0.135,-0.949,-0.264
37.832,-0.139,-0.949,-0.262
37.842,-0.143,-0.945,-0.262
37.852,-0.137,-0.945,-0.264
37.862,-0.135,-0.953,-0.277
37.872,-0.131,-0.953,-0.270
37.882,-0.129,-0.947,-0.271
37.892,-0.129,-0.947,-0.271
37.902,-0.125,-0.949,-0.268
37.912,-0.135,-0.951,-0.268
37.922,-0.135,-0.957,-0.268
37.932,-0.137,-0.961,-0.275
37.942,-0.139,-0.961,-0.277
37.952,-0.137,-0.957,-0.271
37.962,-0.133,-0.953,-0.266
37.971,-0.133,-0.947,-0.268
37.981,-0.131,-0.945,-0.270
37.991,-0.129,-0.945,-0.270
38.001,-0.131,-0.945,-0.271
38.011,-0.137,-0.951,-0.270
38.021,-0.135,-0.947,-0.268
38.031,-0.137,-0.947,-0.268
38.041,-0.139,-0.951,-0.268
38.051,-0.137,-0.953,-0.270
38.061,-0.135,-0.951,-0.270
38.071,-0.137,-0.951,-0.268
38.081,-0.135,-0.953,-0.273
38.091,-0.135,-0.953,-0.270
38.101,-0.135,-0.951,-0.270
38.110,-0.135,-0.951,-0.275
38.120,-0.129,-0.951,-0.273
38.130,-0.129,-0.949,-0.271
38.140,-0.131,-0.949,-0.271
38.150,-0.131,-0.945,-0.268
38.160,-0.135,-0.949,-0.270
38.170,-0.133,-0.953,-0.273
38.180,-0.133,-0.953,-0.273
38.190,-0.135,-0.953,-0.273
38.200,-0.133,-0.951,-0.271
38.210,-0.131,-0.949,-0.271
38.220,-0.133,-0.947,-0.270
38.230,-0.133,-0.951,-0.273
38.240,-0.133,-0.951,-0.271
38.249,-0.137,-0.949,-0.271
38.259,-0.135,-0.951,-0.271
38.269,-0.133,-0.947,-0.273
38.279,-0.133,-0.947,-0.270
38.289,-0.133,-0.949,-0.273
38.299,-0.131,-0.951,-0.273
38.309,-0.133,-0.951,-0.271
38.319,-0.133,-0.947,-0.270
38.329,-0.131,-0.947,-0.270
38.339,-0.135,-0.947,-0.271
38.349,-0.131,-0.951,-0.273
38.359,-0.133,-0.951,-0.273
38.369,-0.133,-0.949,-0.271
38.379,-0.133,-0.951,-0.273
38.388,-0.129,-0.951,-0.275
38.398,-0.129,-0.949,-0.275
38.408,-0.127,-0.947,-0.275
38.418,-0.129,-0.951,-0.275
38.428,-0.133,-0.951,-0.270
38.438,-0.131,-0.951,-0.271
38.448,-0.133,-0.951,-0.271
38.458,-0.135,-0.953,-0.273
38.468,-0.137,-0.951,-0.268
38.478,-0.139,-0.949,-0.268
38.488,-0.139,-0.951,-0.271
38.498,-0.135,-0.947,-0.273
38.508,-0.135,-0.949,-0.277
38.518,-0.129,-0.943,-0.273
38.528,-0.129,-0.943,-0.277
38.537,-0.127,-0.941,-0.271
38.547,-0.133,-0.943,-0.270
38.557,-0.135,-0.945,-0.271
38.567,-0.137,-0.951,-0.277
38.577,-0.139,-0.957,-0.275
38.587,-0.141,-0.961,-0.279
38.597,-0.141,-0.957,-0.277
38.607,-0.139,-0.955,-0.275
38.617,-0.135,-0.955,-0.275
38.627,-0.139,-0.951,-0.275
38.637,-0.139,-0.951,-0.271
38.647,-0.139,-0.949,-0.271
38.657,-0.141,-0.949,-0.273
38.667,-0.141,-0.947,-0.273
38.676,-0.143,-0.947,-0.270
38.686,-0.145,-0.945,-0.271
38.696,-0.141,-0.945,-0.275
38.706,-0.137,-0.947,-0.271
38.716,-0.137,-0.945,-0.275
38.726,-0.141,-0.947,-0.270
38.736,-0.139,-0.951,-0.275
38.746,-0.137,-0.947,-0.273
38.756,-0.141,-0.949,-0.271
38.766,-0.133,-0.949,-0.279
38.776,-0.133,-0.951,-0.277
38.786,-0.133,-0.951,-0.275
38.796,-0.135,-0.949,-0.273
38.806,-0.135,-0.947,-0.273
38.815,-0.135,-0.947,-0.275
38.825,-0.141,-0.947,-0.270
38.835,-0.143,-0.945,-0.268
38.845,-0.143,-0.951,-0.275
38.855,-0.137,-0.957,-0.277
38.865,-0.141,-0.957,-0.277
38.875,-0.137,-0.955,-0.275
38.885,-0.133,-0.947,-0.277
38.895,-0.131,-0.945,-0.273
38.905,-0.131,-0.947,-0.277
38.915,-0.131,-0.949,-0.273
38.925,-0.131,-0.947,-0.275
38.935,-0.131,-0.949,-0.275
38.945,-0.135,-0.945,-0.268
38.954,-0.137,-0.945,-0.268
38.964,-0.137,-0.951,-0.275
38.974,-0.133,-0.955,-0.273
38.984,-0.135,-0.953,-0.275
38.994,-0.133,-0.953,-0.279
39.004,-0.131,-0.953,-0.279
39.014,-0.131,-0.951,-0.273
39.024,-0.135,-0.947,-0.268
39.034,-0.131,-0.945,-0.275
39.044,-0.129,-0.949,-0.277
39.054,-0.135,-0.951,-0.273
39.064,-0.133,-0.951,-0.275
39.074,-0.135,-0.947,-0.273
39.084,-0.137,-0.949,-0.273
39.093,-0.137,-0.951,-0.270
39.103,-0.137,-0.955,-0.273
39.113,-0.137,-0.953,-0.273
39.123,-0.139,-0.949,-0.273
39.133,-0.141,-0.951,-0.266
39.143,-0.139,-0.949,-0.270
39.153,-0.141,-0.949,-0.275
39.163,-0.143,-0.951,-0.273
39.173,-0.133,-0.949,-0.279
39.183,-0.131,-0.947,-0.279
39.193,-0.131,-0.947,-0.271
39.203,-0.137,-0.945,-0.273
39.213,-0.139,-0.943,-0.268
39.223,-0.137,-0.947,-0.273
39.233,-0.139,-0.955,-0.277
39.242,-0.143,-0.955,-0.275
39.252,-0.141,-0.957,-0.273
39.262,-0.135,-0.955,-0.275
39.272,-0.137,-0.951,-0.273
39.282,-0.137,-0.951,-0.275
39.292,-0.137,-0.947,-0.281
39.302,-0.139,-0.947,-0.271
39.312,-0.141,-0.945,-0.273
39.322,-0.143,-0.947,-0.271
39.332,-0.139,-0.947,-0.271
39.342,-0.139,-0.951,-0.271
39.352,-0.139,-0.947,-0.275
39.362,-0.141,-0.945,-0.273
39.372,-0.141,-0.951,-0.273
39.381,-0.137,-0.955,-0.275
39.391,-0.137,-0.951,-0.273
39.401,-0.137,-0.951,-0.277
39.411,-0.139,-0.947,-0.275
39.421,-0.139,-0.947,-0.271
39.431,-0.135,-0.947,-0.281
39.441,-0.139,-0.947,-0.275
39.451,-0.133,-0.945,-0.275
39.461,-0.137,-0.943,-0.271
39.471,-0.139,-0.947,-0.271
39.481,-0.137,-0.949,-0.273
39.491,-0.139,-0.953,-0.281
39.501,-0.139,-0.951,-0.279
39.511,-0.137,-0.953,-0.275
39.520,-0.137,-0.949,-0.277
39.530,-0.135,-0.951,-0.271
39.540,-0.135,-0.949,-0.277
39.550,-0.135,-0.943,-0.275
39.560,-0.133,-0.947,-0.277
39.570,-0.133,-0.947,-0.275
39.580,-0.131,-0.943,-0.273
39.590,-0.131,-0.947,-0.277
39.600,-0.129,-0.943,-0.273
39.610,-0.131,-0.951,-0.279
39.620,-0.131,-0.947,-0.281
39.630,-0.129,-0.951,-0.281
39.640,-0.129,-0.949,-0.281
39.650,-0.129,-0.949,-0.277
39.659,-0.135,-0.949,-0.279
39.669,-0.135,-0.947,-0.277
39.679,-0.131,-0.945,-0.277
39.689,-0.131,-0.945,-0.277
39.699,-0.133,-0.943,-0.271
39.709,-0.135,-0.943,-0.273
39.719,-0.131,-0.945,-0.277
39.729,-0.135,-0.949,-0.275
39.739,-0.137,-0.945,-0.273
39.749,-0.133,-0.953,-0.277
39.759,-0.135,-0.955,-0.275
39.769,-0.135,-0.959,-0.279
39.779,-0.135,-0.957,-0.277
39.789,-0.135,-0.955,-0.277
39.799,-0.137,-0.951,-0.277
39.808,-0.135,-0.949,-0.273
39.818,-0.137,-0.949,-0.277
39.828,-0.135,-0.943,-0.275
39.838,-0.135,-0.938,-0.277
39.848,-0.133,-0.941,-0.275
39.858,-0.135,-0.943,-0.279
39.868,-0.143,-0.943,-0.271
39.878,-0.143,-0.945,-0.271
39.888,-0.143,-0.949,-0.281
39.898,-0.143,-0.955,-0.283
39.908,-0.143,-0.953,-0.277
39.918,-0.141,-0.949,-0.275
39.928,-0.141,-0.949,-0.275
39.938,-0.137,-0.947,-0.277
39.947,-0.139,-0.945,-0.277
39.957,-0.139,-0.945,-0.275
39.967,-0.139,-0.949,-0.281
39.977,-0.141,-0.943,-0.273
39.987,-0.143,-0.945,-0.271
39.997,-0.139,-0.945,-0.275
40.007,-0.135,-0.947,-0.277
40.017,-0.135,-0.947,-0.279
40.027,-0.137,-0.947,-0.275
40.037,-0.137,-0.951,-0.275
40.047,-0.137,-0.953,-0.279
40.057,-0.139,-0.949,-0.275
40.067,-0.137,-0.949,-0.275
40.077,-0.139,-0.947,-0.275
40.086,-0.141,-0.941,-0.275
40.096,-0.135,-0.945,-0.277
40.106,-0.133,-0.947,-0.285
40.116,-0.131,-0.947,-0.281
40.126,-0.135,-0.945,-0.277
40.136,-0.135,-0.943,-0.281
40.146,-0.139,-0.947,-0.279
40.156,-0.139,-0.947,-0.279
40.166,-0.135,-0.951,-0.275
40.176,-0.141,-0.947,-0.273
40.186,-0.141,-0.947,-0.273
40.196,-0.139,-0.947,-0.271
40.206,-0.135,-0.949,-0.273
40.216,-0.137,-0.953,-0.275
40.225,-0.133,-0.951,-0.277
40.235,-0.133,-0.953,-0.281
40.245,-0.131,-0.951,-0.279
40.255,-0.129,-0.951,-0.277
40.265,-0.129,-0.947,-0.273
40.275,-0.129,-0.941,-0.277
40.285,-0.131,-0.943,-0.279
40.295,-0.131,-0.945,-0.277
40.305,-0.135,-0.947,-0.273
40.315,-0.133,-0.949,-0.273
40.325,-0.133,-0.953,-0.277
40.335,-0.135,-0.953,-0.275
40.345,-0.135,-0.949,-0.277
40.355,-0.135,-0.951,-0.275
40.364,-0.135,-0.947,-0.275
40.374,-0.131,-0.951,-0.279
40.384,-0.133,-0.949,-0.277
40.394,-0.133,-0.947,-0.279
40.404,-0.133,-0.943,-0.275
40.414,-0.135,-0.945,-0.275
40.424,-0.135,-0.945,-0.279
40.434,-0.141,-0.945,-0.270
40.444,-0.143,-0.951,-0.273
40.454,-0.146,-0.949,-0.270
40.464,-0.145,-0.951,-0.271
40.474,-0.145,-0.955,-0.275
40.484,-0.143,-0.953,-0.273
40.494,-0.139,-0.953,-0.271
40.504,-0.139,-0.951,-0.271
40.513,-0.143,-0.953,-0.275
40.523,-0.137,-0.949,-0.277
40.533,-0.137,-0.943,-0.279
40.543,-0.131,-0.945,-0.281
40.553,-0.131,-0.939,-0.275
40.563,-0.135,-0.938,-0.268
40.573,-0.137,-0.943,-0.266
40.583,-0.141,-0.943,-0.266
40.593,-0.145,-0.951,-0.273
40.603,-0.143,-0.965,-0.281
40.613,-0.145,-0.965,-0.275
40.623,-0.141,-0.961,-0.275
40.633,-0.139,-0.957,-0.271
40.643,-0.137,-0.951,-0.273
40.652,-0.139,-0.947,-0.268
40.662,-0.141,-0.945,-0.268
40.672,-0.139,-0.945,-0.270
40.682,-0.139,-0.949,-0.270
40.692,-0.141,-0.949,-0.273
40.702,-0.141,-0.949,-0.270
40.712,-0.141,-0.951,-0.271
40.722,-0.137,-0.949,-0.271
40.732,-0.139,-0.949,-0.275
40.742,-0.137,-0.949,-0.271
40.752,-0.137,-0.947,-0.268
40.762,-0.141,-0.951,-0.271
40.772,-0.139,-0.953,-0.270
40.782,-0.133,-0.951,-0.271
40.791,-0.139,-0.953,-0.273
40.801,-0.137,-0.951,-0.275
40.811,-0.139,-0.951,-0.277
40.821,-0.133,-0.945,-0.271
40.831,-0.135,-0.947,-0.270
40.841,-0.135,-0.945,-0.273
40.851,-0.135,-0.953,-0.277
40.861,-0.135,-0.957,-0.277
40.871,-0.133,-0.955,-0.273
40.881,-0.137,-0.953,-0.271
40.891,-0.137,-0.951,-0.270
40.901,-0.137,-0.947,-0.270
40.911,-0.133,-0.947,-0.268
40.921,-0.139,-0.945,-0.270
40.930,-0.135,-0.947,-0.271
40.940,-0.133,-0.951,-0.273
40.950,-0.137,-0.951,-0.275
40.960,-0.133,-0.953,-0.271
40.970,-0.141,-0.951,-0.271
40.980,-0.133,-0.947,-0.273
40.990,-0.133,-0.953,-0.273
41.000,-0.137,-0.951,-0.270
41.010,-0.137,-0.949,-0.271
41.020,-0.135,-0.951,-0.271
41.030,-0.137,-0.951,-0.270
41.040,-0.137,-0.951,-0.270
41.050,-0.137,-0.949,-0.270
41.060,-0.137,-0.949,-0.268
41.069,-0.133,-0.947,-0.273
41.079,-0.137,-0.949,-0.268
41.089,-0.135,-0.953,-0.273
41.099,-0.137,-0.955,-0.275
41.109,-0.139,-0.953,-0.271
41.119,-0.141,-0.949,-0.266
41.129,-0.141,-0.949,-0.270
41.139,-0.141,-0.951,-0.270
41.149,-0.137,-0.947,-0.268
41.159,-0.143,-0.947,-0.260
41.169,-0.139,-0.951,-0.266
41.179,-0.141,-0.947,-0.268
41.189,-0.137,-0.951,-0.273
41.199,-0.137,-0.949,-0.273
41.209,-0.131,-0.945,-0.273
41.218,-0.127,-0.947,-0.275
41.228,-0.129,-0.949,-0.277
41.238,-0.137,-0.947,-0.266
41.248,-0.141,-0.951,-0.271
41.258,-0.141,-0.957,-0.277
41.268,-0.145,-0.955,-0.273
41.278,-0.143,-0.953,-0.270
41.288,-0.139,-0.951,-0.271
41.298,-0.139,-0.951,-0.273
41.308,-0.141,-0.947,-0.270
41.318,-0.141,-0.947,-0.270
41.328,-0.137,-0.949,-0.275
41.338,-0.137,-0.949,-0.275
41.348,-0.139,-0.949,-0.273
41.357,-0.139,-0.947,-0.275
41.367,-0.139,-0.943,-0.273
41.377,-0.141,-0.945,-0.273
41.387,-0.139,-0.943,-0.273
41.397,-0.137,-0.939,-0.275
41.407,-0.141,-0.939,-0.270
41.417,-0.141,-0.945,-0.271
41.427,-0.141,-0.945,-0.270
41.437,-0.141,-0.945,-0.275
41.447,-0.137,-0.953,-0.271
41.457,-0.137,-0.957,-0.275
41.467,-0.137,-0.953,-0.273
41.477,-0.141,-0.949,-0.270
41.487,-0.137,-0.951,-0.270
41.496,-0.137,-0.953,-0.270
41.506,-0.133,-0.953,-0.270
41.516,-0.139,-0.955,-0.270
41.526,-0.135,-0.953,-0.271
41.536,-0.135,-0.957,-0.273
41.546,-0.133,-0.953,-0.273
41.556,-0.135,-0.951,-0.270
41.566,-0.137,-0.949,-0.268
41.576,-0.135,-0.949,-0.270
41.586,-0.139,-0.949,-0.273
41.596,-0.137,-0.953,-0.273
41.606,-0.139,-0.949,-0.271
41.616,-0.139,-0.951,-0.271
41.626,-0.139,-0.949,-0.271
41.635,-0.139,-0.945,-0.270
41.645,-0.139,-0.943,-0.268
41.655,-0.139,-0.947,-0.268
41.665,-0.145,-0.945,-0.264
41.675,-0.141,-0.949,-0.264
41.685,-0.139,-0.949,-0.264
41.695,-0.137,-0.949,-0.266
41.705,-0.133,-0.951,-0.264
41.715,-0.135,-0.953,-0.270
41.725,-0.135,-0.953,-0.268
41.735,-0.133,-0.953,-0.268
41.745,-0.135,-0.951,-0.268
41.755,-0.133,-0.951,-0.268
41.765,-0.135,-0.949,-0.270
41.774,-0.137,-0.951,-0.264
41.784,-0.135,-0.955,-0.266
41.794,-0.137,-0.955,-0.268
41.804,-0.137,-0.957,-0.270
41.814,-0.135,-0.951,-0.273
41.824,-0.137,-0.947,-0.268
41.834,-0.131,-0.949,-0.268
41.844,-0.135,-0.945,-0.266
41.854,-0.141,-0.947,-0.264
41.864,-0.141,-0.951,-0.260
41.874,-0.143,-0.959,-0.266
41.884,-0.141,-0.963,-0.271
41.894,-0.145,-0.963,-0.268
41.904,-0.143,-0.961,-0.268
41.914,-0.139,-0.955,-0.266
41.923,-0.139,-0.957,-0.270
41.933,-0.141,-0.953,-0.264
41.943,-0.143,-0.953,-0.264
41.953,-0.143,-0.951,-0.266
41.963,-0.143,-0.949,-0.264
41.973,-0.143,-0.951,-0.264
41.983,-0.143,-0.955,-0.268
41.993,-0.139,-0.953,-0.264
42.003,-0.141,-0.951,-0.264
42.013,-0.137,-0.953,-0.268
42.023,-0.137,-0.955,-0.270
42.033,-0.137,-0.951,-0.268
42.043,-0.137,-0.951,-0.270
42.053,-0.137,-0.951,-0.268
42.062,-0.139,-0.947,-0.268
42.072,-0.133,-0.945,-0.264
42.082,-0.137,-0.947,-0.266
42.092,-0.135,-0.949,-0.270
42.102,-0.135,-0.951,-0.264
42.112,-0.139,-0.951,-0.266
42.122,-0.135,-0.955,-0.268
42.132,-0.135,-0.959,-0.273
42.142,-0.137,-0.957,-0.273
42.152,-0.137,-0.953,-0.273
42.162,-0.131,-0.953,-0.271
42.172,-0.133,-0.951,-0.270
42.182,-0.133,-0.947,-0.271
42.192,-0.129,-0.949,-0.271
42.201,-0.133,-0.951,-0.271
42.211,-0.133,-0.945,-0.273
42.221,-0.131,-0.945,-0.273
42.231,-0.137,-0.947,-0.271
42.241,-0.137,-0.947,-0.271
42.251,-0.131,-0.949,-0.268
42.261,-0.131,-0.949,-0.271
42.271,-0.131,-0.951,-0.270
42.281,-0.131,-0.953,-0.275
42.291,-0.131,-0.951,-0.273
42.301,-0.131,-0.951,-0.275
42.311,-0.129,-0.953,-0.271
42.321,-0.133,-0.947,-0.270
42.331,-0.129,-0.943,-0.266
42.340,-0.131,-0.943,-0.268
42.350,-0.133,-0.945,-0.262
42.360,-0.133,-0.947,-0.264
42.370,-0.135,-0.953,-0.266
42.380,-0.135,-0.959,-0.264
42.390,-0.135,-0.959,-0.268
42.400,-0.133,-0.957,-0.268
42.410,-0.131,-0.957,-0.270
42.420,-0.131,-0.953,-0.264
42.430,-0.133,-0.951,-0.264
42.440,-0.137,-0.953,-0.266
42.450,-0.139,-0.947,-0.266
42.460,-0.133,-0.949,-0.271
42.470,-0.131,-0.947,-0.268
42.479,-0.131,-0.949,-0.270
42.489,-0.131,-0.951,-0.268
42.499,-0.133,-0.947,-0.270
42.509,-0.131,-0.949,-0.271
42.519,-0.135,-0.955,-0.277
42.529,-0.133,-0.955,-0.279
42.539,-0.133,-0.951,-0.275
42.549,-0.133,-0.955,-0.268
42.559,-0.137,-0.953,-0.271
42.569,-0.139,-0.951,-0.268
42.579,-0.141,-0.947,-0.271
42.589,-0.143,-0.949,-0.266
42.599,-0.146,-0.949,-0.264
42.609,-0.146,-0.951,-0.268
42.619,-0.143,-0.953,-0.268
42.628,-0.139,-0.953,-0.270
42.638,-0.139,-0.953,-0.270
42.648,-0.139,-0.953,-0.271
42.658,-0.139,-0.953,-0.273
42.668,-0.139,-0.951,-0.271
42.678,-0.141,-0.949,-0.270
42.688,-0.139,-0.947,-0.270
42.698,-0.139,-0.947,-0.268
42.708,-0.141,-0.945,-0.270
42.718,-0.143,-0.949,-0.273
42.728,-0.141,-0.951,-0.271
42.738,-0.141,-0.951,-0.273
42.748,-0.141,-0.949,-0.270
42.758,-0.139,-0.951,-0.271
42.767,-0.143,-0.953,-0.271
42.777,-0.143,-0.953,-0.275
42.787,-0.143,-0.955,-0.273
42.797,-0.141,-0.957,-0.271
42.807,-0.141,-0.955,-0.270
42.817,-0.141,-0.953,-0.271
42.827,-0.137,-0.953,-0.275
42.837,-0.139,-0.949,-0.270
42.847,-0.141,-0.951,-0.273
42.857,-0.137,-0.949,-0.271
42.867,-0.137,-0.947,-0.271
42.877,-0.137,-0.945,-0.270
42.887,-0.133,-0.949,-0.275
42.897,-0.133,-0.951,-0.271
42.906,-0.135,-0.947,-0.273
42.916,-0.137,-0.947,-0.270
42.926,-0.133,-0.947,-0.271
42.936,-0.135,-0.949,-0.271
42.946,-0.133,-0.951,-0.273
42.956,-0.137,-0.949,-0.273
42.966,-0.133,-0.947,-0.273
42.976,-0.133,-0.951,-0.275
42.986,-0.129,-0.951,-0.281
42.996,-0.133,-0.949,-0.277
43.006,-0.129,-0.943,-0.270
43.016,-0.129,-0.943,-0.271
43.026,-0.131,-0.945,-0.273
43.036,-0.131,-0.951,-0.273
43.045,-0.133,-0.949,-0.273
43.055,-0.133,-0.955,-0.273
43.065,-0.141,-0.951,-0.273
43.075,-0.141,-0.955,-0.271
43.085,-0.141,-0.953,-0.277
43.095,-0.137,-0.953,-0.273
43.105,-0.137,-0.949,-0.270
43.115,-0.143,-0.947,-0.270
43.125,-0.141,-0.949,-0.275
43.135,-0.139,-0.951,-0.271
43.145,-0.137,-0.949,-0.273
43.155,-0.135,-0.941,-0.279
43.165,-0.133,-0.941,-0.273
43.175,-0.133,-0.943,-0.273
43.184,-0.139,-0.941,-0.270
43.194,-0.141,-0.943,-0.271
43.204,-0.137,-0.953,-0.277
43.214,-0.139,-0.959,-0.281
43.224,-0.139,-0.957,-0.279
43.234,-0.139,-0.955,-0.273
43.244,-0.139,-0.953,-0.273
43.254,-0.139,-0.949,-0.270
43.264,-0.135,-0.947,-0.271
43.274,-0.143,-0.947,-0.271
43.284,-0.141,-0.947,-0.270
43.294,-0.145,-0.945,-0.266
43.304,-0.146,-0.947,-0.270
43.314,-0.141,-0.947,-0.271
43.324,-0.141,-0.951,-0.273
43.333,-0.143,-0.953,-0.273
43.343,-0.137,-0.949,-0.271
43.353,-0.139,-0.953,-0.275
43.363,-0.137,-0.951,-0.275
43.373,-0.135,-0.951,-0.275
43.383,-0.137,-0.951,-0.273
43.393,-0.141,-0.943,-0.273
43.403,-0.139,-0.945,-0.273
43.413,-0.139,-0.947,-0.270
43.423,-0.137,-0.951,-0.275
43.433,-0.139,-0.953,-0.275
43.443,-0.141,-0.951,-0.273
43.453,-0.139,-0.951,-0.271
43.463,-0.139,-0.951,-0.275
43.472,-0.141,-0.951,-0.271
43.482,-0.139,-0.949,-0.270
43.492,-0.139,-0.947,-0.270
43.502,-0.145,-0.953,-0.271
43.512,-0.139,-0.955,-0.275
43.522,-0.137,-0.953,-0.275
43.532,-0.133,-0.953,-0.275
43.542,-0.133,-0.951,-0.277
43.552,-0.133,-0.951,-0.275
43.562,-0.135,-0.947,-0.277
43.572,-0.131,-0.943,-0.275
43.582,-0.133,-0.945,-0.273
43.592,-0.133,-0.943,-0.277
43.602,-0.135,-0.951,-0.275
43.611,-0.137,-0.949,-0.273
43.621,-0.137,-0.945,-0.271
43.631,-0.135,-0.949,-0.271
43.641,-0.133,-0.947,-0.273
43.651,-0.133,-0.949,-0.268
43.661,-0.135,-0.953,-0.271
43.671,-0.131,-0.949,-0.271
43.681,-0.131,-0.951,-0.271
43.691,-0.131,-0.953,-0.273
43.701,-0.127,-0.949,-0.271
43.711,-0.129,-0.951,-0.273
43.721,-0.123,-0.953,-0.273
43.731,-0.127,-0.953,-0.273
43.741,-0.125,-0.951,-0.271
43.750,-0.127,-0.953,-0.271
43.760,-0.133,-0.949,-0.271
43.770,-0.129,-0.949,-0.271
43.780,-0.129,-0.953,-0.271
43.790,-0.135,-0.953,-0.273
43.800,-0.133,-0.951,-0.270
43.810,-0.135,-0.951,-0.275
43.820,-0.135,-0.951,-0.273
43.830,-0.135,-0.953,-0.270
43.840,-0.137,-0.951,-0.268
43.850,-0.135,-0.951,-0.271
43.860,-0.133,-0.951,-0.268
43.870,-0.139,-0.949,-0.270
43.880,-0.137,-0.949,-0.270
43.889,-0.135,-0.949,-0.275
43.899,-0.129,-0.947,-0.275
43.909,-0.125,-0.943,-0.279
43.919,-0.125,-0.943,-0.275
43.929,-0.129,-0.943,-0.273
43.939,-0.133,-0.941,-0.268
43.949,-0.133,-0.945,-0.271
43.959,-0.135,-0.953,-0.275
43.969,-0.135,-0.959,-0.279
43.979,-0.141,-0.957,-0.275
43.989,-0.137,-0.957,-0.275
43.999,-0.135,-0.953,-0.275
44.009,-0.137,-0.953,-0.273
44.019,-0.135,-0.947,-0.268
44.029,-0.139,-0.951,-0.277
44.038,-0.137,-0.949,-0.275
44.048,-0.139,-0.943,-0.273
44.058,-0.139,-0.945,-0.271
44.068,-0.141,-0.943,-0.270
44.078,-0.141,-0.947,-0.268
44.088,-0.137,-0.947,-0.270
44.098,-0.143,-0.953,-0.273
44.108,-0.141,-0.957,-0.273
44.118,-0.143,-0.953,-0.271
44.128,-0.135,-0.953,-0.273
44.138,-0.137,-0.955,-0.277
44.148,-0.139,-0.947,-0.275
44.158,-0.137,-0.947,-0.275
44.168,-0.135,-0.943,-0.273
44.177,-0.135,-0.947,-0.279
44.187,-0.137,-0.945,-0.273
44.197,-0.141,-0.943,-0.273
44.207,-0.137,-0.945,-0.273
44.217,-0.139,-0.951,-0.275
44.227,-0.141,-0.949,-0.279
44.237,-0.143,-0.955,-0.277
44.247,-0.137,-0.953,-0.279
44.257,-0.139,-0.951,-0.277
44.267,-0.139,-0.947,-0.275
44.277,-0.137,-0.951,-0.273
44.287,-0.137,-0.947,-0.275
44.297,-0.137,-0.943,-0.271
44.307,-0.139,-0.945,-0.273
44.316,-0.137,-0.947,-0.273
44.326,-0.135,-0.949,-0.273
44.336,-0.135,-0.947,-0.277
44.346,-0.135,-0.949,-0.277
44.356,-0.135,-0.951,-0.279
44.366,-0.135,-0.949,-0.275
44.376,-0.131,-0.951,-0.275
44.386,-0.135,-0.947,-0.273
44.396,-0.133,-0.951,-0.273
44.406,-0.133,-0.951,-0.275
44.416,-0.137,-0.951,-0.275
44.426,-0.137,-0.949,-0.270
44.436,-0.135,-0.951,-0.273
44.446,-0.135,-0.947,-0.271
44.455,-0.131,-0.943,-0.271
44.465,-0.135,-0.947,-0.273
44.475,-0.137,-0.949,-0.271
44.485,-0.135,-0.947,-0.275
44.495,-0.135,-0.951,-0.271
44.505,-0.135,-0.951,-0.271
44.515,-0.135,-0.949,-0.275
44.525,-0.133,-0.951,-0.273
44.535,-0.135,-0.955,-0.271
44.545,-0.137,-0.953,-0.275
44.555,-0.135,-0.957,-0.273
44.565,-0.137,-0.953,-0.273
44.575,-0.135,-0.953,-0.271
44.585,-0.137,-0.955,-0.273
44.594,-0.137,-0.951,-0.273
44.604,-0.143,-0.947,-0.268
44.614,-0.139,-0.947,-0.264
44.624,-0.137,-0.949,-0.270
44.634,-0.137,-0.943,-0.268
44.644,-0.131,-0.949,-0.279
44.654,-0.131,-0.951,-0.275
44.664,-0.127,-0.949,-0.275
44.674,-0.125,-0.953,-0.273
44.684,-0.131,-0.951,-0.270
44.694,-0.135,-0.951,-0.271
44.704,-0.135,-0.957,-0.275
44.714,-0.135,-0.957,-0.277
44.724,-0.141,-0.955,-0.273
44.734,-0.137,-0.951,-0.277
44.743,-0.137,-0.947,-0.271
44.753,-0.135,-0.945,-0.275
44.763,-0.137,-0.941,-0.270
44.773,-0.137,-0.943,-0.271
44.783,-0.141,-0.945,-0.268
44.793,-0.145,-0.945,-0.268
44.803,-0.143,-0.943,-0.268
44.813,-0.141,-0.947,-0.271
44.823,-0.143,-0.949,-0.271
44.833,-0.141,-0.949,-0.273
44.843,-0.141,-0.947,-0.268
44.853,-0.135,-0.947,-0.268
44.863,-0.137,-0.947,-0.264
44.873,-0.135,-0.949,-0.266
44.882,-0.135,-0.951,-0.275
44.892,-0.133,-0.953,-0.273
44.902,-0.129,-0.953,-0.270
44.912,-0.123,-0.953,-0.271
44.922,-0.125,-0.951,-0.266
44.932,-0.127,-0.947,-0.262
44.942,-0.125,-0.951,-0.264
44.952,-0.125,-0.955,-0.270
44.962,-0.129,-0.957,-0.266
44.972,-0.125,-0.955,-0.268
44.982,-0.123,-0.959,-0.270
44.992,-0.125,-0.959,-0.270
45.002,-0.125,-0.951,-0.268
45.012,-0.121,-0.953,-0.266
45.021,-0.125,-0.949,-0.268
45.031,-0.127,-0.951,-0.271
45.041,-0.123,-0.953,-0.268
45.051,-0.125,-0.951,-0.270
45.061,-0.123,-0.953,-0.271
45.071,-0.125,-0.951,-0.271
45.081,-0.123,-0.955,-0.270
45.091,-0.123,-0.951,-0.270
45.101,-0.127,-0.953,-0.271
45.111,-0.125,-0.951,-0.270
45.121,-0.131,-0.949,-0.268
45.131,-0.131,-0.949,-0.262
45.141,-0.127,-0.949,-0.270
45.151,-0.125,-0.949,-0.266
45.160,-0.127,-0.947,-0.268
45.170,-0.125,-0.949,-0.268
45.180,-0.125,-0.949,-0.271
45.190,-0.125,-0.953,-0.271
45.200,-0.127,-0.959,-0.273
45.210,-0.129,-0.955,-0.273
45.220,-0.125,-0.957,-0.268
45.230,-0.127,-0.955,-0.273
45.240,-0.131,-0.955,-0.270
45.250,-0.129,-0.951,-0.270
45.260,-0.133,-0.951,-0.268
45.270,-0.135,-0.949,-0.266
45.280,-0.133,-0.943,-0.270
45.290,-0.131,-0.949,-0.271
45.300,-0.131,-0.947,-0.271
45.309,-0.127,-0.945,-0.271
45.319,-0.129,-0.945,-0.273
45.329,-0.129,-0.945,-0.275
45.339,-0.133,-0.947,-0.273
45.349,-0.137,-0.949,-0.268
45.359,-0.135,-0.955,-0.275
45.369,-0.137,-0.959,-0.281
45.379,-0.139,-0.959,-0.275
45.389,-0.137,-0.957,-0.277
45.399,-0.135,-0.951,-0.270
45.409,-0.135,-0.951,-0.271
45.419,-0.135,-0.949,-0.270
45.429,-0.133,-0.945,-0.270
45.439,-0.139,-0.949,-0.270
45.448,-0.137,-0.951,-0.273
45.458,-0.137,-0.953,-0.273
45.468,-0.139,-0.949,-0.271
45.478,-0.133,-0.951,-0.275
45.488,-0.135,-0.951,-0.277
45.498,-0.129,-0.949,-0.277
45.508,-0.131,-0.947,-0.277
45.518,-0.131,-0.947,-0.271
45.528,-0.131,-0.945,-0.273
45.538,-0.131,-0.949,-0.270
45.548,-0.133,-0.947,-0.277
45.558,-0.133,-0.947,-0.277
45.568,-0.133,-0.949,-0.279
45.578,-0.131,-0.951,-0.279
45.587,-0.133,-0.947,-0.273
45.597,-0.133,-0.945,-0.271
45.607,-0.133,-0.951,-0.273
45.617,-0.133,-0.949,-0.277
45.627,-0.137,-0.951,-0.273
45.637,-0.139,-0.951,-0.271
45.647,-0.135,-0.953,-0.275
45.657,-0.135,-0.947,-0.273
45.667,-0.135,-0.947,-0.273
45.677,-0.131,-0.947,-0.275
45.687,-0.131,-0.949,-0.275
45.697,-0.129,-0.947,-0.277
45.707,-0.129,-0.949,-0.275
45.717,-0.131,-0.949,-0.277
45.726,-0.131,-0.949,-0.275
45.736,-0.129,-0.947,-0.275
45.746,-0.131,-0.949,-0.270
45.756,-0.131,-0.945,-0.271
45.766,-0.129,-0.949,-0.271
45.776,-0.131,-0.951,-0.273
45.786,-0.131,-0.953,-0.273
45.796,-0.133,-0.951,-0.273
45.806,-0.131,-0.949,-0.273
45.816,-0.127,-0.945,-0.271
45.826,-0.125,-0.947,-0.275
45.836,-0.125,-0.947,-0.273
45.846,-0.129,-0.947,-0.270
45.856,-0.131,-0.949,-0.270
45.865,-0.135,-0.955,-0.273
45.875,-0.135,-0.955,-0.271
45.885,-0.135,-0.955,-0.275
45.895,-0.135,-0.959,-0.275
45.905,-0.135,-0.955,-0.275
45.915,-0.137,-0.953,-0.271
45.925,-0.137,-0.953,-0.277
45.935,-0.137,-0.949,-0.270
45.945,-0.135,-0.945,-0.273
45.955,-0.133,-0.939,-0.273
45.965,-0.131,-0.939,-0.275
45.975,-0.131,-0.943,-0.270
45.985,-0.133,-0.943,-0.270
45.995,-0.133,-0.947,-0.271
46.005,-0.139,-0.949,-0.275
46.014,-0.137,-0.959,-0.279
46.024,-0.137,-0.957,-0.281
46.034,-0.139,-0.957,-0.275
46.044,-0.135,-0.959,-0.275
46.054,-0.133,-0.953,-0.277
46.064,-0.139,-0.949,-0.271
46.074,-0.137,-0.949,-0.270
46.084,-0.137,-0.947,-0.273
46.094,-0.141,-0.949,-0.271
46.104,-0.139,-0.949,-0.273
46.114,-0.139,-0.947,-0.271
46.124,-0.137,-0.947,-0.273
46.134,-0.137,-0.943,-0.270
46.144,-0.137,-0.945,-0.271
46.153,-0.137,-0.945,-0.273
46.163,-0.135,-0.951,-0.273
46.173,-0.141,-0.951,-0.271
46.183,-0.137,-0.951,-0.273
46.193,-0.139,-0.951,-0.275
46.203,-0.135,-0.953,-0.279
46.213,-0.135,-0.949,-0.275
46.223,-0.133,-0.949,-0.277
46.233,-0.131,-0.945,-0.279
46.243,-0.131,-0.947,-0.273
46.253,-0.133,-0.945,-0.273
46.263,-0.135,-0.947,-0.275
46.273,-0.133,-0.953,-0.275
46.283,-0.133,-0.953,-0.279
46.292,-0.133,-0.951,-0.277
46.302,-0.133,-0.949,-0.273
46.312,-0.131,-0.951,-0.273
46.322,-0.131,-0.949,-0.273
46.332,-0.131,-0.949,-0.277
46.342,-0.129,-0.951,-0.279
46.352,-0.131,-0.947,-0.277
46.362,-0.129,-0.943,-0.275
46.372,-0.129,-0.945,-0.275
46.382,-0.127,-0.945,-0.275
46.392,-0.131,-0.943,-0.271
46.402,-0.133,-0.947,-0.275
46.412,-0.129,-0.947,-0.275
46.422,-0.129,-0.953,-0.273
46.431,-0.135,-0.953,-0.273
46.441,-0.133,-0.949,-0.275
46.451,-0.131,-0.949,-0.275
46.461,-0.131,-0.949,-0.273
46.471,-0.133,-0.949,-0.277
46.481,-0.131,-0.947,-0.273
46.491,-0.129,-0.945,-0.273
46.501,-0.131,-0.947,-0.275
46.511,-0.129,-0.947,-0.277
46.521,-0.131,-0.951,-0.273
46.531,-0.135,-0.951,-0.271
46.541,-0.135,-0.953,-0.277
46.551,-0.133,-0.957,-0.275
46.561,-0.137,-0.953,-0.273
46.570,-0.137,-0.949,-0.277
46.580,-0.137,-0.951,-0.273
46.590,-0.139,-0.951,-0.270
46.600,-0.137,-0.947,-0.273
46.610,-0.137,-0.953,-0.277
46.620,-0.137,-0.949,-0.275
46.630,-0.137,-0.945,-0.279
46.640,-0.129,-0.945,-0.277
46.650,-0.131,-0.943,-0.277
46.660,-0.133,-0.943,-0.279
46.670,-0.135,-0.939,-0.273
46.680,-0.139,-0.941,-0.277
46.690,-0.135,-0.949,-0.283
46.700,-0.137,-0.957,-0.281
46.710,-0.137,-0.955,-0.283
46.719,-0.135,-0.953,-0.283
46.729,-0.135,-0.951,-0.279
46.739,-0.135,-0.949,-0.279
46.749,-0.135,-0.943,-0.273
46.759,-0.139,-0.941,-0.275
46.769,-0.139,-0.943,-0.277
46.779,-0.139,-0.943,-0.277
46.789,-0.141,-0.945,-0.275
46.799,-0.137,-0.947,-0.279
46.809,-0.137,-0.945,-0.279
46.819,-0.135,-0.945,-0.281
46.829,-0.131,-0.949,-0.281
46.839,-0.131,-0.949,-0.279
46.849,-0.133,-0.945,-0.279
46.858,-0.133,-0.949,-0.281
46.868,-0.133,-0.947,-0.277
46.878,-0.139,-0.947,-0.275
46.888,-0.135,-0.947,-0.283
46.898,-0.133,-0.947,-0.279
46.908,-0.135,-0.947,-0.283
46.918,-0.131,-0.945,-0.279
46.928,-0.131,-0.947,-0.279
46.938,-0.133,-0.949,-0.273
46.948,-0.137,-0.949,-0.277
46.958,-0.135,-0.951,-0.277
46.968,-0.135,-0.955,-0.279
46.978,-0.131,-0.951,-0.277
46.988,-0.133,-0.949,-0.275
46.997,-0.129,-0.949,-0.279
47.007,-0.131,-0.949,-0.281
47.017,-0.133,-0.949,-0.279
47.027,-0.131,-0.945,-0.279
47.037,-0.133,-0.941,-0.277
47.047,-0.129,-0.943,-0.275
47.057,-0.129,-0.943,-0.277
47.067,-0.133,-0.943,-0.275
47.077,-0.131,-0.945,-0.275
47.087,-0.131,-0.951,-0.279
47.097,-0.135,-0.953,-0.281
47.107,-0.135,-0.951,-0.277
47.117,-0.135,-0.949,-0.279
47.127,-0.133,-0.951,-0.273
47.136,-0.133,-0.945,-0.273
47.146,-0.133,-0.947,-0.273
47.156,-0.133,-0.945,-0.271
47.166,-0.129,-0.945,-0.279
47.176,-0.129,-0.947,-0.273
47.186,-0.131,-0.949,-0.275
47.196,-0.131,-0.951,-0.279
47.206,-0.133,-0.951,-0.281
47.216,-0.133,-0.953,-0.279
47.226,-0.129,-0.949,-0.279
47.236,-0.131,-0.951,-0.275
47.246,-0.135,-0.945,-0.275
47.256,-0.133,-0.947,-0.273
47.266,-0.135,-0.947,-0.275
47.275,-0.139,-0.949,-0.273
47.285,-0.137,-0.951,-0.273
47.295,-0.143,-0.951,-0.273
47.305,-0.137,-0.953,-0.273
47.315,-0.139,-0.953,-0.279
47.325,-0.135,-0.953,-0.277
47.335,-0.133,-0.953,-0.279
47.345,-0.135,-0.945,-0.271
47.355,-0.131,-0.947,-0.277
47.365,-0.135,-0.947,-0.275
47.375,-0.133,-0.943,-0.277
47.385,-0.131,-0.943,-0.281
47.395,-0.127,-0.945,-0.277
47.405,-0.131,-0.941,-0.277
47.415,-0.133,-0.941,-0.271
47.424,-0.135,-0.945,-0.270
