df_hash,22ZHK4.88EAKA
device,HZ2X61
project_hash,29R7
project_name,istanbul_aydin_university
person_hash,29R7.DTCA
person_label,V13
date_time_start,2025-05-22_10-55-11.049000_+03
date_time_start_unix,1747900511.049
date_time_end,2025-05-22_11-00-22.404000_+03
length_difference_noticed,no

time,acc_x,acc_y,acc_z
4.629,-0.445,0.861,0.006
4.639,-0.420,0.850,-0.004
4.649,-0.381,0.850,-0.014
4.659,-0.340,0.852,-0.004
4.669,-0.318,0.879,0.010
4.679,-0.307,0.906,0.006
4.689,-0.309,0.918,0.002
4.699,-0.342,0.934,0.002
4.709,-0.350,0.922,-0.037
4.718,-0.320,0.971,0.000
4.728,-0.303,0.988,0.025
4.738,-0.256,1.004,0.021
4.748,-0.252,0.975,0.025
4.758,-0.289,0.953,0.000
4.768,-0.301,0.957,0.000
4.778,-0.322,0.957,0.004
4.788,-0.326,0.965,0.010
4.798,-0.320,0.975,0.021
4.808,-0.283,0.977,0.018
4.818,-0.242,0.961,0.027
4.828,-0.246,0.953,0.039
4.838,-0.287,0.863,-0.012
4.847,-0.320,0.859,-0.043
4.857,-0.330,0.895,0.004
4.867,-0.369,0.900,-0.010
4.877,-0.359,0.973,0.006
4.887,-0.332,1.021,0.031
4.897,-0.332,1.010,0.004
4.907,-0.342,1.002,-0.014
4.917,-0.342,1.002,-0.014
4.927,-0.350,0.971,-0.033
4.937,-0.361,0.941,-0.035
4.947,-0.363,0.922,-0.027
4.957,-0.379,0.895,-0.021
4.967,-0.348,0.885,-0.020
4.976,-0.342,0.887,0.004
4.986,-0.344,0.887,0.000
4.996,-0.363,0.891,-0.004
5.006,-0.391,0.902,-0.012
5.016,-0.410,0.904,-0.021
5.026,-0.430,0.908,-0.023
5.036,-0.455,0.900,-0.029
5.046,-0.467,0.893,-0.031
5.056,-0.496,0.908,-0.025
5.066,-0.512,0.910,-0.029
5.076,-0.516,0.904,-0.031
5.086,-0.500,0.924,-0.025
5.095,-0.490,0.904,-0.027
5.105,-0.463,0.887,-0.031
5.115,-0.439,0.875,-0.029
5.125,-0.428,0.857,-0.031
5.135,-0.430,0.830,-0.039
5.145,-0.414,0.830,-0.039
5.155,-0.428,0.850,-0.031
5.165,-0.453,0.865,-0.029
5.175,-0.463,0.893,-0.031
5.185,-0.486,0.896,-0.021
5.195,-0.494,0.893,-0.029
5.205,-0.498,0.902,-0.016
5.215,-0.502,0.896,-0.023
5.224,-0.486,0.893,-0.014
5.234,-0.469,0.883,-0.008
5.244,-0.473,0.871,-0.018
5.254,-0.443,0.861,-0.020
5.264,-0.445,0.834,-0.023
5.274,-0.441,0.830,-0.039
5.284,-0.438,0.832,-0.037
5.294,-0.469,0.834,-0.039
5.304,-0.484,0.859,-0.041
5.314,-0.480,0.867,-0.041
5.324,-0.492,0.877,-0.035
5.334,-0.502,0.898,-0.035
5.344,-0.516,0.895,-0.039
5.353,-0.496,0.902,-0.039
5.363,-0.477,0.891,-0.025
5.373,-0.475,0.885,-0.031
5.383,-0.467,0.873,-0.041
5.393,-0.459,0.861,-0.037
5.403,-0.469,0.848,-0.041
5.413,-0.490,0.832,-0.043
5.423,-0.512,0.846,-0.041
5.433,-0.482,0.840,-0.059
5.443,-0.461,0.857,-0.031
5.453,-0.453,0.863,-0.025
5.463,-0.434,0.863,-0.035
5.473,-0.420,0.859,-0.033
5.482,-0.457,0.850,-0.029
5.492,-0.457,0.877,-0.059
5.502,-0.453,0.861,-0.041
5.512,-0.484,0.879,-0.037
5.522,-0.482,0.885,-0.041
5.532,-0.484,0.889,-0.020
5.542,-0.492,0.879,-0.033
5.552,-0.484,0.879,-0.023
5.562,-0.488,0.879,-0.029
5.572,-0.486,0.873,-0.027
5.582,-0.502,0.867,-0.029
5.592,-0.492,0.855,-0.033
5.601,-0.482,0.863,-0.023
5.611,-0.480,0.871,-0.027
5.621,-0.480,0.873,-0.031
5.631,-0.477,0.865,-0.027
5.641,-0.490,0.873,-0.027
5.651,-0.479,0.891,-0.023
5.661,-0.463,0.900,-0.008
5.671,-0.465,0.908,-0.014
5.681,-0.461,0.906,-0.012
5.691,-0.451,0.900,-0.014
5.701,-0.447,0.893,-0.014
5.711,-0.449,0.889,-0.020
5.721,-0.447,0.889,-0.012
5.730,-0.436,0.889,-0.012
5.740,-0.414,0.893,-0.010
5.750,-0.422,0.896,-0.004
5.760,-0.426,0.883,-0.006
5.770,-0.424,0.879,-0.012
5.780,-0.426,0.875,-0.012
5.790,-0.432,0.865,-0.018
5.800,-0.443,0.861,-0.018
5.810,-0.436,0.875,-0.012
5.820,-0.439,0.879,-0.004
5.830,-0.451,0.889,0.004
5.840,-0.438,0.900,0.002
5.850,-0.441,0.889,-0.004
5.859,-0.439,0.887,-0.014
5.869,-0.428,0.895,-0.006
5.879,-0.422,0.900,-0.010
5.889,-0.414,0.885,-0.018
5.899,-0.398,0.873,-0.023
5.909,-0.385,0.871,-0.018
5.919,-0.383,0.875,-0.014
5.929,-0.400,0.867,-0.018
5.939,-0.416,0.871,-0.025
5.949,-0.441,0.873,-0.027
5.959,-0.455,0.879,-0.039
5.969,-0.443,0.887,-0.037
5.978,-0.434,0.887,-0.039
5.988,-0.445,0.904,-0.029
5.998,-0.436,0.926,-0.035
6.008,-0.416,0.926,-0.035
6.018,-0.416,0.943,-0.021
6.028,-0.430,0.943,-0.027
6.038,-0.422,0.938,-0.035
6.048,-0.441,0.936,-0.033
6.058,-0.445,0.939,-0.033
6.068,-0.434,0.930,-0.023
6.078,-0.424,0.912,-0.020
6.088,-0.410,0.912,-0.014
6.098,-0.391,0.885,-0.010
6.107,-0.400,0.854,-0.018
6.117,-0.418,0.844,-0.021
6.127,-0.426,0.857,-0.021
6.137,-0.434,0.865,-0.016
6.147,-0.443,0.865,-0.021
6.157,-0.445,0.885,-0.016
6.167,-0.457,0.904,-0.016
6.177,-0.453,0.916,-0.014
6.187,-0.438,0.914,-0.020
6.197,-0.457,0.916,-0.023
6.207,-0.463,0.910,-0.031
6.217,-0.457,0.891,-0.039
6.227,-0.455,0.875,-0.041
6.236,-0.447,0.871,-0.043
6.246,-0.426,0.855,-0.041
6.256,-0.406,0.844,-0.035
6.266,-0.408,0.830,-0.031
6.276,-0.402,0.830,-0.037
6.286,-0.416,0.840,-0.027
6.296,-0.422,0.875,-0.023
6.306,-0.430,0.904,-0.021
6.316,-0.432,0.920,-0.023
6.326,-0.447,0.926,-0.041
6.336,-0.457,0.930,-0.039
6.346,-0.475,0.906,-0.047
6.355,-0.494,0.900,-0.057
6.365,-0.496,0.906,-0.055
6.375,-0.508,0.916,-0.057
6.385,-0.492,0.922,-0.045
6.395,-0.451,0.896,-0.043
6.405,-0.428,0.865,-0.043
6.415,-0.391,0.836,-0.037
6.425,-0.396,0.814,-0.043
6.435,-0.406,0.832,-0.037
6.445,-0.416,0.840,-0.023
6.455,-0.443,0.852,-0.025
6.465,-0.447,0.887,-0.025
6.475,-0.465,0.916,-0.021
6.484,-0.473,0.922,-0.031
6.494,-0.449,0.939,-0.041
6.504,-0.465,0.912,-0.023
6.514,-0.451,0.910,-0.041
6.524,-0.441,0.881,-0.041
6.534,-0.445,0.891,-0.039
6.544,-0.457,0.854,-0.041
6.554,-0.443,0.871,-0.043
6.564,-0.439,0.863,-0.033
6.574,-0.451,0.855,-0.045
6.584,-0.449,0.850,-0.033
6.594,-0.455,0.846,-0.041
6.604,-0.459,0.854,-0.043
6.613,-0.449,0.844,-0.037
6.623,-0.465,0.826,-0.031
6.633,-0.488,0.832,-0.039
6.643,-0.496,0.846,-0.055
6.653,-0.469,0.871,-0.031
6.663,-0.480,0.885,-0.045
6.673,-0.492,0.914,-0.047
6.683,-0.484,0.914,-0.047
6.693,-0.469,0.906,-0.039
6.703,-0.465,0.902,-0.047
6.713,-0.453,0.900,-0.047
6.723,-0.436,0.893,-0.051
6.733,-0.436,0.877,-0.045
6.742,-0.441,0.877,-0.051
6.752,-0.432,0.877,-0.039
6.762,-0.430,0.871,-0.031
6.772,-0.441,0.871,-0.033
6.782,-0.443,0.873,-0.029
6.792,-0.445,0.863,-0.037
6.802,-0.453,0.869,-0.035
6.812,-0.461,0.865,-0.039
6.822,-0.475,0.863,-0.027
6.832,-0.463,0.906,-0.039
6.842,-0.484,0.914,-0.021
6.852,-0.488,0.918,-0.018
6.861,-0.475,0.920,-0.029
6.871,-0.447,0.914,-0.018
6.881,-0.451,0.883,-0.021
6.891,-0.438,0.867,-0.021
6.901,-0.430,0.846,-0.020
6.911,-0.422,0.852,-0.021
6.921,-0.428,0.850,-0.014
6.931,-0.428,0.850,-0.016
6.941,-0.439,0.846,0.002
6.951,-0.434,0.873,-0.008
6.961,-0.469,0.846,-0.023
6.971,-0.479,0.850,-0.023
6.981,-0.504,0.863,-0.029
6.990,-0.539,0.883,-0.014
7.000,-0.527,0.914,-0.023
7.010,-0.541,0.889,-0.008
7.020,-0.510,0.900,-0.012
7.030,-0.504,0.883,-0.012
7.040,-0.486,0.873,-0.010
7.050,-0.482,0.855,-0.016
7.060,-0.477,0.842,-0.020
7.070,-0.475,0.822,-0.020
7.080,-0.486,0.828,-0.023
7.090,-0.465,0.852,-0.020
7.100,-0.486,0.834,-0.014
7.110,-0.436,0.859,-0.010
7.119,-0.449,0.826,-0.020
7.129,-0.469,0.844,-0.020
7.139,-0.512,0.840,-0.023
7.149,-0.535,0.848,-0.025
7.159,-0.549,0.859,-0.035
7.169,-0.545,0.885,-0.020
7.179,-0.547,0.887,-0.021
7.189,-0.533,0.893,-0.010
7.199,-0.518,0.881,-0.021
7.209,-0.504,0.865,-0.004
7.219,-0.512,0.852,-0.020
7.229,-0.523,0.828,-0.010
7.238,-0.516,0.830,-0.016
7.248,-0.518,0.816,-0.004
7.258,-0.547,0.814,-0.020
7.268,-0.572,0.795,-0.016
7.278,-0.539,0.799,-0.014
7.288,-0.543,0.764,0.004
7.298,-0.562,0.773,-0.021
7.308,-0.586,0.775,-0.002
7.318,-0.629,0.775,-0.014
7.328,-0.621,0.801,-0.010
7.338,-0.648,0.785,-0.020
7.348,-0.629,0.812,-0.018
7.358,-0.641,0.783,-0.018
7.367,-0.643,0.783,-0.016
7.377,-0.648,0.779,-0.018
7.387,-0.660,0.760,-0.021
7.397,-0.641,0.771,-0.020
7.407,-0.660,0.744,-0.016
7.417,-0.676,0.742,-0.016
7.427,-0.680,0.744,0.004
7.437,-0.682,0.740,-0.004
7.447,-0.705,0.713,-0.014
7.457,-0.723,0.711,-0.014
7.467,-0.729,0.693,-0.010
7.477,-0.752,0.676,-0.025
7.487,-0.748,0.674,-0.021
7.496,-0.738,0.670,-0.020
7.506,-0.744,0.664,-0.008
7.516,-0.736,0.674,-0.004
7.526,-0.721,0.670,-0.002
7.536,-0.705,0.664,0.006
7.546,-0.732,0.635,-0.008
7.556,-0.770,0.633,-0.023
7.566,-0.793,0.627,-0.014
7.576,-0.787,0.625,-0.021
7.586,-0.783,0.621,-0.012
7.596,-0.770,0.609,-0.018
7.606,-0.744,0.605,-0.004
7.616,-0.748,0.596,0.002
7.625,-0.756,0.594,0.010
7.635,-0.777,0.570,0.010
7.645,-0.826,0.562,0.000
7.655,-0.855,0.568,-0.004
7.665,-0.848,0.557,-0.006
7.675,-0.850,0.537,-0.004
7.685,-0.842,0.523,-0.006
7.695,-0.863,0.486,-0.008
7.705,-0.875,0.480,-0.008
7.715,-0.869,0.479,0.000
7.725,-0.871,0.479,0.006
7.735,-0.895,0.457,0.006
7.744,-0.902,0.443,0.006
7.754,-0.910,0.438,0.006
7.764,-0.922,0.412,0.008
7.774,-0.951,0.393,0.000
7.784,-0.971,0.375,0.000
7.794,-0.980,0.367,-0.010
7.804,-0.992,0.350,0.002
7.814,-1.002,0.350,0.014
7.824,-1.033,0.334,0.006
7.834,-1.025,0.309,0.004
7.844,-1.008,0.312,0.020
7.854,-1.021,0.291,0.016
7.864,-1.025,0.270,0.006
7.873,-1.025,0.264,0.006
7.883,-1.041,0.248,0.012
7.893,-1.047,0.246,0.000
7.903,-1.039,0.254,0.014
7.913,-1.041,0.248,0.012
7.923,-1.033,0.240,0.016
7.933,-1.025,0.238,0.010
7.943,-1.039,0.246,0.012
7.953,-1.053,0.223,0.006
7.963,-1.057,0.221,0.014
7.973,-1.062,0.217,0.002
7.983,-1.041,0.227,0.021
7.993,-1.031,0.230,0.021
8.002,-1.025,0.223,0.020
8.012,-1.014,0.217,0.023
8.022,-1.016,0.207,0.012
8.032,-1.004,0.217,0.014
8.042,-1.000,0.215,0.018
8.052,-1.018,0.221,0.014
8.062,-1.020,0.221,0.012
8.072,-1.016,0.221,0.018
8.082,-1.014,0.219,0.010
8.092,-1.014,0.219,0.016
8.102,-1.000,0.223,0.012
8.112,-0.990,0.236,0.021
8.121,-0.998,0.232,0.021
8.131,-1.010,0.242,0.021
8.141,-1.016,0.236,0.018
8.151,-1.025,0.232,0.014
8.161,-1.025,0.232,0.018
8.171,-1.023,0.236,0.020
8.181,-1.021,0.242,0.014
8.191,-1.012,0.254,0.021
8.201,-1.016,0.260,0.021
8.211,-1.008,0.260,0.021
8.221,-1.018,0.258,0.020
8.231,-1.016,0.256,0.014
8.241,-1.018,0.250,0.018
8.250,-1.021,0.258,0.012
8.260,-1.021,0.260,0.016
8.270,-1.012,0.266,0.020
8.280,-1.002,0.266,0.021
8.290,-0.986,0.268,0.020
8.300,-0.988,0.268,0.025
8.310,-0.988,0.270,0.023
8.320,-0.994,0.270,0.023
8.330,-0.998,0.271,0.020
8.340,-1.008,0.266,0.020
8.350,-1.010,0.271,0.016
8.360,-1.004,0.271,0.020
8.370,-0.998,0.279,0.023
8.379,-0.988,0.281,0.020
8.389,-0.984,0.281,0.023
8.399,-0.986,0.285,0.021
8.409,-0.992,0.281,0.025
8.419,-1.000,0.283,0.018
8.429,-1.008,0.271,0.016
8.439,-1.004,0.270,0.014
8.449,-0.996,0.270,0.018
8.459,-0.992,0.283,0.023
8.469,-0.988,0.289,0.023
8.479,-0.982,0.283,0.021
8.489,-0.977,0.279,0.021
8.499,-0.973,0.279,0.018
8.508,-0.977,0.279,0.020
8.518,-0.986,0.285,0.018
8.528,-1.002,0.277,0.018
8.538,-1.008,0.277,0.016
8.548,-1.016,0.275,0.012
8.558,-1.018,0.273,0.012
8.568,-1.014,0.275,0.010
8.578,-1.008,0.275,0.014
8.588,-1.002,0.287,0.016
8.598,-0.992,0.303,0.018
8.608,-0.988,0.303,0.021
8.618,-1.008,0.297,0.016
8.627,-1.018,0.283,0.010
8.637,-1.018,0.287,0.010
8.647,-1.023,0.283,0.008
8.657,-1.010,0.291,0.012
8.667,-1.002,0.301,0.018
8.677,-1.002,0.309,0.020
8.687,-0.990,0.314,0.023
8.697,-0.998,0.316,0.023
8.707,-1.000,0.326,0.023
8.717,-1.012,0.332,0.023
8.727,-1.020,0.328,0.021
8.737,-1.018,0.322,0.014
8.747,-1.006,0.326,0.018
8.756,-1.010,0.336,0.020
8.766,-1.008,0.348,0.023
8.776,-1.012,0.348,0.027
8.786,-1.027,0.359,0.023
8.796,-1.033,0.375,0.027
8.806,-1.033,0.377,0.029
8.816,-1.027,0.371,0.025
8.826,-1.012,0.377,0.020
8.836,-0.971,0.387,0.029
8.846,-0.957,0.396,0.035
8.856,-0.949,0.424,0.037
8.866,-0.939,0.447,0.041
8.876,-0.928,0.457,0.045
8.885,-0.916,0.467,0.041
8.895,-0.898,0.469,0.043
8.905,-0.879,0.479,0.045
8.915,-0.861,0.492,0.049
8.925,-0.844,0.514,0.053
8.935,-0.814,0.533,0.057
8.945,-0.807,0.547,0.064
8.955,-0.803,0.574,0.062
8.965,-0.799,0.594,0.061
8.975,-0.781,0.600,0.062
8.985,-0.773,0.594,0.051
8.995,-0.760,0.605,0.053
9.004,-0.756,0.623,0.049
9.014,-0.758,0.627,0.051
9.024,-0.758,0.643,0.047
9.034,-0.744,0.650,0.047
9.044,-0.727,0.658,0.047
9.054,-0.721,0.674,0.039
9.064,-0.705,0.686,0.047
9.074,-0.688,0.688,0.041
9.084,-0.688,0.699,0.047
9.094,-0.689,0.715,0.045
9.104,-0.678,0.719,0.039
9.114,-0.672,0.730,0.043
9.124,-0.666,0.738,0.039
9.133,-0.658,0.750,0.035
9.143,-0.652,0.762,0.033
9.153,-0.652,0.766,0.025
9.163,-0.633,0.785,0.027
9.173,-0.615,0.787,0.025
9.183,-0.604,0.797,0.020
9.193,-0.594,0.787,0.020
9.203,-0.586,0.789,0.014
9.213,-0.586,0.791,0.010
9.223,-0.592,0.795,0.008
9.233,-0.576,0.797,0.010
9.243,-0.588,0.803,0.010
9.253,-0.584,0.816,0.008
9.262,-0.562,0.826,0.014
9.272,-0.555,0.826,0.016
9.282,-0.549,0.828,0.008
9.292,-0.551,0.832,0.012
9.302,-0.549,0.834,0.006
9.312,-0.545,0.836,0.002
9.322,-0.541,0.850,0.002
9.332,-0.543,0.854,0.002
9.342,-0.543,0.848,0.000
9.352,-0.547,0.848,-0.006
9.362,-0.551,0.834,-0.006
9.372,-0.553,0.824,-0.010
9.382,-0.555,0.820,-0.014
9.391,-0.574,0.812,-0.020
9.401,-0.580,0.812,-0.020
9.411,-0.584,0.814,-0.018
9.421,-0.584,0.814,-0.014
9.431,-0.574,0.828,-0.010
9.441,-0.562,0.822,-0.014
9.451,-0.576,0.811,-0.021
9.461,-0.584,0.801,-0.035
9.471,-0.576,0.793,-0.037
9.481,-0.559,0.799,-0.035
9.491,-0.529,0.830,-0.027
9.501,-0.510,0.850,-0.020
9.510,-0.477,0.854,-0.018
9.520,-0.455,0.855,-0.020
9.530,-0.432,0.861,-0.018
9.540,-0.408,0.871,-0.018
9.550,-0.375,0.881,-0.008
9.560,-0.350,0.900,0.000
9.570,-0.342,0.902,0.004
9.580,-0.330,0.900,0.000
9.590,-0.342,0.887,-0.004
9.600,-0.346,0.900,-0.012
9.610,-0.354,0.906,-0.008
9.620,-0.361,0.922,-0.004
9.630,-0.363,0.936,-0.006
9.639,-0.357,0.949,-0.002
9.649,-0.346,0.957,-0.002
9.659,-0.330,0.963,-0.002
9.669,-0.334,0.959,0.008
9.679,-0.322,0.965,0.006
9.689,-0.318,0.965,0.008
9.699,-0.324,0.959,0.010
9.709,-0.336,0.951,0.006
9.719,-0.336,0.939,0.004
9.729,-0.344,0.924,-0.004
9.739,-0.338,0.920,-0.008
9.749,-0.336,0.922,-0.004
9.759,-0.334,0.922,-0.004
9.768,-0.336,0.930,0.004
9.778,-0.338,0.939,0.012
9.788,-0.332,0.943,0.012
9.798,-0.314,0.939,0.018
9.808,-0.311,0.947,0.025
9.818,-0.307,0.934,0.023
9.828,-0.295,0.918,0.018
9.838,-0.297,0.920,0.021
9.848,-0.312,0.920,0.023
9.858,-0.334,0.908,0.016
9.868,-0.346,0.912,0.010
9.878,-0.350,0.922,0.016
9.887,-0.355,0.939,0.014
9.897,-0.354,0.957,0.025
9.907,-0.346,0.965,0.027
9.917,-0.334,0.955,0.021
9.927,-0.322,0.953,0.027
9.937,-0.311,0.949,0.031
9.947,-0.316,0.943,0.031
9.957,-0.312,0.930,0.020
9.967,-0.307,0.934,0.010
9.977,-0.305,0.939,0.035
9.987,-0.311,0.939,0.035
9.997,-0.291,0.936,0.053
10.007,-0.299,0.945,0.045
10.016,-0.309,0.943,0.043
10.026,-0.297,0.959,0.041
10.036,-0.303,0.959,0.045
10.046,-0.297,0.969,0.055
10.056,-0.277,0.963,0.045
10.066,-0.275,0.947,0.057
10.076,-0.277,0.943,0.053
10.086,-0.277,0.953,0.055
10.096,-0.277,0.965,0.057
10.106,-0.289,0.982,0.059
10.116,-0.293,0.980,0.059
10.126,-0.295,0.986,0.070
10.136,-0.287,0.988,0.070
10.145,-0.254,0.975,0.082
10.155,-0.232,0.945,0.094
10.165,-0.221,0.938,0.102
10.175,-0.209,0.922,0.107
10.185,-0.209,0.930,0.127
10.195,-0.201,0.924,0.135
10.205,-0.207,0.928,0.143
10.215,-0.207,0.936,0.148
10.225,-0.197,0.945,0.154
10.235,-0.209,0.941,0.152
10.245,-0.199,0.951,0.172
10.255,-0.213,0.957,0.156
10.264,-0.193,0.955,0.168
10.274,-0.180,0.934,0.184
10.284,-0.162,0.947,0.199
10.294,-0.150,0.949,0.189
10.304,-0.158,0.943,0.188
10.314,-0.152,0.943,0.205
10.324,-0.141,0.951,0.205
10.334,-0.141,0.949,0.207
10.344,-0.125,0.945,0.209
10.354,-0.111,0.928,0.205
10.364,-0.100,0.918,0.219
10.374,-0.104,0.934,0.219
10.384,-0.100,0.945,0.232
10.393,-0.117,0.947,0.209
10.403,-0.109,0.955,0.221
10.413,-0.102,0.961,0.236
10.423,-0.100,0.963,0.234
10.433,-0.119,0.957,0.225
10.443,-0.127,0.957,0.248
10.453,-0.127,0.939,0.219
10.463,-0.156,0.924,0.189
10.473,-0.104,0.967,0.262
10.483,-0.123,0.961,0.246
10.493,-0.135,0.969,0.248
10.503,-0.115,0.965,0.252
10.513,-0.113,0.945,0.236
10.522,-0.119,0.938,0.236
10.532,-0.121,0.936,0.230
10.542,-0.121,0.930,0.234
10.552,-0.129,0.936,0.221
10.562,-0.133,0.939,0.232
10.572,-0.137,0.939,0.217
10.582,-0.145,0.941,0.227
10.592,-0.133,0.949,0.217
10.602,-0.121,0.955,0.230
10.612,-0.135,0.963,0.209
10.622,-0.127,0.959,0.215
10.632,-0.123,0.951,0.211
10.642,-0.125,0.945,0.207
10.651,-0.129,0.961,0.213
10.661,-0.117,0.979,0.232
10.671,-0.127,0.982,0.229
10.681,-0.139,0.975,0.229
10.691,-0.146,0.971,0.227
10.701,-0.148,0.961,0.229
10.711,-0.150,0.961,0.221
10.721,-0.156,0.961,0.229
10.731,-0.148,0.953,0.230
10.741,-0.150,0.963,0.238
10.751,-0.145,0.951,0.230
10.761,-0.146,0.955,0.232
10.770,-0.135,0.951,0.232
10.780,-0.139,0.941,0.229
10.790,-0.139,0.949,0.227
10.800,-0.135,0.949,0.225
10.810,-0.141,0.945,0.227
10.820,-0.139,0.951,0.221
10.830,-0.143,0.953,0.232
10.840,-0.152,0.953,0.225
10.850,-0.154,0.951,0.227
10.860,-0.152,0.936,0.215
10.870,-0.152,0.945,0.219
10.880,-0.154,0.949,0.219
10.890,-0.154,0.949,0.221
10.899,-0.152,0.949,0.215
10.909,-0.145,0.959,0.225
10.919,-0.148,0.957,0.223
10.929,-0.146,0.965,0.229
10.939,-0.154,0.963,0.227
10.949,-0.154,0.963,0.223
10.959,-0.158,0.959,0.223
10.969,-0.160,0.949,0.213
10.979,-0.184,0.922,0.197
10.989,-0.057,1.094,0.346
10.999,-0.135,0.926,0.168
11.009,-0.156,0.943,0.160
11.019,-0.145,0.982,0.246
11.028,-0.143,0.971,0.215
11.038,-0.160,0.975,0.213
11.048,-0.137,0.971,0.227
11.058,-0.150,0.961,0.225
11.068,-0.158,0.963,0.221
11.078,-0.275,0.893,0.203
11.088,-0.086,0.967,0.189
11.098,-0.078,0.936,0.283
11.108,-0.189,0.949,0.186
11.118,-0.160,0.953,0.215
11.128,-0.143,0.959,0.227
11.138,-0.152,0.961,0.217
11.147,-0.143,0.959,0.221
11.157,-0.139,0.961,0.219
11.167,-0.143,0.959,0.217
11.177,-0.148,0.953,0.219
11.187,-0.146,0.947,0.213
11.197,-0.148,0.955,0.221
11.207,-0.145,0.961,0.225
11.217,-0.139,0.955,0.217
11.227,-0.146,0.947,0.219
11.237,-0.156,0.941,0.211
11.247,-0.162,0.951,0.217
11.257,-0.164,0.947,0.217
11.267,-0.168,0.949,0.215
11.276,-0.164,0.961,0.213
11.286,-0.160,0.959,0.221
11.296,-0.154,0.957,0.217
11.306,-0.154,0.949,0.219
11.316,-0.154,0.945,0.215
11.326,-0.156,0.955,0.209
11.336,-0.152,0.953,0.213
11.346,-0.152,0.949,0.205
11.356,-0.158,0.949,0.207
11.366,-0.160,0.959,0.211
11.376,-0.164,0.955,0.213
11.386,-0.166,0.959,0.205
11.396,-0.156,0.953,0.207
11.405,-0.174,0.947,0.201
11.415,-0.012,0.826,-0.115
11.425,-0.340,1.127,0.514
11.435,-0.137,0.896,0.037
11.445,-0.197,0.980,0.238
11.455,-0.184,0.979,0.201
11.465,-0.193,0.953,0.193
11.475,-0.197,0.965,0.199
11.485,-0.248,0.865,0.191
11.495,-0.350,0.951,-0.053
11.505,0.100,0.990,0.453
11.515,-0.102,0.947,0.232
11.525,-0.277,0.910,0.104
11.534,-0.170,0.943,0.217
11.544,-0.160,0.957,0.219
11.554,-0.180,0.947,0.188
11.564,-0.158,0.961,0.201
11.574,-0.152,0.967,0.203
11.584,-0.148,0.977,0.195
11.594,-0.148,0.971,0.195
11.604,-0.164,0.969,0.188
11.614,0.057,0.748,-0.064
11.624,-0.447,1.129,0.400
11.634,-0.156,0.910,0.010
11.644,-0.166,0.965,0.248
11.653,-0.295,0.967,0.133
11.663,-0.242,0.949,0.133
11.673,-0.127,0.943,0.215
11.683,-0.191,0.961,0.178
11.693,-0.184,0.951,0.172
11.703,-0.156,0.957,0.188
11.713,-0.164,0.969,0.180
11.723,-0.176,0.971,0.176
11.733,-0.188,0.961,0.164
11.743,-0.189,0.953,0.150
11.753,-0.180,0.949,0.158
11.763,-0.180,0.943,0.152
11.773,-0.180,0.936,0.150
11.782,-0.176,0.928,0.152
11.792,-0.166,0.949,0.150
11.802,-0.148,0.959,0.164
11.812,-0.156,0.969,0.168
11.822,-0.168,0.969,0.158
11.832,-0.186,0.973,0.162
11.842,-0.197,0.965,0.152
11.852,-0.207,0.963,0.152
11.862,-0.195,0.965,0.148
11.872,-0.186,0.965,0.160
11.882,-0.180,0.951,0.150
11.892,-0.170,0.951,0.150
11.902,-0.158,0.963,0.162
11.911,-0.158,0.982,0.168
11.921,-0.160,0.996,0.168
11.931,-0.170,0.990,0.172
11.941,-0.188,0.988,0.166
11.951,-0.176,0.988,0.168
11.961,-0.191,0.977,0.176
11.971,-0.199,0.967,0.172
11.981,-0.195,0.967,0.168
11.991,-0.191,0.949,0.172
12.001,-0.211,0.939,0.162
12.011,-0.223,0.936,0.154
12.021,-0.211,0.934,0.154
12.030,-0.207,0.934,0.154
12.040,-0.215,0.945,0.156
12.050,-0.221,0.945,0.158
12.060,-0.223,0.943,0.152
12.070,-0.227,0.938,0.143
12.080,-0.230,0.930,0.141
12.090,-0.219,0.930,0.139
12.100,-0.207,0.930,0.135
12.110,-0.205,0.934,0.137
12.120,-0.213,0.951,0.141
12.130,-0.203,0.953,0.141
12.140,-0.186,0.957,0.143
12.150,-0.174,0.947,0.145
12.159,-0.180,0.939,0.139
12.169,-0.180,0.949,0.139
12.179,-0.176,0.959,0.141
12.189,-0.170,0.961,0.139
12.199,-0.184,0.957,0.139
12.209,-0.178,0.961,0.127
12.219,-0.160,0.938,0.127
12.229,-0.156,0.930,0.125
12.239,-0.154,0.918,0.127
12.249,-0.160,0.930,0.127
12.259,-0.176,0.965,0.135
12.269,-0.168,0.975,0.131
12.279,-0.172,0.977,0.131
12.288,-0.188,0.979,0.131
12.298,-0.189,0.992,0.133
12.308,-0.191,0.998,0.131
12.318,-0.217,0.992,0.131
12.328,-0.225,0.982,0.121
12.338,-0.230,0.965,0.111
12.348,-0.238,0.947,0.105
12.358,-0.234,0.963,0.104
12.368,-0.238,0.953,0.107
12.378,-0.244,0.936,0.102
12.388,-0.240,0.932,0.100
12.398,-0.240,0.936,0.088
12.408,-0.240,0.926,0.072
12.417,-0.234,0.941,0.080
12.427,-0.238,0.957,0.080
12.437,-0.250,0.947,0.078
12.447,-0.270,0.959,0.070
12.457,-0.277,0.947,0.062
12.467,-0.275,0.934,0.047
12.477,-0.275,0.939,0.049
12.487,-0.268,0.949,0.051
12.497,-0.266,0.957,0.053
12.507,-0.252,0.969,0.055
12.517,-0.260,0.965,0.057
12.527,-0.266,0.961,0.045
12.536,-0.268,0.951,0.049
12.546,-0.275,0.955,0.061
12.556,-0.268,0.971,0.059
12.566,-0.246,0.988,0.082
12.576,-0.242,0.986,0.090
12.586,-0.238,1.002,0.094
12.596,-0.232,0.998,0.102
12.606,-0.246,0.986,0.098
12.616,-0.256,0.980,0.092
12.626,-0.246,0.955,0.084
12.636,-0.240,0.939,0.078
12.646,-0.258,0.977,0.088
12.656,-0.240,0.979,0.090
12.665,-0.248,0.967,0.098
12.675,-0.271,0.959,0.088
12.685,-0.254,0.938,0.090
12.695,-0.242,0.922,0.076
12.705,-0.230,0.904,0.078
12.715,-0.229,0.900,0.072
12.725,-0.246,0.895,0.070
12.735,-0.256,0.910,0.047
12.745,-0.270,0.912,0.051
12.755,-0.283,0.936,0.051
12.765,-0.299,0.951,0.053
12.775,-0.295,0.955,0.051
12.785,-0.299,0.969,0.051
12.794,-0.287,0.961,0.041
12.804,-0.279,0.926,0.031
12.814,-0.275,0.928,0.029
12.824,-0.291,0.902,0.021
12.834,-0.320,0.898,0.010
12.844,-0.359,0.932,0.002
12.854,-0.354,0.963,0.004
12.864,-0.355,0.959,0.004
12.874,-0.340,0.961,0.000
12.884,-0.316,0.977,0.010
12.894,-0.299,0.971,0.010
12.904,-0.266,0.943,0.002
12.913,-0.260,0.947,-0.016
12.923,-0.203,0.969,0.016
12.933,-0.170,0.971,0.014
12.943,-0.145,0.998,0.023
12.953,-0.121,0.971,0.025
12.963,-0.125,0.938,0.008
12.973,-0.164,0.932,-0.002
12.983,-0.170,0.926,-0.004
12.993,-0.162,0.928,0.004
13.003,-0.127,0.947,0.016
13.013,-0.113,0.971,0.029
13.023,-0.117,0.980,0.037
13.033,-0.109,0.996,0.029
13.042,-0.102,1.016,0.039
13.052,-0.107,1.016,0.043
13.062,-0.131,1.000,0.039
13.072,-0.146,0.986,0.023
13.082,-0.168,0.949,0.012
13.092,-0.172,0.930,0.002
13.102,-0.174,0.939,0.020
13.112,-0.182,0.957,0.023
13.122,-0.186,0.980,0.031
13.132,-0.211,0.990,0.037
13.142,-0.240,0.988,0.008
13.152,-0.258,0.967,0.004
13.162,-0.246,0.975,-0.004
13.171,-0.227,0.979,0.012
13.181,-0.258,0.977,0.020
13.191,-0.301,0.984,-0.004
13.201,-0.318,0.990,0.002
13.211,-0.318,1.000,-0.002
13.221,-0.293,1.016,-0.002
13.231,-0.293,1.025,0.006
13.241,-0.289,1.035,0.010
13.251,-0.250,1.051,0.033
13.261,-0.211,1.027,0.023
13.271,-0.184,0.982,0.031
13.281,-0.139,0.922,0.031
13.291,-0.121,0.891,0.057
13.300,-0.123,0.891,0.070
13.310,-0.119,0.916,0.082
13.320,-0.141,0.947,0.098
13.330,-0.199,0.949,0.086
13.340,-0.250,0.949,0.080
13.350,-0.285,0.930,0.072
13.360,-0.273,0.908,0.066
13.370,-0.195,0.871,0.066
13.380,-0.135,0.881,0.104
13.390,-0.109,0.889,0.104
13.400,-0.098,0.918,0.117
13.410,-0.115,1.000,0.123
13.419,-0.164,0.939,0.078
13.429,-0.191,1.002,0.092
13.439,-0.215,1.029,0.109
13.449,-0.234,0.973,0.088
13.459,-0.225,0.930,0.061
13.469,-0.219,0.939,0.086
13.479,-0.232,0.959,0.088
13.489,-0.230,0.965,0.086
13.499,-0.221,0.979,0.098
13.509,-0.230,0.990,0.107
13.519,-0.258,0.979,0.111
13.529,-0.271,0.957,0.088
13.539,-0.240,0.934,0.072
13.548,-0.219,0.936,0.080
13.558,-0.238,0.930,0.066
13.568,-0.230,0.932,0.062
13.578,-0.219,0.971,0.086
13.588,-0.215,0.977,0.096
13.598,-0.219,0.990,0.092
13.608,-0.215,0.980,0.098
13.618,-0.217,0.967,0.084
13.628,-0.217,0.936,0.076
13.638,-0.203,0.926,0.072
13.648,-0.195,0.910,0.070
13.658,-0.162,0.924,0.088
13.668,-0.160,0.936,0.113
13.677,-0.195,0.955,0.107
13.687,-0.166,0.984,0.123
13.697,-0.162,0.990,0.145
13.707,-0.186,0.979,0.137
13.717,-0.178,0.977,0.137
13.727,-0.182,0.973,0.146
13.737,-0.193,0.969,0.152
13.747,-0.197,0.957,0.150
13.757,-0.201,0.945,0.143
13.767,-0.199,0.947,0.148
13.777,-0.207,0.941,0.152
13.787,-0.209,0.936,0.150
13.796,-0.201,0.930,0.148
13.806,-0.197,0.936,0.146
13.816,-0.188,0.941,0.154
13.826,-0.191,0.953,0.150
13.836,-0.189,0.945,0.148
13.846,-0.193,0.955,0.145
13.856,-0.193,0.959,0.135
13.866,-0.205,0.953,0.141
13.876,-0.215,0.957,0.131
13.886,-0.209,0.953,0.127
13.896,-0.203,0.953,0.123
13.906,-0.223,0.949,0.117
13.916,-0.236,0.951,0.111
13.925,-0.227,0.949,0.113
13.935,-0.230,0.957,0.109
13.945,-0.232,0.955,0.109
13.955,-0.223,0.961,0.107
13.965,-0.227,0.963,0.105
13.975,-0.227,0.957,0.105
13.985,-0.223,0.961,0.102
13.995,-0.213,0.965,0.104
14.005,-0.217,0.969,0.115
14.015,-0.225,0.982,0.102
14.025,-0.219,0.990,0.111
14.035,-0.227,0.990,0.111
14.045,-0.232,0.994,0.109
14.054,-0.244,0.984,0.104
14.064,-0.229,0.988,0.105
14.074,-0.227,0.986,0.115
14.084,-0.232,0.973,0.115
14.094,-0.230,0.953,0.117
14.104,-0.227,0.936,0.117
14.114,-0.225,0.934,0.117
14.124,-0.230,0.920,0.125
14.134,-0.221,0.928,0.125
14.144,-0.221,0.910,0.121
14.154,-0.234,0.900,0.123
14.164,-0.244,0.898,0.115
14.173,-0.246,0.891,0.117
14.183,-0.244,0.900,0.113
14.193,-0.244,0.906,0.109
14.203,-0.252,0.910,0.105
14.213,-0.256,0.926,0.098
14.223,-0.254,0.936,0.088
14.233,-0.252,0.951,0.096
14.243,-0.250,0.973,0.094
14.253,-0.252,0.980,0.088
14.263,-0.248,0.992,0.088
14.273,-0.242,0.996,0.088
14.283,-0.234,0.992,0.088
14.293,-0.229,0.988,0.092
14.302,-0.229,0.980,0.090
14.312,-0.229,0.969,0.086
14.322,-0.223,0.971,0.096
14.332,-0.232,0.971,0.100
14.342,-0.234,0.973,0.098
14.352,-0.223,0.979,0.105
14.362,-0.219,0.982,0.109
14.372,-0.205,0.977,0.104
14.382,-0.203,0.961,0.115
14.392,-0.203,0.941,0.107
14.402,-0.221,0.936,0.115
14.412,-0.225,0.922,0.111
14.422,-0.229,0.926,0.113
14.431,-0.230,0.926,0.117
14.441,-0.227,0.924,0.117
14.451,-0.230,0.936,0.117
14.461,-0.230,0.945,0.109
14.471,-0.227,0.945,0.105
14.481,-0.240,0.949,0.107
14.491,-0.254,0.945,0.100
14.501,-0.252,0.941,0.090
14.511,-0.240,0.951,0.096
14.521,-0.230,0.957,0.096
14.531,-0.230,0.963,0.104
14.541,-0.229,0.971,0.094
14.551,-0.221,0.967,0.096
14.560,-0.232,0.955,0.094
14.570,-0.242,0.947,0.088
14.580,-0.246,0.949,0.084
14.590,-0.250,0.957,0.088
14.600,-0.236,0.965,0.090
14.610,-0.229,0.979,0.092
14.620,-0.232,0.977,0.090
14.630,-0.223,0.969,0.084
14.640,-0.207,0.969,0.096
14.650,-0.215,0.971,0.098
14.660,-0.211,0.961,0.090
14.670,-0.189,0.953,0.094
14.679,-0.180,0.973,0.100
14.689,-0.178,1.000,0.104
14.699,-0.178,1.012,0.107
14.709,-0.199,1.027,0.107
14.719,-0.234,1.037,0.113
14.729,-0.260,1.018,0.105
14.739,-0.268,1.020,0.092
14.749,-0.283,1.025,0.092
14.759,-0.266,1.008,0.084
14.769,-0.266,0.996,0.076
14.779,-0.248,0.994,0.082
14.789,-0.236,0.973,0.084
14.799,-0.260,0.967,0.066
14.808,-0.289,0.977,0.061
14.818,-0.303,0.977,0.061
14.828,-0.303,0.951,0.057
14.838,-0.275,0.936,0.062
14.848,-0.242,0.889,0.092
14.858,-0.211,0.807,0.096
14.868,-0.184,0.793,0.064
14.878,-0.174,0.873,0.146
14.888,-0.248,0.871,0.164
14.898,-0.330,0.820,0.133
14.908,-0.369,0.820,0.158
14.918,-0.385,0.832,0.180
14.928,-0.383,0.820,0.205
14.937,-0.318,0.824,0.238
14.947,-0.297,0.832,0.277
14.957,-0.328,0.820,0.277
14.967,-0.363,0.832,0.273
14.977,-0.404,0.836,0.281
14.987,-0.428,0.852,0.270
14.997,-0.432,0.857,0.271
15.007,-0.424,0.838,0.250
15.017,-0.410,0.844,0.236
15.027,-0.389,0.873,0.238
15.037,-0.373,0.869,0.232
15.047,-0.375,0.861,0.201
15.056,-0.348,0.904,0.207
15.066,-0.332,0.934,0.217
15.076,-0.330,0.973,0.209
15.086,-0.332,0.986,0.213
15.096,-0.355,0.979,0.219
15.106,-0.367,0.973,0.201
15.116,-0.387,0.996,0.225
15.126,-0.414,1.004,0.217
15.136,-0.449,0.996,0.180
15.146,-0.463,1.000,0.158
15.156,-0.459,1.006,0.145
15.166,-0.445,0.994,0.119
15.176,-0.410,0.992,0.107
15.185,-0.395,0.982,0.094
15.195,-0.377,0.959,0.078
15.205,-0.355,0.947,0.072
15.215,-0.328,0.957,0.074
15.225,-0.309,0.979,0.078
15.235,-0.312,1.004,0.102
15.245,-0.355,1.004,0.113
15.255,-0.422,0.977,0.102
15.265,-0.430,0.986,0.088
15.275,-0.398,0.988,0.102
15.285,-0.396,0.969,0.111
15.295,-0.406,0.930,0.098
15.305,-0.381,0.900,0.092
15.314,-0.352,0.889,0.096
15.324,-0.340,0.857,0.102
15.334,-0.309,0.848,0.092
15.344,-0.283,0.846,0.113
15.354,-0.244,0.820,0.123
15.364,-0.234,0.779,0.143
15.374,-0.234,0.771,0.160
15.384,-0.223,0.748,0.182
15.394,-0.209,0.748,0.195
15.404,-0.215,0.779,0.227
15.414,-0.248,0.855,0.256
15.424,-0.285,0.930,0.291
15.434,-0.324,0.988,0.305
15.443,-0.369,1.023,0.309
15.453,-0.404,1.039,0.309
15.463,-0.410,1.039,0.295
15.473,-0.408,1.031,0.285
15.483,-0.389,1.020,0.273
15.493,-0.363,0.998,0.260
15.503,-0.332,0.992,0.252
15.513,-0.318,0.996,0.244
15.523,-0.303,0.994,0.230
15.533,-0.285,1.021,0.227
15.543,-0.268,1.002,0.219
15.553,-0.270,0.926,0.188
15.562,-0.295,0.850,0.154
15.572,-0.312,0.820,0.129
15.582,-0.289,0.818,0.148
15.592,-0.293,0.828,0.133
15.602,-0.264,0.850,0.139
15.612,-0.250,0.881,0.164
15.622,-0.246,0.895,0.160
15.632,-0.277,0.877,0.148
15.642,-0.297,0.867,0.141
15.652,-0.307,0.881,0.145
15.662,-0.322,0.906,0.145
15.672,-0.330,0.936,0.150
15.682,-0.326,0.949,0.150
15.691,-0.332,0.977,0.148
15.701,-0.328,0.982,0.145
15.711,-0.326,0.965,0.133
15.721,-0.332,0.949,0.121
15.731,-0.334,0.949,0.119
15.741,-0.336,0.945,0.113
15.751,-0.330,0.943,0.117
15.761,-0.312,0.943,0.115
15.771,-0.295,0.943,0.117
15.781,-0.281,0.947,0.127
15.791,-0.262,0.949,0.127
15.801,-0.264,0.928,0.129
15.811,-0.264,0.916,0.123
15.820,-0.268,0.922,0.121
15.830,-0.262,0.926,0.131
15.840,-0.273,0.930,0.133
15.850,-0.281,0.957,0.127
15.860,-0.250,0.990,0.146
15.870,-0.256,1.002,0.168
15.880,-0.295,0.988,0.170
15.890,-0.314,0.969,0.154
15.900,-0.307,0.959,0.162
15.910,-0.309,0.951,0.164
15.920,-0.312,0.957,0.166
15.930,-0.293,0.957,0.178
15.939,-0.285,0.947,0.184
15.949,-0.291,0.936,0.168
15.959,-0.293,0.926,0.178
15.969,-0.291,0.926,0.172
15.979,-0.283,0.920,0.174
15.989,-0.279,0.891,0.176
15.999,-0.270,0.893,0.154
16.009,-0.242,0.910,0.162
16.019,-0.238,0.893,0.166
16.029,-0.227,0.893,0.143
16.039,-0.203,0.920,0.162
16.049,-0.234,0.926,0.168
16.059,-0.244,0.926,0.158
16.068,-0.254,0.934,0.170
16.078,-0.266,0.945,0.162
16.088,-0.260,0.955,0.172
16.098,-0.262,0.967,0.182
16.108,-0.252,0.994,0.188
16.118,-0.244,1.004,0.199
16.128,-0.244,0.994,0.199
16.138,-0.234,0.984,0.201
16.148,-0.234,0.979,0.205
16.158,-0.248,0.965,0.205
16.168,-0.260,0.957,0.205
16.178,-0.252,0.947,0.201
16.188,-0.246,0.943,0.203
16.197,-0.260,0.945,0.205
16.207,-0.297,0.939,0.211
16.217,-0.369,0.924,0.186
16.227,-0.236,0.963,0.170
16.237,-0.201,0.941,0.229
16.247,-0.258,0.924,0.197
16.257,-0.270,0.904,0.191
16.267,-0.283,0.891,0.188
16.277,-0.279,0.881,0.176
16.287,-0.268,0.873,0.182
16.297,-0.252,0.850,0.184
16.307,-0.264,0.836,0.191
16.317,-0.297,0.838,0.189
16.326,-0.326,0.818,0.184
16.336,-0.352,0.828,0.186
16.346,-0.373,0.836,0.188
16.356,-0.375,0.867,0.188
16.366,-0.352,0.904,0.203
16.376,-0.332,0.926,0.203
16.386,-0.334,0.955,0.191
16.396,-0.318,0.957,0.172
16.406,-0.305,0.941,0.168
16.416,-0.295,0.936,0.148
16.426,-0.266,0.947,0.170
16.436,-0.271,0.943,0.184
16.445,-0.285,0.984,0.182
16.455,-0.318,0.994,0.219
16.465,-0.342,0.969,0.219
16.475,-0.379,0.982,0.240
16.485,-0.408,0.977,0.246
16.495,-0.434,0.967,0.250
16.505,-0.445,0.971,0.260
16.515,-0.439,0.969,0.258
16.525,-0.455,0.971,0.262
16.535,-0.461,0.971,0.264
16.545,-0.441,0.955,0.256
16.555,-0.416,0.939,0.252
16.565,-0.391,0.939,0.260
16.574,-0.379,0.934,0.260
16.584,-0.371,0.924,0.246
16.594,-0.367,0.912,0.250
16.604,-0.377,0.898,0.238
16.614,-0.369,0.869,0.225
16.624,-0.361,0.850,0.215
16.634,-0.348,0.840,0.205
16.644,-0.330,0.828,0.189
16.654,-0.301,0.824,0.182
16.664,-0.301,0.846,0.184
16.674,-0.287,0.855,0.193
16.684,-0.262,0.865,0.197
16.694,-0.264,0.896,0.221
16.703,-0.254,0.902,0.223
16.713,-0.242,0.896,0.225
16.723,-0.262,0.877,0.225
16.733,-0.289,0.883,0.213
16.743,-0.314,0.912,0.221
16.753,-0.344,0.934,0.223
16.763,-0.352,0.953,0.217
16.773,-0.359,0.967,0.229
16.783,-0.379,0.977,0.227
16.793,-0.379,0.977,0.221
16.803,-0.367,0.971,0.213
16.813,-0.375,0.973,0.217
16.822,-0.363,0.961,0.199
16.832,-0.355,0.951,0.197
16.842,-0.352,0.941,0.184
16.852,-0.346,0.943,0.182
16.862,-0.338,0.939,0.180
16.872,-0.336,0.934,0.174
16.882,-0.338,0.932,0.174
16.892,-0.320,0.928,0.164
16.902,-0.307,0.908,0.154
16.912,-0.303,0.895,0.141
16.922,-0.295,0.893,0.139
16.932,-0.273,0.906,0.146
16.942,-0.270,0.920,0.154
16.951,-0.262,0.934,0.156
16.961,-0.252,0.938,0.164
16.971,-0.252,0.934,0.160
16.981,-0.223,0.916,0.150
16.991,-0.223,0.908,0.168
17.001,-0.238,0.914,0.158
17.011,-0.229,0.920,0.172
17.021,-0.234,0.924,0.193
17.031,-0.258,0.930,0.188
17.041,-0.258,0.959,0.199
17.051,-0.248,0.965,0.213
17.061,-0.229,0.949,0.207
17.071,-0.227,0.953,0.213
17.080,-0.229,0.947,0.223
17.090,-0.223,0.947,0.223
17.100,-0.236,0.963,0.227
17.110,-0.250,0.990,0.221
17.120,-0.264,1.018,0.225
17.130,-0.268,1.033,0.227
17.140,-0.268,1.033,0.225
17.150,-0.260,1.023,0.232
17.160,-0.262,1.002,0.232
17.170,-0.270,0.986,0.229
17.180,-0.275,0.977,0.219
17.190,-0.301,0.973,0.213
17.200,-0.291,0.973,0.207
17.209,-0.246,0.945,0.205
17.219,-0.195,0.926,0.213
17.229,-0.152,0.893,0.188
17.239,-0.148,0.873,0.162
17.249,-0.176,0.869,0.137
17.259,-0.168,0.861,0.107
17.269,-0.156,0.848,0.084
17.279,-0.119,0.854,0.076
17.289,-0.066,0.822,0.051
17.299,-0.014,0.824,0.047
17.309,0.025,0.824,0.045
17.319,0.027,0.836,0.035
17.328,-0.006,0.850,0.029
17.338,-0.006,0.877,0.029
17.348,-0.012,0.871,0.021
17.358,-0.002,0.904,-0.008
17.368,0.016,0.971,0.002
17.378,0.023,1.025,0.000
17.388,0.043,1.068,0.004
17.398,0.037,1.043,-0.004
17.408,0.031,1.047,-0.004
17.418,0.059,1.062,-0.016
17.428,0.070,1.121,0.000
17.438,0.072,1.180,0.021
17.448,0.025,1.219,0.039
17.457,-0.031,1.225,0.023
17.467,-0.062,1.209,0.008
17.477,-0.057,1.207,0.004
17.487,-0.041,1.201,0.021
17.497,-0.047,1.180,0.029
17.507,-0.045,1.145,0.023
17.517,-0.049,1.123,0.021
17.527,-0.051,1.104,0.016
17.537,-0.045,1.076,0.029
17.547,-0.039,1.057,0.043
17.557,-0.023,1.039,0.055
17.567,-0.016,1.002,0.068
17.577,-0.018,0.977,0.072
17.586,-0.035,0.934,0.053
17.596,-0.051,0.881,0.047
17.606,-0.068,0.842,0.049
17.616,-0.088,0.848,0.064
17.626,-0.094,0.887,0.125
17.636,-0.088,0.887,0.146
17.646,-0.076,0.836,0.150
17.656,-0.098,0.805,0.127
17.666,-0.104,0.742,0.127
17.676,-0.105,0.688,0.119
17.686,-0.127,0.660,0.109
17.696,-0.100,0.654,0.121
17.705,-0.068,0.699,0.139
17.715,-0.059,0.768,0.139
17.725,-0.049,0.834,0.139
17.735,-0.072,0.844,0.146
17.745,-0.086,0.805,0.131
17.755,-0.105,0.814,0.111
17.765,-0.121,0.848,0.129
17.775,-0.154,0.879,0.131
17.785,-0.184,0.910,0.131
17.795,-0.219,0.959,0.152
17.805,-0.277,0.980,0.156
17.815,-0.297,0.955,0.137
17.825,-0.293,0.959,0.119
17.834,-0.277,0.982,0.109
17.844,-0.256,0.996,0.137
17.854,-0.221,1.014,0.154
17.864,-0.213,0.990,0.182
17.874,-0.225,0.990,0.176
17.884,-0.234,0.996,0.168
17.894,-0.242,1.074,0.191
17.904,-0.238,1.092,0.189
17.914,-0.229,1.100,0.170
17.924,-0.188,1.107,0.160
17.934,-0.166,1.088,0.152
17.944,-0.139,1.082,0.139
17.954,-0.158,1.107,0.148
17.963,-0.176,1.092,0.129
17.973,-0.164,1.070,0.117
17.983,-0.148,1.025,0.100
17.993,-0.148,0.996,0.078
18.003,-0.143,1.000,0.068
18.013,-0.115,1.049,0.082
18.023,-0.131,1.076,0.100
18.033,-0.158,1.082,0.092
18.043,-0.174,1.057,0.080
18.053,-0.186,1.047,0.082
18.063,-0.166,1.033,0.100
18.073,-0.143,0.988,0.109
18.082,-0.154,0.951,0.121
18.092,-0.164,0.918,0.115
18.102,-0.184,0.869,0.113
18.112,-0.223,0.844,0.104
18.122,-0.234,0.848,0.111
18.132,-0.234,0.879,0.121
18.142,-0.174,0.916,0.133
18.152,-0.127,0.961,0.162
18.162,-0.150,1.008,0.203
18.172,-0.184,0.996,0.186
18.182,-0.199,0.965,0.166
18.192,-0.191,0.914,0.180
18.202,-0.250,0.887,0.160
18.211,-0.195,0.889,0.141
18.221,-0.176,0.922,0.174
18.231,-0.209,0.955,0.166
18.241,-0.213,0.980,0.168
18.251,-0.227,1.004,0.174
18.261,-0.234,0.994,0.148
18.271,-0.225,1.006,0.146
18.281,-0.219,1.002,0.154
18.291,-0.211,0.982,0.146
18.301,-0.197,0.979,0.141
18.311,-0.178,0.986,0.139
18.321,-0.174,0.984,0.137
18.331,-0.172,0.961,0.131
18.340,-0.156,0.943,0.119
18.350,-0.146,0.932,0.115
18.360,-0.152,0.926,0.115
18.370,-0.166,0.920,0.113
18.380,-0.186,0.916,0.107
18.390,-0.195,0.922,0.109
18.400,-0.186,0.936,0.107
18.410,-0.184,0.953,0.113
18.420,-0.174,0.967,0.113
18.430,-0.166,0.969,0.111
18.440,-0.176,0.973,0.104
18.450,-0.164,0.977,0.100
18.460,-0.178,0.975,0.102
18.469,-0.154,0.980,0.098
18.479,-0.152,0.980,0.105
18.489,-0.166,0.979,0.111
18.499,-0.189,0.977,0.111
18.509,-0.188,0.967,0.107
18.519,-0.186,0.959,0.109
18.529,-0.184,0.955,0.109
18.539,-0.178,0.959,0.109
18.549,-0.168,0.971,0.121
18.559,-0.154,0.977,0.131
18.569,-0.166,0.971,0.123
18.579,-0.152,0.969,0.119
18.588,-0.158,0.973,0.121
18.598,-0.166,0.973,0.119
18.608,-0.164,0.969,0.117
18.618,-0.164,0.959,0.121
18.628,-0.166,0.959,0.121
18.638,-0.168,0.969,0.121
18.648,-0.154,0.969,0.127
18.658,-0.158,0.963,0.123
18.668,-0.145,0.951,0.121
18.678,-0.129,0.943,0.123
18.688,-0.119,0.939,0.125
18.698,-0.121,0.955,0.121
18.708,-0.129,0.945,0.127
18.717,-0.137,0.941,0.109
18.727,-0.131,0.943,0.104
18.737,-0.139,0.941,0.104
18.747,-0.139,0.951,0.092
18.757,-0.119,0.943,0.098
18.767,-0.115,0.945,0.080
18.777,-0.107,0.980,0.088
18.787,-0.117,1.008,0.105
18.797,-0.131,1.014,0.100
18.807,-0.145,1.023,0.096
18.817,-0.137,1.027,0.105
18.827,-0.139,1.018,0.109
18.837,-0.150,0.994,0.104
18.846,-0.160,0.971,0.107
18.856,-0.174,0.961,0.111
18.866,-0.184,0.967,0.105
18.876,-0.199,0.977,0.111
18.886,-0.203,0.998,0.111
18.896,-0.207,1.018,0.113
18.906,-0.207,1.018,0.115
18.916,-0.197,1.006,0.115
18.926,-0.186,0.975,0.117
18.936,-0.176,0.963,0.111
18.946,-0.168,0.955,0.109
18.956,-0.166,0.951,0.107
18.965,-0.172,0.928,0.104
18.975,-0.176,0.916,0.105
18.985,-0.172,0.924,0.102
18.995,-0.156,0.926,0.104
19.005,-0.137,0.916,0.113
19.015,-0.127,0.912,0.111
19.025,-0.119,0.918,0.119
19.035,-0.123,0.920,0.125
19.045,-0.133,0.922,0.125
19.055,-0.145,0.916,0.117
19.065,-0.152,0.926,0.115
19.075,-0.150,0.943,0.121
19.085,-0.141,0.961,0.125
19.094,-0.148,0.977,0.127
19.104,-0.154,0.982,0.133
19.114,-0.158,0.973,0.127
19.124,-0.158,0.961,0.123
19.134,-0.156,0.945,0.113
19.144,-0.152,0.947,0.115
19.154,-0.139,0.953,0.113
19.164,-0.137,0.965,0.117
19.174,-0.135,0.988,0.119
19.184,-0.139,1.010,0.117
19.194,-0.156,1.037,0.119
19.204,-0.174,1.051,0.117
19.214,-0.188,1.045,0.111
19.223,-0.188,1.033,0.107
19.233,-0.186,1.008,0.107
19.243,-0.164,0.988,0.109
19.253,-0.146,0.969,0.109
19.263,-0.141,0.951,0.115
19.273,-0.139,0.963,0.113
19.283,-0.141,0.957,0.117
19.293,-0.148,0.941,0.107
19.303,-0.145,0.943,0.109
19.313,-0.141,0.947,0.113
19.323,-0.135,0.953,0.117
19.333,-0.129,0.949,0.127
19.343,-0.131,0.945,0.129
19.352,-0.129,0.947,0.139
19.362,-0.127,0.953,0.143
19.372,-0.119,0.969,0.152
19.382,-0.092,0.977,0.160
19.392,-0.059,0.992,0.170
19.402,-0.014,1.008,0.182
19.412,0.035,0.996,0.174
19.422,0.068,0.996,0.172
19.432,0.096,1.031,0.182
19.442,0.158,1.123,0.201
19.452,0.195,1.215,0.238
19.462,0.215,1.268,0.230
19.471,0.225,1.229,0.186
19.481,0.225,1.160,0.135
19.491,0.195,1.096,0.096
19.501,0.162,1.074,0.072
19.511,0.098,1.055,0.062
19.521,0.053,1.021,0.035
19.531,0.012,0.969,0.016
19.541,-0.006,0.912,-0.020
19.551,-0.043,0.857,-0.031
19.561,-0.088,0.822,-0.047
19.571,-0.125,0.797,-0.047
19.581,-0.180,0.754,-0.055
19.591,-0.236,0.711,-0.074
19.600,-0.260,0.715,-0.078
19.610,-0.303,0.688,-0.061
19.620,-0.320,0.646,-0.088
19.630,-0.340,0.662,-0.094
19.640,-0.383,0.717,-0.078
19.650,-0.443,0.805,-0.041
19.660,-0.508,0.885,-0.012
19.670,-0.572,0.936,0.006
19.680,-0.629,0.961,0.016
19.690,-0.660,0.957,0.021
19.700,-0.678,0.955,0.008
19.710,-0.680,0.943,0.010
19.720,-0.664,0.926,0.020
19.729,-0.646,0.910,0.037
19.739,-0.639,0.889,0.045
19.749,-0.621,0.857,0.043
19.759,-0.574,0.855,0.068
19.769,-0.541,0.863,0.100
19.779,-0.539,0.850,0.094
19.789,-0.516,0.852,0.100
19.799,-0.510,0.854,0.119
19.809,-0.520,0.836,0.121
19.819,-0.539,0.793,0.111
19.829,-0.549,0.787,0.092
19.839,-0.551,0.830,0.094
19.848,-0.549,0.859,0.094
19.858,-0.525,0.861,0.102
19.868,-0.510,0.898,0.113
19.878,-0.498,0.930,0.125
19.888,-0.502,0.926,0.115
19.898,-0.541,0.891,0.100
19.908,-0.570,0.879,0.070
19.918,-0.570,0.891,0.064
19.928,-0.559,0.895,0.059
19.938,-0.553,0.873,0.043
19.948,-0.543,0.834,0.035
19.958,-0.539,0.852,0.014
19.968,-0.521,0.875,0.016
19.977,-0.520,0.857,-0.006
19.987,-0.535,0.865,-0.027
19.997,-0.531,0.877,-0.027
20.007,-0.529,0.875,-0.027
20.017,-0.527,0.879,-0.027
20.027,-0.523,0.861,-0.023
20.037,-0.516,0.842,-0.014
20.047,-0.521,0.850,0.002
20.057,-0.525,0.877,0.008
20.067,-0.525,0.881,0.016
20.077,-0.533,0.881,0.016
20.087,-0.537,0.900,0.021
20.097,-0.535,0.904,0.031
20.106,-0.539,0.904,0.045
20.116,-0.531,0.902,0.055
20.126,-0.512,0.875,0.049
20.136,-0.480,0.865,0.055
20.146,-0.488,0.850,0.068
20.156,-0.492,0.816,0.061
20.166,-0.498,0.818,0.080
20.176,-0.537,0.814,0.084
20.186,-0.574,0.807,0.061
20.196,-0.588,0.797,0.055
20.206,-0.580,0.811,0.064
20.216,-0.537,0.830,0.086
20.226,-0.512,0.873,0.111
20.235,-0.516,0.879,0.119
20.245,-0.531,0.908,0.119
20.255,-0.584,0.885,0.100
20.265,-0.617,0.855,0.057
20.275,-0.631,0.824,0.047
20.285,-0.621,0.816,0.051
20.295,-0.600,0.846,0.084
20.305,-0.621,0.893,0.100
20.315,-0.648,0.895,0.080
20.325,-0.652,0.852,0.049
20.335,-0.674,0.809,0.016
20.345,-0.674,0.793,-0.002
20.354,-0.613,0.805,-0.006
20.364,-0.564,0.832,0.020
20.374,-0.529,0.850,0.014
20.384,-0.484,0.852,0.004
20.394,-0.414,0.859,-0.004
20.404,-0.316,0.883,-0.004
20.414,-0.254,0.906,0.016
20.424,-0.230,0.893,-0.002
20.434,-0.197,0.865,-0.004
20.444,-0.178,0.869,-0.004
20.454,-0.121,0.914,0.016
20.464,-0.041,0.947,0.045
20.474,0.008,0.977,0.078
20.483,0.045,1.004,0.094
20.493,0.076,1.018,0.107
20.503,0.111,1.008,0.115
20.513,0.121,0.986,0.111
20.523,0.139,0.994,0.117
20.533,0.166,1.000,0.139
20.543,0.158,0.998,0.156
20.553,0.148,0.982,0.156
20.563,0.162,0.967,0.168
20.573,0.180,0.975,0.191
20.583,0.189,0.973,0.199
20.593,0.188,0.967,0.195
20.603,0.156,0.963,0.197
20.612,0.100,0.959,0.205
20.622,0.027,0.938,0.195
20.632,-0.010,0.939,0.186
20.642,-0.014,0.959,0.203
20.652,-0.006,0.986,0.229
20.662,0.023,0.977,0.227
20.672,0.047,0.975,0.234
20.682,0.043,0.961,0.227
20.692,0.018,0.949,0.201
20.702,-0.002,0.959,0.186
20.712,0.002,0.988,0.189
20.722,0.014,0.986,0.199
20.731,0.020,0.973,0.203
20.741,0.008,0.965,0.203
20.751,-0.025,0.941,0.195
20.761,-0.047,0.932,0.180
20.771,-0.053,0.961,0.191
20.781,-0.039,0.965,0.195
20.791,-0.033,0.963,0.191
20.801,-0.020,0.979,0.201
20.811,-0.016,0.982,0.209
20.821,-0.014,0.982,0.203
20.831,-0.012,0.984,0.203
20.841,-0.002,0.990,0.205
20.851,0.004,0.986,0.205
20.860,0.014,0.975,0.195
20.870,-0.002,0.977,0.193
20.880,-0.031,0.971,0.193
20.890,-0.057,0.971,0.191
20.900,-0.062,0.982,0.188
20.910,-0.045,0.990,0.191
20.920,-0.021,0.994,0.203
20.930,-0.012,0.986,0.211
20.940,-0.008,0.961,0.205
20.950,-0.016,0.936,0.205
20.960,-0.033,0.930,0.199
20.970,-0.039,0.932,0.193
20.980,-0.033,0.943,0.193
20.989,-0.025,0.959,0.205
20.999,-0.020,0.961,0.203
21.009,-0.025,0.945,0.211
21.019,-0.035,0.941,0.207
21.029,-0.043,0.945,0.209
21.039,-0.041,0.955,0.211
21.049,-0.045,0.961,0.209
21.059,-0.053,0.971,0.205
21.069,-0.061,0.969,0.207
21.079,-0.064,0.969,0.205
21.089,-0.064,0.971,0.209
21.099,-0.064,0.969,0.209
21.109,-0.059,0.957,0.205
21.118,-0.051,0.959,0.205
21.128,-0.041,0.971,0.209
21.138,-0.049,0.971,0.207
21.148,-0.059,0.965,0.201
21.158,-0.072,0.963,0.203
21.168,-0.084,0.955,0.199
21.178,-0.088,0.955,0.189
21.188,-0.076,0.973,0.186
21.198,-0.064,0.982,0.191
21.208,-0.055,0.986,0.193
21.218,-0.043,0.986,0.193
21.228,-0.039,0.977,0.188
21.237,-0.049,0.961,0.182
21.247,-0.074,0.947,0.178
21.257,-0.082,0.961,0.178
21.267,-0.084,0.963,0.180
21.277,-0.090,0.957,0.180
21.287,-0.092,0.963,0.180
21.297,-0.086,0.971,0.180
21.307,-0.084,0.979,0.176
21.317,-0.080,0.988,0.182
21.327,-0.078,0.986,0.182
21.337,-0.098,0.965,0.174
21.347,-0.102,0.957,0.170
21.357,-0.098,0.957,0.172
21.366,-0.092,0.965,0.180
21.376,-0.078,0.969,0.178
21.386,-0.072,0.971,0.182
21.396,-0.076,0.965,0.172
21.406,-0.094,0.957,0.166
21.416,-0.111,0.953,0.160
21.426,-0.117,0.947,0.152
21.436,-0.100,0.971,0.158
21.446,-0.072,0.988,0.174
21.456,-0.068,0.986,0.176
21.466,-0.064,0.977,0.178
21.476,-0.090,0.945,0.174
21.486,-0.080,0.943,0.170
21.495,-0.086,0.941,0.195
21.505,-0.119,0.943,0.191
21.515,-0.127,0.955,0.203
21.525,-0.125,0.969,0.217
21.535,-0.135,0.963,0.213
21.545,-0.141,0.957,0.195
21.555,-0.139,0.961,0.186
21.565,-0.156,0.955,0.166
21.575,-0.154,0.955,0.150
21.585,-0.148,0.967,0.162
21.595,-0.135,0.975,0.172
21.605,-0.129,0.982,0.180
21.614,-0.125,0.986,0.186
21.624,-0.111,0.984,0.197
21.634,-0.121,0.959,0.188
21.644,-0.154,0.936,0.154
21.654,-0.145,0.977,0.156
21.664,-0.123,1.020,0.174
21.674,-0.121,1.033,0.188
21.684,-0.098,1.020,0.180
21.694,-0.051,1.016,0.186
21.704,-0.027,1.025,0.197
21.714,-0.012,1.023,0.199
21.724,-0.004,1.000,0.186
21.734,-0.021,0.953,0.170
21.743,-0.057,0.934,0.172
21.753,-0.094,0.936,0.188
21.763,-0.107,0.922,0.189
21.773,-0.059,0.906,0.211
21.783,-0.031,0.912,0.240
21.793,-0.102,0.893,0.234
21.803,-0.191,0.889,0.213
21.813,-0.254,0.867,0.199
21.823,-0.273,0.871,0.186
21.833,-0.264,0.896,0.186
21.843,-0.264,0.928,0.189
21.853,-0.266,0.936,0.174
21.863,-0.264,0.934,0.158
21.872,-0.283,0.926,0.146
21.882,-0.316,0.920,0.143
21.892,-0.309,0.928,0.084
21.902,-0.242,1.035,0.084
21.912,-0.217,1.062,0.096
21.922,-0.221,1.059,0.021
21.932,-0.186,1.098,0.006
21.942,-0.182,1.115,0.012
21.952,-0.227,1.113,-0.010
21.962,-0.205,1.117,-0.035
21.972,-0.158,1.119,-0.029
21.982,-0.137,1.076,-0.047
21.991,-0.137,1.029,-0.086
22.001,-0.143,1.025,-0.107
22.011,-0.143,1.010,-0.113
22.021,-0.141,0.986,-0.119
22.031,-0.139,0.990,-0.113
22.041,-0.137,0.924,-0.113
22.051,-0.143,0.877,-0.088
22.061,-0.193,0.844,-0.057
22.071,-0.238,0.809,-0.027
22.081,-0.213,0.805,-0.014
22.091,-0.213,0.812,0.021
22.101,-0.242,0.801,0.033
22.111,-0.256,0.781,0.029
22.120,-0.254,0.793,0.029
22.130,-0.221,0.816,0.043
22.140,-0.209,0.846,0.047
22.150,-0.238,0.867,0.023
22.160,-0.172,0.932,0.008
22.170,-0.086,1.002,0.062
22.180,-0.076,1.043,0.078
22.190,-0.109,1.084,0.051
22.200,-0.076,1.098,0.068
22.210,-0.115,1.074,0.098
22.220,-0.135,1.086,0.084
22.230,-0.098,1.088,0.133
22.240,-0.066,1.090,0.152
22.249,-0.105,1.027,0.148
22.259,-0.150,0.945,0.125
22.269,-0.207,0.906,0.104
22.279,-0.230,0.914,0.100
22.289,-0.221,0.949,0.104
22.299,-0.205,0.947,0.113
22.309,-0.199,0.965,0.105
22.319,-0.191,0.959,0.107
22.329,-0.176,0.928,0.086
22.339,-0.184,0.926,0.068
22.349,-0.184,0.934,0.053
22.359,-0.180,0.934,0.041
22.369,-0.156,0.939,0.043
22.378,-0.127,0.949,0.057
22.388,-0.143,0.953,0.064
22.398,-0.129,0.938,0.027
22.408,-0.150,0.908,0.027
22.418,-0.197,0.896,-0.006
22.428,-0.188,0.926,0.002
22.438,-0.176,0.975,0.043
22.448,-0.180,0.965,0.051
22.458,-0.180,0.975,0.039
22.468,-0.193,0.996,0.051
22.478,-0.240,1.006,0.051
22.488,-0.268,1.012,0.039
22.497,-0.275,1.010,0.037
22.507,-0.297,1.010,0.031
22.517,-0.330,1.000,0.021
22.527,-0.346,0.979,0.012
22.537,-0.346,0.992,0.014
22.547,-0.309,1.031,0.043
22.557,-0.270,1.076,0.070
22.567,-0.232,1.074,0.092
22.577,-0.230,1.002,0.078
22.587,-0.195,0.928,0.049
22.597,-0.174,0.861,0.041
22.607,-0.162,0.877,0.061
22.617,-0.166,0.902,0.088
22.626,-0.186,0.896,0.076
22.636,-0.207,0.873,0.053
22.646,-0.230,0.875,0.062
22.656,-0.273,0.893,0.059
22.666,-0.281,0.924,0.023
22.676,-0.215,1.000,0.068
22.686,-0.195,1.018,0.080
22.696,-0.201,0.951,0.025
22.706,-0.240,0.908,-0.006
22.716,-0.291,0.930,-0.002
22.726,-0.283,1.004,0.002
22.736,-0.291,1.064,0.020
22.746,-0.307,1.086,0.025
22.755,-0.328,1.074,0.027
22.765,-0.359,1.037,0.000
22.775,-0.383,1.021,-0.020
22.785,-0.369,0.990,-0.072
22.795,-0.301,0.971,-0.080
22.805,-0.234,0.992,-0.090
22.815,-0.178,1.027,-0.053
22.825,-0.152,0.938,-0.053
22.835,-0.195,0.797,-0.117
22.845,-0.203,0.744,-0.174
22.855,-0.189,0.885,-0.107
22.865,-0.230,1.000,0.006
22.874,-0.297,1.018,0.004
22.884,-0.303,0.996,0.059
22.894,-0.398,0.916,0.107
22.904,-0.520,0.834,0.051
22.914,-0.613,0.859,0.090
22.924,-0.697,0.990,0.123
22.934,-0.705,1.082,0.154
22.944,-0.680,1.072,0.154
22.954,-0.516,1.004,0.119
22.964,-0.342,0.984,0.102
22.974,-0.275,0.926,0.104
22.984,-0.244,0.818,0.053
22.994,-0.287,0.758,0.014
23.003,-0.348,0.752,-0.004
23.013,-0.375,0.736,-0.053
23.023,-0.361,0.742,-0.055
23.033,-0.291,0.732,-0.111
23.043,-0.250,0.705,-0.152
23.053,-0.262,0.713,-0.174
23.063,-0.277,0.775,-0.176
23.073,-0.283,0.846,-0.150
23.083,-0.270,0.928,-0.129
23.093,-0.193,0.934,-0.104
23.103,-0.107,0.908,-0.094
23.113,-0.104,0.887,-0.064
23.123,-0.080,0.986,-0.041
23.132,-0.076,1.066,0.020
23.142,-0.154,1.113,0.137
23.152,-0.211,1.172,0.127
23.162,-0.229,1.232,0.139
23.172,-0.213,1.279,0.158
23.182,-0.207,1.277,0.150
23.192,-0.174,1.209,0.184
23.202,-0.148,1.055,0.201
23.212,-0.166,0.850,0.213
23.222,-0.160,0.723,0.223
23.232,-0.189,0.709,0.277
23.242,-0.219,0.719,0.266
23.252,-0.207,0.701,0.197
23.261,-0.186,0.652,0.150
23.271,-0.225,0.557,0.033
23.281,-0.287,0.613,-0.031
23.291,-0.379,0.656,-0.064
23.301,-0.447,0.689,-0.141
23.311,-0.465,0.684,-0.217
23.321,-0.473,0.801,-0.232
23.331,-0.426,0.971,-0.227
23.341,-0.293,1.061,-0.182
23.351,-0.199,1.121,-0.172
23.361,-0.188,1.162,-0.166
23.371,-0.305,1.164,-0.180
23.380,-0.463,1.174,-0.205
23.390,-0.566,1.277,-0.148
23.400,-0.664,1.322,-0.109
23.410,-0.717,1.250,-0.166
23.420,-0.625,1.240,-0.137
23.430,-0.457,1.168,-0.100
23.440,-0.293,1.055,-0.125
23.450,-0.123,0.990,-0.064
23.460,-0.021,0.957,-0.004
23.470,-0.057,0.877,0.000
23.480,-0.168,0.822,-0.008
23.490,-0.258,0.818,-0.004
23.500,-0.324,0.787,-0.018
23.509,-0.340,0.811,-0.051
23.519,-0.309,0.832,-0.035
23.529,-0.307,0.791,-0.062
23.539,-0.227,0.715,-0.121
23.549,-0.229,0.607,-0.156
23.559,-0.158,0.635,-0.199
23.569,-0.160,0.764,-0.148
23.579,-0.219,0.883,-0.133
23.589,-0.227,0.930,-0.121
23.599,-0.248,0.979,-0.117
23.609,-0.264,1.049,-0.094
23.619,-0.330,1.076,-0.092
23.629,-0.461,1.152,-0.092
23.638,-0.496,1.311,-0.078
23.648,-0.461,1.396,-0.033
23.658,-0.379,1.350,-0.008
23.668,-0.311,1.176,-0.023
23.678,-0.330,0.951,-0.055
23.688,-0.371,0.719,-0.107
23.698,-0.314,0.627,-0.090
23.708,-0.266,0.668,-0.037
23.718,-0.266,0.795,0.029
23.728,-0.299,0.834,0.027
23.738,-0.299,0.844,0.002
23.748,-0.344,0.842,-0.037
23.757,-0.377,0.795,-0.096
23.767,-0.363,0.793,-0.125
23.777,-0.375,0.732,-0.174
23.787,-0.379,0.699,-0.195
23.797,-0.430,0.711,-0.201
23.807,-0.432,0.791,-0.195
23.817,-0.428,0.854,-0.182
23.827,-0.391,0.949,-0.148
23.837,-0.322,0.992,-0.119
23.847,-0.324,1.045,-0.070
23.857,-0.326,1.105,-0.051
23.867,-0.328,1.064,-0.037
23.877,-0.355,1.012,-0.076
23.886,-0.404,1.039,-0.096
23.896,-0.441,1.111,-0.090
23.906,-0.492,1.197,-0.082
23.916,-0.451,1.205,-0.070
23.926,-0.379,1.131,-0.062
23.936,-0.365,1.049,-0.074
23.946,-0.328,0.947,-0.070
23.956,-0.264,0.748,-0.068
23.966,-0.230,0.598,-0.121
23.976,-0.234,0.627,-0.094
23.986,-0.285,0.693,-0.053
23.996,-0.342,0.721,-0.066
24.006,-0.393,0.771,-0.078
24.015,-0.449,0.844,-0.074
24.025,-0.479,0.857,-0.094
24.035,-0.500,0.848,-0.105
24.045,-0.443,0.859,-0.104
24.055,-0.357,0.863,-0.107
24.065,-0.312,0.896,-0.100
24.075,-0.320,0.980,-0.092
24.085,-0.316,0.979,-0.111
24.095,-0.389,0.896,-0.137
24.105,-0.457,0.932,-0.135
24.115,-0.484,1.029,-0.094
24.125,-0.514,1.105,-0.055
24.135,-0.547,1.178,-0.029
24.144,-0.521,1.145,-0.045
24.154,-0.514,1.119,-0.051
24.164,-0.502,1.139,-0.020
24.174,-0.387,1.045,0.055
24.184,-0.287,0.770,0.012
24.194,-0.264,0.582,-0.061
24.204,-0.234,0.596,-0.045
24.214,-0.184,0.625,-0.020
24.224,-0.197,0.666,-0.033
24.234,-0.252,0.770,-0.059
24.244,-0.270,0.848,-0.119
24.254,-0.262,0.820,-0.180
24.263,-0.309,0.814,-0.215
24.273,-0.426,0.777,-0.246
24.283,-0.510,0.820,-0.250
24.293,-0.549,0.891,-0.215
24.303,-0.453,0.943,-0.184
24.313,-0.334,0.982,-0.170
24.323,-0.330,1.121,-0.131
24.333,-0.365,1.189,-0.107
24.343,-0.408,1.197,-0.127
24.353,-0.410,1.209,-0.066
24.363,-0.379,1.080,-0.041
24.373,-0.400,0.963,-0.061
24.383,-0.465,0.945,-0.043
24.392,-0.512,0.947,-0.004
24.402,-0.545,0.971,0.014
24.412,-0.578,1.002,0.041
24.422,-0.590,1.010,0.035
24.432,-0.564,1.002,0.059
24.442,-0.535,0.965,0.070
24.452,-0.514,0.842,0.021
24.462,-0.488,0.770,-0.021
24.472,-0.426,0.766,-0.047
24.482,-0.406,0.768,-0.049
24.492,-0.404,0.738,-0.049
24.502,-0.400,0.664,-0.082
24.512,-0.344,0.678,-0.086
24.521,-0.340,0.699,-0.045
24.531,-0.369,0.754,-0.037
24.541,-0.373,0.762,-0.062
24.551,-0.396,0.781,-0.074
24.561,-0.459,0.850,-0.109
24.571,-0.455,0.914,-0.111
24.581,-0.375,0.959,-0.070
24.591,-0.268,0.926,-0.033
24.601,-0.201,0.879,-0.018
24.611,-0.174,0.838,-0.031
24.621,-0.180,0.756,-0.084
24.631,-0.174,0.680,-0.115
24.640,-0.113,0.598,-0.152
24.650,-0.074,0.607,-0.135
24.660,-0.051,0.746,-0.133
24.670,-0.020,0.875,-0.066
24.680,-0.090,0.916,-0.057
24.690,-0.289,0.998,-0.098
24.700,-0.422,1.070,-0.104
24.710,-0.539,1.223,-0.053
24.720,-0.611,1.324,-0.021
24.730,-0.570,1.379,0.018
24.740,-0.531,1.377,0.072
24.750,-0.504,1.309,0.078
24.760,-0.498,1.207,0.113
24.769,-0.547,1.092,0.180
24.779,-0.621,0.947,0.197
24.789,-0.699,0.832,0.221
24.799,-0.715,0.752,0.211
24.809,-0.705,0.711,0.193
24.819,-0.654,0.711,0.174
24.829,-0.609,0.709,0.115
24.839,-0.576,0.713,0.066
24.849,-0.492,0.730,0.010
24.859,-0.338,0.641,-0.041
24.869,-0.225,0.564,-0.107
24.879,-0.217,0.525,-0.137
24.889,-0.236,0.576,-0.156
24.898,-0.291,0.719,-0.150
24.908,-0.338,0.859,-0.158
24.918,-0.340,0.982,-0.139
24.928,-0.328,1.064,-0.115
24.938,-0.275,1.088,-0.129
24.948,-0.273,0.980,-0.117
24.958,-0.365,0.988,-0.143
24.968,-0.453,1.055,-0.105
24.978,-0.486,1.117,-0.057
24.988,-0.469,1.180,-0.006
24.998,-0.480,1.227,0.016
25.008,-0.514,1.139,0.031
25.018,-0.504,0.979,-0.016
25.027,-0.520,0.859,-0.031
25.037,-0.529,0.848,-0.039
25.047,-0.500,0.885,-0.043
25.057,-0.410,0.900,-0.029
25.067,-0.264,0.840,-0.061
25.077,-0.240,0.793,-0.088
25.087,-0.264,0.830,-0.104
25.097,-0.311,0.801,-0.117
25.107,-0.316,0.783,-0.127
25.117,-0.305,0.748,-0.143
25.127,-0.297,0.727,-0.137
25.137,-0.273,0.754,-0.125
25.146,-0.332,0.795,-0.117
25.156,-0.396,0.865,-0.111
25.166,-0.443,0.945,-0.064
25.176,-0.473,0.990,-0.088
25.186,-0.426,1.004,-0.096
25.196,-0.344,1.045,-0.074
25.206,-0.299,1.086,-0.061
25.216,-0.281,1.076,-0.064
25.226,-0.311,1.010,-0.086
25.236,-0.332,0.926,-0.090
25.246,-0.359,0.891,-0.098
25.256,-0.404,0.881,-0.078
25.266,-0.436,0.871,-0.098
25.275,-0.434,0.871,-0.102
25.285,-0.426,0.854,-0.086
25.295,-0.420,0.807,-0.074
25.305,-0.436,0.785,-0.080
25.315,-0.441,0.820,-0.051
25.325,-0.467,0.859,-0.047
25.335,-0.461,0.879,-0.066
25.345,-0.402,0.938,-0.025
25.355,-0.408,0.924,-0.012
25.365,-0.416,0.859,-0.035
25.375,-0.469,0.818,-0.070
25.385,-0.467,0.842,-0.070
25.395,-0.477,0.871,-0.074
25.404,-0.479,0.986,-0.076
25.414,-0.482,1.082,-0.057
25.424,-0.451,1.127,-0.045
25.434,-0.385,1.096,-0.037
25.444,-0.326,1.023,-0.027
25.454,-0.318,0.947,-0.023
25.464,-0.352,0.906,-0.023
25.474,-0.379,0.930,-0.004
25.484,-0.383,0.914,0.010
25.494,-0.340,0.859,0.006
25.504,-0.303,0.822,0.004
25.514,-0.330,0.785,-0.016
25.523,-0.357,0.775,-0.016
25.533,-0.387,0.803,-0.027
25.543,-0.404,0.846,-0.012
25.553,-0.377,0.875,0.000
25.563,-0.371,0.859,0.002
25.573,-0.361,0.857,-0.018
25.583,-0.371,0.836,-0.012
25.593,-0.416,0.836,-0.047
25.603,-0.412,0.855,-0.033
25.613,-0.422,0.898,-0.047
25.623,-0.410,0.957,-0.053
25.633,-0.391,1.008,-0.035
25.643,-0.408,1.018,-0.037
25.652,-0.428,0.992,-0.041
25.662,-0.438,0.951,-0.045
25.672,-0.465,0.922,-0.047
25.682,-0.445,0.938,-0.053
25.692,-0.416,0.957,-0.020
25.702,-0.369,0.963,-0.010
25.712,-0.324,0.918,-0.006
25.722,-0.311,0.863,-0.020
25.732,-0.311,0.838,-0.023
25.742,-0.336,0.877,-0.023
25.752,-0.354,0.916,-0.027
25.762,-0.312,0.982,-0.023
25.772,-0.264,1.057,-0.002
25.781,-0.189,1.088,0.002
25.791,-0.131,1.043,-0.016
25.801,-0.170,0.965,-0.064
25.811,-0.209,0.941,-0.105
25.821,-0.250,0.914,-0.127
25.831,-0.268,0.982,-0.121
25.841,-0.213,1.074,-0.090
25.851,-0.139,1.100,-0.102
25.861,-0.164,1.061,-0.158
25.871,-0.176,1.025,-0.193
25.881,-0.230,0.967,-0.256
25.891,-0.242,0.926,-0.281
25.900,-0.250,0.920,-0.275
25.910,-0.264,0.924,-0.285
25.920,-0.305,0.916,-0.295
25.930,-0.344,0.936,-0.332
25.940,-0.408,0.848,-0.373
25.950,-0.480,0.742,-0.451
25.960,-0.533,0.762,-0.412
25.970,-0.535,0.811,-0.338
25.980,-0.480,0.824,-0.279
25.990,-0.482,0.799,-0.262
26.000,-0.516,0.838,-0.270
26.010,-0.529,0.844,-0.273
26.020,-0.553,0.809,-0.270
26.029,-0.555,0.852,-0.256
26.039,-0.525,0.871,-0.234
26.049,-0.523,0.885,-0.213
26.059,-0.477,0.906,-0.180
26.069,-0.506,0.881,-0.176
26.079,-0.564,0.871,-0.172
26.089,-0.617,0.830,-0.191
26.099,-0.641,0.803,-0.152
26.109,-0.658,0.773,-0.125
26.119,-0.627,0.781,-0.100
26.129,-0.570,0.799,-0.059
26.139,-0.516,0.797,-0.053
26.149,-0.490,0.811,-0.041
26.158,-0.463,0.828,-0.055
26.168,-0.510,0.809,-0.045
26.178,-0.535,0.809,-0.047
26.188,-0.545,0.764,-0.029
26.198,-0.488,0.791,0.006
26.208,-0.479,0.836,0.029
26.218,-0.488,0.932,0.045
26.228,-0.508,0.967,0.045
26.238,-0.527,0.926,0.018
26.248,-0.523,0.924,0.006
26.258,-0.525,0.902,-0.008
26.268,-0.506,0.936,-0.010
26.278,-0.447,0.977,0.020
26.287,-0.455,0.963,0.002
26.297,-0.475,0.951,-0.029
26.307,-0.559,0.869,-0.070
26.317,-0.535,0.852,-0.064
26.327,-0.506,0.812,-0.035
26.337,-0.494,0.787,-0.012
26.347,-0.436,0.854,0.035
26.357,-0.406,0.824,0.064
26.367,-0.395,0.795,0.047
26.377,-0.369,0.775,0.062
26.387,-0.377,0.736,0.057
26.397,-0.377,0.752,0.061
26.406,-0.391,0.785,0.059
26.416,-0.396,0.877,0.066
26.426,-0.402,0.908,0.061
26.436,-0.465,0.908,0.023
26.446,-0.504,0.941,0.010
26.456,-0.527,0.975,0.033
26.466,-0.555,1.000,0.025
26.476,-0.529,0.998,0.033
26.486,-0.473,0.998,0.051
26.496,-0.445,1.021,0.064
26.506,-0.402,1.018,0.068
26.516,-0.412,0.980,0.061
26.526,-0.395,0.918,0.051
26.535,-0.400,0.855,0.062
26.545,-0.438,0.848,0.074
26.555,-0.453,0.816,0.064
26.565,-0.439,0.801,0.078
26.575,-0.393,0.785,0.086
26.585,-0.369,0.758,0.076
26.595,-0.357,0.775,0.082
26.605,-0.355,0.824,0.090
26.615,-0.373,0.846,0.090
26.625,-0.381,0.877,0.094
26.635,-0.369,0.914,0.107
26.645,-0.336,0.924,0.102
26.655,-0.320,0.943,0.098
26.664,-0.344,0.973,0.094
26.674,-0.371,0.988,0.094
26.684,-0.385,0.975,0.074
26.694,-0.391,0.988,0.086
26.704,-0.393,0.973,0.080
26.714,-0.412,0.979,0.088
26.724,-0.418,1.010,0.092
26.734,-0.396,0.992,0.082
26.744,-0.369,0.947,0.064
26.754,-0.354,0.957,0.055
26.764,-0.338,0.953,0.043
26.774,-0.346,0.947,0.027
26.783,-0.346,0.953,-0.008
26.793,-0.367,0.918,-0.047
26.803,-0.369,0.895,-0.098
26.813,-0.367,0.936,-0.109
26.823,-0.381,0.984,-0.119
26.833,-0.393,1.033,-0.133
26.843,-0.398,1.043,-0.143
26.853,-0.416,1.004,-0.170
26.863,-0.434,0.980,-0.189
26.873,-0.447,0.955,-0.186
26.883,-0.445,0.936,-0.174
26.893,-0.445,0.895,-0.172
26.903,-0.441,0.869,-0.170
26.912,-0.412,0.852,-0.150
26.922,-0.402,0.830,-0.135
26.932,-0.400,0.801,-0.139
26.942,-0.414,0.789,-0.133
26.952,-0.418,0.779,-0.131
26.962,-0.414,0.779,-0.111
26.972,-0.387,0.773,-0.086
26.982,-0.379,0.779,-0.066
26.992,-0.391,0.779,-0.062
27.002,-0.406,0.758,-0.064
27.012,-0.416,0.756,-0.068
27.022,-0.438,0.773,-0.064
27.032,-0.471,0.791,-0.068
27.041,-0.459,0.805,-0.076
27.051,-0.414,0.824,-0.059
27.061,-0.391,0.820,-0.043
27.071,-0.412,0.814,-0.049
27.081,-0.441,0.814,-0.059
27.091,-0.463,0.812,-0.062
27.101,-0.469,0.844,-0.059
27.111,-0.471,0.869,-0.043
27.121,-0.432,0.924,-0.016
27.131,-0.391,0.969,0.010
27.141,-0.373,0.963,-0.002
27.151,-0.361,0.953,-0.018
27.161,-0.391,0.902,-0.045
27.170,-0.432,0.867,-0.084
27.180,-0.469,0.855,-0.098
27.190,-0.490,0.857,-0.117
27.200,-0.484,0.883,-0.133
27.210,-0.477,0.918,-0.137
27.220,-0.434,0.949,-0.139
27.230,-0.422,0.998,-0.109
27.240,-0.434,0.961,-0.117
27.250,-0.428,0.928,-0.133
27.260,-0.447,0.928,-0.123
27.270,-0.467,0.895,-0.133
27.280,-0.453,0.885,-0.135
27.289,-0.434,0.895,-0.113
27.299,-0.410,0.902,-0.107
27.309,-0.395,0.920,-0.076
27.319,-0.377,0.922,-0.064
27.329,-0.375,0.896,-0.053
27.339,-0.373,0.885,-0.057
27.349,-0.381,0.879,-0.053
27.359,-0.383,0.873,-0.070
27.369,-0.348,0.867,-0.078
27.379,-0.324,0.902,-0.062
27.389,-0.328,0.943,-0.057
27.399,-0.348,0.961,-0.051
27.409,-0.391,0.969,-0.055
27.418,-0.418,0.973,-0.053
27.428,-0.432,0.961,-0.051
27.438,-0.441,0.951,-0.057
27.448,-0.434,0.963,-0.080
27.458,-0.408,0.963,-0.084
27.468,-0.367,0.957,-0.088
27.478,-0.297,0.943,-0.080
27.488,-0.270,0.953,-0.068
27.498,-0.260,0.959,-0.057
27.508,-0.264,0.973,-0.051
27.518,-0.289,0.990,-0.039
27.528,-0.293,1.021,-0.045
27.538,-0.275,0.982,-0.055
27.547,-0.254,0.932,-0.076
27.557,-0.232,0.906,-0.076
27.567,-0.209,0.918,-0.092
27.577,-0.207,0.982,-0.074
27.587,-0.250,1.033,-0.062
27.597,-0.307,1.037,-0.072
27.607,-0.307,1.049,-0.084
27.617,-0.307,1.014,-0.092
27.627,-0.312,0.982,-0.121
27.637,-0.309,0.949,-0.125
27.647,-0.303,0.959,-0.125
27.657,-0.295,0.938,-0.129
27.666,-0.301,0.920,-0.129
27.676,-0.297,0.932,-0.119
27.686,-0.287,0.930,-0.113
27.696,-0.271,0.932,-0.113
27.706,-0.248,0.934,-0.096
27.716,-0.232,0.902,-0.105
27.726,-0.221,0.902,-0.096
27.736,-0.211,0.898,-0.088
27.746,-0.229,0.889,-0.086
27.756,-0.230,0.900,-0.078
27.766,-0.232,0.889,-0.076
27.776,-0.236,0.889,-0.070
27.786,-0.236,0.889,-0.072
27.795,-0.230,0.900,-0.064
27.805,-0.230,0.928,-0.059
27.815,-0.242,0.926,-0.062
27.825,-0.246,0.932,-0.062
27.835,-0.238,0.943,-0.059
27.845,-0.254,0.930,-0.049
27.855,-0.268,0.941,-0.051
27.865,-0.260,0.928,-0.055
27.875,-0.262,0.904,-0.064
27.885,-0.260,0.941,-0.051
27.895,-0.244,0.961,-0.039
27.905,-0.223,0.963,-0.033
27.915,-0.236,0.953,-0.023
27.924,-0.236,0.955,-0.016
27.934,-0.215,0.934,-0.012
27.944,-0.227,0.926,0.002
27.954,-0.236,0.918,0.000
27.964,-0.242,0.938,0.000
27.974,-0.240,0.930,-0.002
27.984,-0.266,0.938,-0.018
27.994,-0.277,0.951,-0.021
28.004,-0.281,0.943,-0.031
28.014,-0.283,0.926,-0.041
28.024,-0.295,0.918,-0.055
28.034,-0.299,0.928,-0.051
28.044,-0.283,0.926,-0.047
28.053,-0.258,0.949,-0.027
28.063,-0.236,0.936,0.023
28.073,-0.189,0.986,0.055
28.083,-0.182,1.043,0.059
28.093,-0.268,1.057,0.023
28.103,-0.354,1.041,-0.035
28.113,-0.383,1.057,0.006
28.123,-0.385,1.029,-0.004
28.133,-0.373,0.988,-0.016
28.143,-0.383,0.947,-0.039
28.153,-0.336,0.951,-0.066
28.163,-0.293,0.914,-0.064
28.172,-0.291,0.902,-0.076
28.182,-0.277,0.930,-0.070
28.192,-0.244,0.955,-0.047
28.202,-0.258,0.932,-0.033
28.212,-0.238,0.902,-0.023
28.222,-0.234,0.896,-0.008
28.232,-0.217,0.881,0.004
28.242,-0.227,0.855,0.014
28.252,-0.236,0.861,0.004
28.262,-0.240,0.840,0.014
28.272,-0.264,0.859,0.000
28.282,-0.291,0.852,-0.008
28.292,-0.312,0.842,-0.021
28.301,-0.312,0.846,-0.016
28.311,-0.314,0.857,-0.014
28.321,-0.305,0.891,0.000
28.331,-0.348,0.885,-0.004
28.341,-0.389,0.943,-0.014
28.351,-0.367,0.961,0.008
28.361,-0.369,0.938,-0.004
28.371,-0.373,0.920,-0.010
28.381,-0.365,0.922,-0.004
28.391,-0.369,0.912,-0.006
28.401,-0.381,0.928,0.002
28.411,-0.389,0.939,-0.002
28.421,-0.393,0.980,0.002
28.430,-0.391,0.992,-0.008
28.440,-0.377,0.998,-0.014
28.450,-0.377,0.996,-0.004
28.460,-0.373,0.990,-0.006
28.470,-0.367,0.988,-0.012
28.480,-0.352,1.000,-0.014
28.490,-0.348,0.982,-0.004
28.500,-0.352,0.973,-0.018
28.510,-0.348,0.982,-0.012
28.520,-0.334,0.979,-0.012
28.530,-0.320,0.963,-0.012
28.540,-0.299,0.949,-0.010
28.549,-0.281,0.947,-0.004
28.559,-0.270,0.941,-0.004
28.569,-0.266,0.916,-0.004
28.579,-0.258,0.893,-0.008
28.589,-0.271,0.873,-0.014
28.599,-0.283,0.891,-0.012
28.609,-0.273,0.896,-0.004
28.619,-0.279,0.910,0.000
28.629,-0.275,0.930,0.014
28.639,-0.285,0.932,0.008
28.649,-0.279,0.947,0.012
28.659,-0.303,0.949,0.006
28.669,-0.305,0.965,0.008
28.678,-0.309,0.963,0.018
28.688,-0.303,0.969,0.023
28.698,-0.301,0.936,0.016
28.708,-0.305,0.959,0.021
28.718,-0.314,0.965,0.029
28.728,-0.324,0.969,0.031
28.738,-0.336,0.973,0.033
28.748,-0.340,0.961,0.039
28.758,-0.338,0.930,0.031
28.768,-0.338,0.926,0.037
28.778,-0.344,0.910,0.023
28.788,-0.328,0.898,0.029
28.798,-0.318,0.893,0.033
28.807,-0.312,0.895,0.039
28.817,-0.303,0.885,0.039
28.827,-0.311,0.906,0.043
28.837,-0.324,0.924,0.041
28.847,-0.324,0.910,0.033
28.857,-0.322,0.912,0.035
28.867,-0.336,0.926,0.045
28.877,-0.328,0.932,0.045
28.887,-0.324,0.941,0.049
28.897,-0.338,0.951,0.043
28.907,-0.352,0.953,0.031
28.917,-0.373,0.973,0.025
28.927,-0.381,0.984,0.020
28.936,-0.365,0.979,0.025
28.946,-0.346,0.971,0.029
28.956,-0.322,0.953,0.033
28.966,-0.297,0.955,0.039
28.976,-0.285,0.959,0.043
28.986,-0.275,0.943,0.051
28.996,-0.277,0.936,0.041
29.006,-0.275,0.930,0.055
29.016,-0.279,0.918,0.051
29.026,-0.277,0.924,0.061
29.036,-0.277,0.916,0.053
29.046,-0.264,0.912,0.055
29.055,-0.271,0.936,0.059
29.065,-0.268,0.924,0.059
29.075,-0.264,0.920,0.059
29.085,-0.285,0.934,0.051
29.095,-0.303,0.941,0.051
29.105,-0.324,0.936,0.049
29.115,-0.340,0.955,0.049
29.125,-0.357,0.969,0.055
29.135,-0.381,0.979,0.061
29.145,-0.369,0.973,0.061
29.155,-0.375,0.965,0.059
29.165,-0.367,0.959,0.051
29.175,-0.389,0.936,0.055
29.184,-0.379,0.938,0.039
29.194,-0.355,0.924,0.057
29.204,-0.346,0.934,0.066
29.214,-0.344,0.941,0.082
29.224,-0.336,0.912,0.082
29.234,-0.355,0.912,0.062
29.244,-0.377,0.922,0.064
29.254,-0.381,0.902,0.068
29.264,-0.379,0.924,0.076
29.274,-0.361,0.926,0.078
29.284,-0.346,0.930,0.082
29.294,-0.344,0.924,0.088
29.304,-0.348,0.912,0.080
29.313,-0.359,0.906,0.076
29.323,-0.367,0.887,0.078
29.333,-0.379,0.898,0.080
29.343,-0.367,0.902,0.086
29.353,-0.365,0.900,0.094
29.363,-0.385,0.908,0.088
29.373,-0.400,0.898,0.090
29.383,-0.398,0.908,0.082
29.393,-0.391,0.912,0.098
29.403,-0.387,0.910,0.100
29.413,-0.377,0.916,0.107
29.423,-0.361,0.908,0.107
29.432,-0.365,0.904,0.098
29.442,-0.371,0.908,0.100
29.452,-0.393,0.912,0.098
29.462,-0.396,0.896,0.094
29.472,-0.395,0.893,0.094
29.482,-0.389,0.893,0.100
29.492,-0.395,0.908,0.109
29.502,-0.393,0.867,0.064
29.512,-0.375,0.904,0.082
29.522,-0.377,0.916,0.080
29.532,-0.391,0.912,0.072
29.542,-0.398,0.914,0.061
29.552,-0.391,0.920,0.070
29.561,-0.383,0.924,0.072
29.571,-0.393,0.936,0.072
29.581,-0.375,0.934,0.076
29.591,-0.346,0.928,0.080
29.601,-0.340,0.920,0.082
29.611,-0.348,0.908,0.082
29.621,-0.348,0.893,0.078
29.631,-0.363,0.887,0.068
29.641,-0.371,0.910,0.076
29.651,-0.355,0.930,0.080
29.661,-0.332,0.926,0.094
29.671,-0.314,0.936,0.109
29.681,-0.311,0.934,0.119
29.690,-0.322,0.959,0.098
29.700,-0.346,0.932,0.076
29.710,-0.328,0.906,0.047
29.720,-0.297,0.916,0.033
29.730,-0.275,0.941,0.045
29.740,-0.281,0.965,0.059
29.750,-0.295,0.979,0.076
29.760,-0.330,0.986,0.082
29.770,-0.334,0.961,0.086
29.780,-0.311,0.930,0.084
29.790,-0.316,0.904,0.080
29.800,-0.326,0.891,0.078
29.810,-0.338,0.883,0.068
29.819,-0.367,0.893,0.064
29.829,-0.385,0.914,0.066
29.839,-0.395,0.930,0.064
29.849,-0.400,0.928,0.059
29.859,-0.410,0.920,0.043
29.869,-0.406,0.908,0.045
29.879,-0.406,0.898,0.049
29.889,-0.412,0.900,0.059
29.899,-0.400,0.879,0.057
29.909,-0.387,0.855,0.061
29.919,-0.383,0.857,0.062
29.929,-0.375,0.877,0.064
29.938,-0.385,0.900,0.068
29.948,-0.396,0.912,0.076
29.958,-0.396,0.928,0.072
29.968,-0.395,0.939,0.086
29.978,-0.396,0.943,0.078
29.988,-0.393,0.939,0.074
29.998,-0.396,0.936,0.070
30.008,-0.400,0.916,0.066
30.018,-0.391,0.904,0.064
30.028,-0.373,0.906,0.068
30.038,-0.369,0.904,0.074
30.048,-0.363,0.916,0.086
30.058,-0.361,0.932,0.090
30.067,-0.361,0.945,0.092
30.077,-0.365,0.943,0.098
30.087,-0.363,0.961,0.092
30.097,-0.346,0.963,0.102
30.107,-0.348,0.939,0.100
30.117,-0.352,0.924,0.084
30.127,-0.352,0.898,0.074
30.137,-0.354,0.889,0.076
30.147,-0.365,0.893,0.074
30.157,-0.367,0.910,0.094
30.167,-0.369,0.910,0.094
30.177,-0.383,0.910,0.088
30.187,-0.373,0.916,0.084
30.196,-0.391,0.914,0.082
30.206,-0.400,0.908,0.072
30.216,-0.404,0.893,0.070
30.226,-0.412,0.879,0.062
30.236,-0.426,0.867,0.049
30.246,-0.432,0.871,0.057
30.256,-0.434,0.891,0.066
30.266,-0.422,0.895,0.070
30.276,-0.410,0.902,0.070
30.286,-0.393,0.914,0.076
30.296,-0.389,0.924,0.072
30.306,-0.387,0.932,0.074
30.315,-0.400,0.934,0.070
30.325,-0.414,0.938,0.072
30.335,-0.408,0.932,0.068
30.345,-0.412,0.926,0.072
30.355,-0.414,0.920,0.076
30.365,-0.395,0.920,0.084
30.375,-0.387,0.924,0.090
30.385,-0.389,0.930,0.094
30.395,-0.391,0.918,0.088
30.405,-0.408,0.900,0.082
30.415,-0.424,0.904,0.084
30.425,-0.426,0.922,0.082
30.435,-0.416,0.900,0.080
30.444,-0.402,0.912,0.080
30.454,-0.387,0.916,0.086
30.464,-0.371,0.914,0.086
30.474,-0.365,0.910,0.094
30.484,-0.381,0.906,0.076
30.494,-0.377,0.918,0.084
30.504,-0.383,0.902,0.076
30.514,-0.393,0.904,0.078
30.524,-0.389,0.908,0.076
30.534,-0.395,0.922,0.084
30.544,-0.395,0.912,0.080
30.554,-0.391,0.914,0.072
30.564,-0.387,0.904,0.076
30.573,-0.385,0.896,0.068
30.583,-0.389,0.887,0.064
30.593,-0.396,0.891,0.059
30.603,-0.398,0.908,0.068
30.613,-0.434,0.916,0.084
30.623,-0.398,0.953,0.082
30.633,-0.381,0.941,0.088
30.643,-0.383,0.928,0.074
30.653,-0.371,0.916,0.074
30.663,-0.379,0.896,0.070
30.673,-0.375,0.896,0.064
30.683,-0.371,0.902,0.070
30.692,-0.375,0.906,0.074
30.702,-0.363,0.910,0.072
30.712,-0.361,0.920,0.072
30.722,-0.369,0.910,0.068
30.732,-0.387,0.908,0.068
30.742,-0.393,0.924,0.086
30.752,-0.430,0.887,0.059
30.762,-0.406,0.924,0.066
30.772,-0.373,0.908,0.109
30.782,-0.391,0.926,0.090
30.792,-0.383,0.912,0.094
30.802,-0.385,0.893,0.080
30.812,-0.400,0.867,0.068
30.821,-0.424,0.881,0.066
30.831,-0.441,0.875,0.068
30.841,-0.439,0.912,0.070
30.851,-0.406,0.928,0.086
30.861,-0.393,0.883,0.078
30.871,-0.346,0.891,0.061
30.881,-0.316,0.885,0.066
30.891,-0.316,0.900,0.070
30.901,-0.346,0.895,0.061
30.911,-0.389,0.900,0.045
30.921,-0.387,0.916,0.037
30.931,-0.365,0.891,0.057
30.941,-0.422,0.961,0.027
30.950,-0.359,0.951,0.055
30.960,-0.361,0.957,0.053
30.970,-0.371,0.932,0.020
30.980,-0.375,0.918,0.027
30.990,-0.371,0.943,0.021
31.000,-0.354,0.945,0.062
31.010,-0.320,0.924,0.018
31.020,-0.285,0.957,0.066
31.030,-0.287,0.939,0.061
31.040,-0.320,0.932,0.041
31.050,-0.322,0.928,0.037
31.060,-0.309,0.916,0.035
31.070,-0.305,0.914,0.041
31.079,-0.289,0.910,0.021
31.089,-0.293,0.889,0.008
31.099,-0.326,0.885,-0.006
31.109,-0.301,0.906,-0.008
31.119,-0.244,0.904,0.014
31.129,-0.217,0.914,0.037
31.139,-0.184,0.926,0.041
31.149,-0.143,0.949,0.039
31.159,-0.123,0.965,0.041
31.169,-0.141,0.967,0.025
31.179,-0.156,0.992,0.016
31.189,-0.162,1.006,0.020
31.198,-0.170,0.996,0.002
31.208,-0.154,1.006,-0.004
31.218,-0.154,1.021,0.010
31.228,-0.158,1.018,-0.008
31.238,-0.189,1.010,-0.006
31.248,-0.211,1.016,-0.014
31.258,-0.211,1.016,-0.010
31.268,-0.193,1.000,-0.021
31.278,-0.180,0.963,-0.012
31.288,-0.191,0.928,-0.018
31.298,-0.182,0.922,-0.012
31.308,-0.184,0.895,-0.020
31.318,-0.201,0.883,-0.027
31.327,-0.217,0.900,-0.033
31.337,-0.234,0.922,-0.045
31.347,-0.244,0.979,-0.039
31.357,-0.250,1.010,-0.037
31.367,-0.266,1.025,-0.039
31.377,-0.281,1.025,-0.045
31.387,-0.270,1.021,-0.053
31.397,-0.250,1.002,-0.039
31.407,-0.238,0.984,-0.039
31.417,-0.225,0.984,-0.037
31.427,-0.225,0.975,-0.033
31.437,-0.225,0.979,-0.031
31.447,-0.219,0.969,-0.020
31.456,-0.230,0.963,-0.012
31.466,-0.232,0.977,-0.008
31.476,-0.250,0.990,0.004
31.486,-0.260,0.979,0.002
31.496,-0.258,0.971,-0.006
31.506,-0.250,0.967,-0.004
31.516,-0.236,0.943,-0.002
31.526,-0.242,0.947,0.002
31.536,-0.246,0.932,-0.004
31.546,-0.248,0.918,-0.010
31.556,-0.246,0.906,-0.016
31.566,-0.264,0.898,-0.006
31.575,-0.277,0.902,-0.006
31.585,-0.285,0.896,-0.002
31.595,-0.283,0.895,0.000
31.605,-0.277,0.891,0.002
31.615,-0.293,0.893,-0.004
31.625,-0.301,0.895,-0.010
31.635,-0.322,0.895,-0.023
31.645,-0.348,0.926,-0.029
31.655,-0.336,0.939,-0.027
31.665,-0.316,0.965,-0.023
31.675,-0.295,0.988,-0.018
31.685,-0.277,0.980,-0.020
31.695,-0.270,0.965,-0.025
31.704,-0.252,0.953,-0.031
31.714,-0.262,0.953,-0.033
31.724,-0.268,0.967,-0.033
31.734,-0.289,0.973,-0.027
31.744,-0.318,0.973,-0.031
31.754,-0.322,0.984,-0.033
31.764,-0.316,0.988,-0.021
31.774,-0.309,0.980,-0.008
31.784,-0.307,0.955,-0.006
31.794,-0.305,0.932,-0.006
31.804,-0.307,0.930,-0.002
31.814,-0.316,0.928,0.000
31.824,-0.312,0.941,0.006
31.833,-0.305,0.953,0.012
31.843,-0.303,0.947,0.021
31.853,-0.322,0.928,0.016
31.863,-0.309,0.904,0.006
31.873,-0.283,0.912,0.002
31.883,-0.273,0.922,0.029
31.893,-0.283,0.926,0.025
31.903,-0.289,0.916,0.018
31.913,-0.283,0.924,0.020
31.923,-0.291,0.936,0.025
31.933,-0.279,0.938,0.023
31.943,-0.273,0.939,0.035
31.953,-0.270,0.941,0.031
31.962,-0.275,0.949,0.039
31.972,-0.291,0.951,0.031
31.982,-0.279,0.941,0.023
31.992,-0.281,0.938,0.035
32.002,-0.285,0.936,0.031
32.012,-0.287,0.949,0.037
32.022,-0.293,0.947,0.047
32.032,-0.311,0.945,0.041
32.042,-0.316,0.945,0.045
32.052,-0.334,0.939,0.037
32.062,-0.326,0.939,0.041
32.072,-0.338,0.938,0.039
32.081,-0.336,0.936,0.035
32.091,-0.342,0.920,0.037
32.101,-0.342,0.908,0.035
32.111,-0.336,0.902,0.033
32.121,-0.338,0.926,0.039
32.131,-0.350,0.934,0.043
32.141,-0.350,0.938,0.037
32.151,-0.336,0.945,0.039
32.161,-0.324,0.949,0.043
32.171,-0.307,0.941,0.043
32.181,-0.301,0.926,0.049
32.191,-0.309,0.902,0.037
32.201,-0.320,0.891,0.035
32.210,-0.336,0.891,0.033
32.220,-0.340,0.908,0.037
32.230,-0.346,0.928,0.039
32.240,-0.338,0.949,0.049
32.250,-0.328,0.959,0.051
32.260,-0.301,0.963,0.047
32.270,-0.291,0.951,0.051
32.280,-0.287,0.939,0.045
32.290,-0.283,0.938,0.043
32.300,-0.279,0.945,0.049
32.310,-0.273,0.949,0.053
32.320,-0.254,0.963,0.059
32.330,-0.244,0.969,0.059
32.339,-0.242,0.959,0.059
32.349,-0.236,0.955,0.059
32.359,-0.242,0.959,0.057
32.369,-0.244,0.949,0.057
32.379,-0.244,0.939,0.053
32.389,-0.252,0.939,0.045
32.399,-0.252,0.945,0.045
32.409,-0.250,0.951,0.045
32.419,-0.248,0.955,0.049
32.429,-0.254,0.955,0.051
32.439,-0.262,0.949,0.051
32.449,-0.271,0.941,0.051
32.458,-0.273,0.945,0.049
32.468,-0.275,0.932,0.051
32.478,-0.273,0.924,0.049
32.488,-0.279,0.922,0.045
32.498,-0.275,0.930,0.051
32.508,-0.268,0.941,0.057
32.518,-0.266,0.949,0.057
32.528,-0.264,0.943,0.059
32.538,-0.266,0.941,0.055
32.548,-0.256,0.938,0.051
32.558,-0.244,0.941,0.049
32.568,-0.252,0.947,0.045
32.578,-0.244,0.965,0.045
32.587,-0.244,0.979,0.049
32.597,-0.258,0.979,0.053
32.607,-0.252,0.969,0.045
32.617,-0.258,0.965,0.047
32.627,-0.260,0.955,0.047
32.637,-0.268,0.949,0.041
32.647,-0.266,0.955,0.039
32.657,-0.268,0.955,0.045
32.667,-0.268,0.955,0.045
32.677,-0.264,0.955,0.039
32.687,-0.266,0.963,0.047
32.697,-0.270,0.963,0.047
32.707,-0.268,0.959,0.049
32.716,-0.273,0.969,0.047
32.726,-0.268,0.961,0.047
32.736,-0.266,0.957,0.047
32.746,-0.258,0.967,0.045
32.756,-0.248,0.967,0.051
32.766,-0.240,0.953,0.043
32.776,-0.232,0.957,0.041
32.786,-0.229,0.965,0.045
32.796,-0.230,0.971,0.053
32.806,-0.236,0.971,0.051
32.816,-0.242,0.973,0.057
32.826,-0.258,0.971,0.053
32.836,-0.238,0.977,0.051
32.845,-0.217,0.971,0.068
32.855,-0.203,0.953,0.066
32.865,-0.197,0.936,0.068
32.875,-0.170,0.936,0.064
32.885,-0.186,0.926,0.066
32.895,-0.197,0.926,0.061
32.905,-0.178,0.908,0.051
32.915,-0.176,0.939,0.064
32.925,-0.188,0.965,0.076
32.935,-0.207,0.988,0.076
32.945,-0.217,0.982,0.074
32.955,-0.213,0.980,0.064
32.964,-0.213,0.980,0.068
32.974,-0.191,0.990,0.061
32.984,-0.176,0.998,0.061
32.994,-0.150,1.008,0.064
33.004,-0.129,1.008,0.070
33.014,-0.123,1.006,0.070
33.024,-0.131,0.994,0.068
33.034,-0.133,0.969,0.068
33.044,-0.135,0.936,0.070
33.054,-0.150,0.934,0.076
33.064,-0.148,0.957,0.082
33.074,-0.131,0.979,0.094
33.084,-0.139,0.971,0.102
33.093,-0.135,0.969,0.098
33.103,-0.125,0.961,0.100
33.113,-0.129,0.971,0.113
33.123,-0.125,0.947,0.100
33.133,-0.105,0.939,0.096
33.143,-0.098,0.947,0.104
33.153,-0.100,0.949,0.104
33.163,-0.123,0.951,0.102
33.173,-0.141,0.949,0.102
33.183,-0.156,0.953,0.098
33.193,-0.168,0.969,0.092
33.203,-0.170,0.982,0.092
33.213,-0.174,0.975,0.088
33.222,-0.178,0.961,0.086
33.232,-0.176,0.965,0.084
33.242,-0.184,0.979,0.092
33.252,-0.191,0.980,0.092
33.262,-0.193,0.984,0.092
33.272,-0.191,0.990,0.094
33.282,-0.197,0.980,0.086
33.292,-0.197,0.957,0.092
33.302,-0.191,0.957,0.096
33.312,-0.184,0.967,0.102
33.322,-0.176,0.979,0.111
33.332,-0.170,0.979,0.113
33.341,-0.176,0.961,0.113
33.351,-0.178,0.947,0.113
33.361,-0.182,0.951,0.113
33.371,-0.184,0.961,0.119
33.381,-0.180,0.973,0.125
33.391,-0.176,0.980,0.127
33.401,-0.164,0.979,0.127
33.411,-0.176,0.959,0.125
33.421,-0.199,0.951,0.115
33.431,-0.205,0.971,0.117
33.441,-0.197,0.988,0.129
33.451,-0.193,0.986,0.131
33.461,-0.178,0.973,0.129
33.470,-0.178,0.955,0.127
33.480,-0.191,0.939,0.125
33.490,-0.193,0.938,0.125
33.500,-0.199,0.934,0.125
33.510,-0.209,0.945,0.127
33.520,-0.191,0.965,0.135
33.530,-0.186,0.967,0.131
33.540,-0.189,0.955,0.129
33.550,-0.189,0.947,0.125
33.560,-0.193,0.949,0.127
33.570,-0.201,0.955,0.121
33.580,-0.199,0.961,0.121
33.590,-0.195,0.963,0.119
33.599,-0.189,0.965,0.125
33.609,-0.182,0.961,0.127
33.619,-0.182,0.963,0.129
33.629,-0.178,0.963,0.129
33.639,-0.180,0.967,0.129
33.649,-0.180,0.969,0.129
33.659,-0.178,0.973,0.123
33.669,-0.176,0.973,0.123
33.679,-0.172,0.965,0.123
33.689,-0.162,0.965,0.123
33.699,-0.158,0.965,0.127
33.709,-0.164,0.959,0.123
33.719,-0.176,0.959,0.121
33.728,-0.176,0.963,0.125
33.738,-0.186,0.967,0.121
33.748,-0.182,0.961,0.125
33.758,-0.174,0.959,0.121
33.768,-0.166,0.959,0.117
33.778,-0.166,0.953,0.113
33.788,-0.172,0.953,0.109
33.798,-0.166,0.959,0.109
33.808,-0.170,0.971,0.109
33.818,-0.170,0.975,0.109
33.828,-0.178,0.977,0.104
33.838,-0.180,0.977,0.094
33.847,-0.191,0.971,0.094
33.857,-0.193,0.959,0.084
33.867,-0.189,0.963,0.092
33.877,-0.180,0.971,0.092
33.887,-0.166,0.980,0.098
33.897,-0.158,0.973,0.100
33.907,-0.166,0.959,0.100
33.917,-0.176,0.959,0.100
33.927,-0.174,0.967,0.096
33.937,-0.160,0.975,0.100
33.947,-0.158,0.982,0.104
33.957,-0.152,0.979,0.102
33.967,-0.146,0.975,0.102
33.976,-0.133,0.971,0.105
33.986,-0.119,0.959,0.105
33.996,-0.111,0.963,0.107
34.006,-0.117,0.957,0.105
34.016,-0.113,0.955,0.105
34.026,-0.117,0.963,0.107
34.036,-0.102,0.965,0.105
34.046,-0.078,0.965,0.111
34.056,-0.066,0.971,0.113
34.066,-0.064,0.969,0.102
34.076,-0.066,0.980,0.094
34.086,-0.061,1.004,0.096
34.096,-0.043,1.029,0.098
34.105,-0.027,1.043,0.092
34.115,-0.020,1.043,0.088
34.125,-0.018,1.033,0.080
34.135,-0.031,1.008,0.055
34.145,-0.041,0.998,0.041
34.155,-0.043,0.996,0.039
34.165,-0.037,1.010,0.035
34.175,-0.039,1.010,0.037
34.185,-0.043,1.008,0.039
34.195,-0.051,0.994,0.014
34.205,-0.053,0.984,0.000
34.215,-0.057,0.992,0.006
34.224,-0.062,1.002,-0.008
34.234,-0.064,1.002,-0.010
34.244,-0.074,0.992,0.004
34.254,-0.098,0.969,0.008
34.264,-0.113,0.934,0.000
34.274,-0.139,0.916,-0.004
34.284,-0.148,0.908,-0.004
34.294,-0.154,0.930,0.008
34.304,-0.174,0.934,0.012
34.314,-0.209,0.918,0.006
34.324,-0.219,0.906,-0.018
34.334,-0.232,0.900,-0.018
34.344,-0.254,0.904,-0.016
34.353,-0.266,0.908,-0.008
34.363,-0.244,0.928,0.020
34.373,-0.225,0.957,0.047
34.383,-0.223,0.977,0.076
34.393,-0.209,0.988,0.090
34.403,-0.193,0.996,0.094
34.413,-0.176,0.994,0.096
34.423,-0.172,0.979,0.084
34.433,-0.178,0.969,0.068
34.443,-0.170,0.977,0.076
34.453,-0.170,0.986,0.078
34.463,-0.186,0.992,0.082
34.473,-0.178,1.002,0.084
34.482,-0.160,1.002,0.088
34.492,-0.168,1.002,0.104
34.502,-0.160,1.023,0.105
34.512,-0.148,1.016,0.111
34.522,-0.148,1.004,0.107
34.532,-0.154,0.998,0.107
34.542,-0.191,1.004,0.100
34.552,-0.221,0.982,0.080
34.562,-0.248,0.986,0.102
34.572,-0.242,1.004,0.094
34.582,-0.186,1.021,0.123
34.592,-0.186,0.990,0.104
34.601,-0.203,0.957,0.086
34.611,-0.189,0.947,0.090
34.621,-0.209,0.930,0.092
34.631,-0.199,0.939,0.092
34.641,-0.258,0.951,0.105
34.651,-0.316,0.930,0.076
34.661,-0.330,0.943,0.074
34.671,-0.342,0.934,0.080
34.681,-0.367,0.943,0.072
34.691,-0.359,0.959,0.090
34.701,-0.357,0.850,0.006
34.711,-0.309,0.930,0.037
34.721,-0.279,0.932,0.051
34.730,-0.271,0.939,0.018
34.740,-0.264,0.924,0.004
34.750,-0.207,0.943,0.006
34.760,-0.143,0.951,0.021
34.770,-0.006,0.947,0.041
34.780,0.090,0.920,0.059
34.790,0.096,0.900,0.051
34.800,0.080,0.879,0.053
34.810,0.066,0.893,0.070
34.820,0.023,0.922,0.092
34.830,0.002,0.982,0.092
34.840,0.045,1.000,0.098
34.850,0.055,1.020,0.123
34.859,0.039,1.041,0.133
34.869,0.035,1.043,0.125
34.879,0.021,1.016,0.131
34.889,0.006,0.998,0.125
34.899,-0.004,0.990,0.113
34.909,0.000,1.002,0.115
34.919,0.004,1.037,0.123
34.929,-0.008,1.059,0.125
34.939,-0.008,1.076,0.127
34.949,-0.012,1.074,0.125
34.959,-0.041,1.061,0.119
34.969,-0.055,1.074,0.104
34.979,-0.049,1.080,0.105
34.988,-0.053,1.109,0.115
34.998,-0.051,1.135,0.121
35.008,-0.033,1.145,0.139
35.018,0.012,1.148,0.146
35.028,0.035,1.160,0.150
35.038,0.002,1.133,0.150
35.048,-0.129,1.027,0.127
35.058,-0.125,0.984,0.047
35.068,-0.104,0.980,0.115
35.078,-0.135,0.998,0.127
35.088,-0.117,0.973,0.121
35.098,-0.141,0.977,0.123
35.107,-0.168,0.900,0.096
35.117,-0.182,0.814,0.074
35.127,-0.197,0.803,0.080
35.137,-0.203,0.783,0.061
35.147,-0.203,0.777,0.059
35.157,-0.213,0.754,0.041
35.167,-0.205,0.744,0.033
35.177,-0.182,0.754,0.033
35.187,-0.168,0.762,0.018
35.197,-0.146,0.791,0.020
35.207,-0.129,0.809,0.006
35.217,-0.129,0.820,0.006
35.227,-0.137,0.828,-0.025
35.236,-0.123,0.824,-0.023
35.246,-0.137,0.863,-0.012
35.256,-0.125,0.920,0.006
35.266,-0.113,0.941,0.018
35.276,-0.086,0.959,0.010
35.286,-0.086,0.975,0.008
35.296,-0.098,0.982,-0.014
35.306,-0.102,0.979,-0.029
35.316,-0.117,0.986,-0.010
35.326,-0.131,0.992,-0.016
35.336,-0.121,0.996,-0.027
35.346,-0.092,1.012,-0.008
35.356,-0.064,1.023,-0.002
35.365,-0.064,1.006,-0.021
35.375,-0.078,1.035,-0.006
35.385,-0.098,1.053,-0.006
35.395,-0.133,1.041,-0.016
35.405,-0.145,1.043,-0.029
35.415,-0.139,1.045,-0.033
35.425,-0.135,1.035,-0.039
35.435,-0.133,1.041,-0.062
35.445,-0.135,1.076,-0.070
35.455,-0.148,1.145,-0.059
35.465,-0.145,1.211,-0.031
35.475,-0.137,1.213,-0.033
35.484,-0.133,1.191,-0.031
35.494,-0.100,1.156,-0.033
35.504,-0.104,1.127,-0.035
35.514,-0.105,1.070,-0.029
35.524,-0.141,1.055,-0.033
35.534,-0.143,1.057,-0.031
35.544,-0.139,1.111,0.002
35.554,-0.143,1.146,0.012
35.564,-0.146,1.139,0.014
35.574,-0.133,1.070,-0.012
35.584,-0.078,0.998,-0.021
35.594,0.000,0.986,-0.004
35.604,0.082,0.990,0.037
35.613,0.156,0.941,0.049
35.623,0.176,0.842,0.010
35.633,0.141,0.742,-0.059
35.643,0.098,0.691,-0.104
35.653,0.059,0.680,-0.109
35.663,-0.002,0.666,-0.131
35.673,-0.061,0.688,-0.143
35.683,-0.096,0.738,-0.117
35.693,-0.115,0.820,-0.115
35.703,-0.164,0.893,-0.086
35.713,-0.215,0.896,-0.094
35.723,-0.281,0.875,-0.123
35.733,-0.307,0.898,-0.133
35.742,-0.314,0.904,-0.125
35.752,-0.307,0.934,-0.119
35.762,-0.309,0.955,-0.102
35.772,-0.332,0.961,-0.107
35.782,-0.359,0.967,-0.109
35.792,-0.389,0.977,-0.104
35.802,-0.410,0.984,-0.094
35.812,-0.400,0.998,-0.082
35.822,-0.393,0.988,-0.061
35.832,-0.377,0.967,-0.064
35.842,-0.346,0.957,-0.051
35.852,-0.324,0.928,-0.047
35.862,-0.311,0.918,-0.045
35.871,-0.305,0.922,-0.041
35.881,-0.320,0.922,-0.035
35.891,-0.346,0.920,-0.027
35.901,-0.336,0.916,-0.018
35.911,-0.309,0.893,-0.012
35.921,-0.277,0.855,-0.016
35.931,-0.238,0.828,-0.025
35.941,-0.205,0.830,-0.016
35.951,-0.184,0.863,-0.008
35.961,-0.199,0.906,0.006
35.971,-0.230,0.963,0.020
35.981,-0.266,0.986,0.023
35.990,-0.291,1.014,0.021
36.000,-0.318,1.020,0.012
36.010,-0.334,1.027,-0.004
36.020,-0.334,1.027,-0.004
36.030,-0.316,1.068,0.016
36.040,-0.293,1.094,0.039
36.050,-0.279,1.115,0.051
36.060,-0.264,1.115,0.059
36.070,-0.264,1.092,0.055
36.080,-0.289,1.068,0.043
36.090,-0.303,1.059,0.045
36.100,-0.311,1.055,0.057
36.110,-0.320,1.049,0.074
36.119,-0.309,1.070,0.088
36.129,-0.283,1.104,0.107
36.139,-0.277,1.102,0.111
36.149,-0.277,1.064,0.102
36.159,-0.281,1.037,0.090
36.169,-0.293,1.021,0.094
36.179,-0.279,1.021,0.111
36.189,-0.262,1.014,0.125
36.199,-0.266,1.000,0.125
36.209,-0.266,0.982,0.123
36.219,-0.270,0.943,0.117
36.229,-0.287,0.895,0.098
36.239,-0.297,0.857,0.096
36.248,-0.309,0.834,0.090
36.258,-0.332,0.816,0.078
36.268,-0.328,0.824,0.080
36.278,-0.334,0.836,0.096
36.288,-0.330,0.828,0.094
36.298,-0.320,0.822,0.092
36.308,-0.312,0.807,0.098
36.318,-0.314,0.779,0.100
36.328,-0.307,0.764,0.109
36.338,-0.303,0.754,0.113
36.348,-0.273,0.766,0.121
36.358,-0.271,0.768,0.145
36.367,-0.268,0.760,0.139
36.377,-0.291,0.729,0.135
36.387,-0.316,0.721,0.125
36.397,-0.357,0.725,0.125
36.407,-0.418,0.736,0.133
36.417,-0.424,0.768,0.141
36.427,-0.420,0.791,0.174
36.437,-0.404,0.803,0.178
36.447,-0.377,0.768,0.172
36.457,-0.324,0.734,0.146
36.467,-0.312,0.730,0.154
36.477,-0.371,0.805,0.145
36.487,-0.439,0.883,0.160
36.496,-0.482,0.949,0.146
36.506,-0.527,0.984,0.148
36.516,-0.596,1.010,0.146
36.526,-0.623,1.021,0.139
36.536,-0.615,0.984,0.127
36.546,-0.623,0.957,0.117
36.556,-0.621,0.941,0.100
36.566,-0.643,0.930,0.084
36.576,-0.672,0.924,0.070
36.586,-0.678,0.947,0.051
36.596,-0.656,0.969,0.059
36.606,-0.648,0.957,0.070
36.616,-0.633,0.949,0.068
36.625,-0.605,0.936,0.080
36.635,-0.607,0.916,0.080
36.645,-0.623,0.893,0.072
36.655,-0.617,0.867,0.055
36.665,-0.609,0.852,0.057
36.675,-0.586,0.834,0.055
36.685,-0.549,0.857,0.070
36.695,-0.498,0.863,0.086
36.705,-0.465,0.889,0.096
36.715,-0.434,0.893,0.084
36.725,-0.426,0.875,0.074
36.735,-0.428,0.846,0.070
36.745,-0.426,0.848,0.061
36.754,-0.416,0.861,0.080
36.764,-0.436,0.881,0.092
36.774,-0.400,0.914,0.107
36.784,-0.361,0.885,0.107
36.794,-0.330,0.867,0.094
36.804,-0.303,0.846,0.090
36.814,-0.299,0.848,0.092
36.824,-0.299,0.857,0.100
36.834,-0.260,0.857,0.096
36.844,-0.244,0.850,0.094
36.854,-0.256,0.846,0.080
36.864,-0.260,0.859,0.084
36.873,-0.248,0.912,0.104
36.883,-0.246,0.967,0.129
36.893,-0.264,0.990,0.135
36.903,-0.279,0.994,0.123
36.913,-0.266,1.012,0.123
36.923,-0.248,0.984,0.115
36.933,-0.254,0.938,0.088
36.943,-0.256,0.895,0.053
36.953,-0.264,0.891,0.037
36.963,-0.264,0.938,0.051
36.973,-0.256,0.994,0.078
36.983,-0.229,1.037,0.090
36.993,-0.201,1.057,0.105
37.002,-0.172,1.068,0.104
37.012,-0.141,1.066,0.107
37.022,-0.131,1.061,0.111
37.032,-0.113,1.041,0.107
37.042,-0.102,1.021,0.105
37.052,-0.094,1.018,0.104
37.062,-0.076,1.012,0.104
37.072,-0.064,0.998,0.105
37.082,-0.064,0.984,0.105
37.092,-0.053,0.994,0.117
37.102,-0.039,0.988,0.113
37.112,-0.045,0.994,0.111
37.122,-0.039,0.992,0.117
37.131,-0.049,0.988,0.115
37.141,-0.053,0.984,0.117
37.151,-0.047,0.963,0.117
37.161,-0.047,0.955,0.123
37.171,-0.057,0.943,0.119
37.181,-0.061,0.941,0.117
37.191,-0.045,0.951,0.119
37.201,-0.055,0.945,0.125
37.211,-0.053,0.941,0.117
37.221,-0.057,0.947,0.129
37.231,-0.070,0.951,0.127
37.241,-0.068,0.955,0.125
37.250,-0.078,0.955,0.119
37.260,-0.076,0.949,0.121
37.270,-0.074,0.951,0.121
37.280,-0.078,0.932,0.121
37.290,-0.080,0.918,0.113
37.300,-0.109,0.896,0.109
37.310,-0.141,0.885,0.096
37.320,-0.158,0.900,0.100
37.330,-0.186,0.920,0.096
37.340,-0.209,0.908,0.098
37.350,-0.209,0.914,0.100
37.360,-0.234,0.896,0.111
37.370,-0.232,0.873,0.090
37.379,-0.229,0.855,0.092
37.389,-0.229,0.854,0.082
37.399,-0.207,0.879,0.096
37.409,-0.240,0.877,0.078
37.419,-0.256,0.912,0.061
37.429,-0.236,0.932,0.068
37.439,-0.234,0.930,0.049
37.449,-0.252,0.951,0.051
37.459,-0.258,0.967,0.043
37.469,-0.268,0.988,0.055
37.479,-0.283,0.969,0.049
37.489,-0.307,0.965,0.039
37.499,-0.326,0.969,0.037
37.508,-0.342,0.979,0.049
37.518,-0.369,0.984,0.057
37.528,-0.354,0.959,0.020
37.538,-0.344,0.994,0.055
37.548,-0.334,0.988,0.061
37.558,-0.312,0.984,0.062
37.568,-0.320,0.957,0.061
37.578,-0.346,0.969,0.059
37.588,-0.373,0.979,0.062
37.598,-0.422,0.994,0.072
37.608,-0.424,0.990,0.068
37.618,-0.424,0.990,0.084
37.628,-0.432,0.986,0.078
37.637,-0.438,0.951,0.064
37.647,-0.445,0.943,0.068
37.657,-0.449,0.941,0.068
37.667,-0.469,0.932,0.072
37.677,-0.477,0.924,0.076
37.687,-0.482,0.924,0.086
37.697,-0.475,0.916,0.084
37.707,-0.475,0.922,0.092
37.717,-0.488,0.932,0.094
37.727,-0.494,0.939,0.084
37.737,-0.494,0.926,0.080
37.747,-0.498,0.920,0.076
37.756,-0.502,0.930,0.078
37.766,-0.506,0.926,0.080
37.776,-0.506,0.936,0.090
37.786,-0.486,0.928,0.092
37.796,-0.486,0.926,0.100
37.806,-0.500,0.924,0.096
37.816,-0.512,0.916,0.094
37.826,-0.516,0.902,0.084
37.836,-0.512,0.898,0.076
37.846,-0.504,0.896,0.076
37.856,-0.488,0.885,0.080
37.866,-0.477,0.898,0.092
37.876,-0.479,0.906,0.092
37.885,-0.479,0.908,0.086
37.895,-0.480,0.906,0.086
37.905,-0.482,0.898,0.080
37.915,-0.486,0.896,0.074
37.925,-0.461,0.887,0.076
37.935,-0.439,0.875,0.084
37.945,-0.426,0.879,0.088
37.955,-0.416,0.887,0.098
37.965,-0.420,0.881,0.104
37.975,-0.408,0.863,0.098
37.985,-0.402,0.861,0.092
37.995,-0.396,0.873,0.098
38.005,-0.387,0.869,0.090
38.014,-0.355,0.867,0.088
38.024,-0.322,0.861,0.102
38.034,-0.305,0.852,0.104
38.044,-0.297,0.855,0.113
38.054,-0.305,0.855,0.111
38.064,-0.299,0.846,0.109
38.074,-0.312,0.850,0.104
38.084,-0.320,0.861,0.094
38.094,-0.316,0.867,0.090
38.104,-0.322,0.859,0.084
38.114,-0.324,0.873,0.066
38.124,-0.328,0.887,0.074
38.133,-0.340,0.883,0.072
38.143,-0.348,0.867,0.070
38.153,-0.365,0.869,0.064
38.163,-0.365,0.863,0.070
38.173,-0.371,0.850,0.062
38.183,-0.357,0.832,0.047
38.193,-0.355,0.830,0.062
38.203,-0.363,0.857,0.066
38.213,-0.369,0.865,0.066
38.223,-0.383,0.869,0.062
38.233,-0.396,0.838,0.049
38.243,-0.391,0.824,0.053
38.253,-0.381,0.842,0.059
38.262,-0.391,0.881,0.074
38.272,-0.408,0.912,0.072
38.282,-0.414,0.941,0.059
38.292,-0.434,0.939,0.047
38.302,-0.469,0.945,0.057
38.312,-0.506,0.961,0.057
38.322,-0.523,0.979,0.062
38.332,-0.529,0.990,0.055
38.342,-0.533,1.006,0.031
38.352,-0.514,1.035,0.010
38.362,-0.475,1.061,0.025
38.372,-0.453,1.061,0.031
38.382,-0.438,1.055,0.025
38.391,-0.406,1.023,0.025
38.401,-0.383,0.988,0.021
38.411,-0.389,0.971,0.029
38.421,-0.381,0.949,0.039
38.431,-0.363,0.934,0.033
38.441,-0.357,0.912,0.025
38.451,-0.342,0.914,0.033
38.461,-0.320,0.914,0.035
38.471,-0.328,0.922,0.037
38.481,-0.328,0.902,0.035
38.491,-0.318,0.873,0.035
38.501,-0.318,0.857,0.023
38.511,-0.314,0.828,0.021
38.520,-0.320,0.812,0.020
38.530,-0.336,0.812,0.020
38.540,-0.338,0.828,0.018
38.550,-0.334,0.832,0.023
38.560,-0.320,0.836,0.018
38.570,-0.328,0.854,0.016
38.580,-0.344,0.869,0.018
38.590,-0.365,0.889,0.027
38.600,-0.389,0.891,0.029
38.610,-0.387,0.873,0.023
38.620,-0.391,0.875,0.037
38.630,-0.383,0.871,0.049
38.639,-0.383,0.877,0.055
38.649,-0.379,0.863,0.062
38.659,-0.432,0.881,0.049
38.669,-0.492,0.902,0.033
38.679,-0.521,0.898,0.045
38.689,-0.535,0.895,0.033
38.699,-0.533,0.918,0.039
38.709,-0.533,0.916,0.035
38.719,-0.547,0.889,0.025
38.729,-0.555,0.887,0.012
38.739,-0.582,0.893,0.031
38.749,-0.594,0.928,0.021
38.759,-0.617,0.916,0.037
38.768,-0.613,0.938,0.031
38.778,-0.615,0.941,0.033
38.788,-0.605,0.939,0.018
38.798,-0.590,0.896,0.008
38.808,-0.598,0.871,-0.004
38.818,-0.617,0.840,-0.010
38.828,-0.613,0.820,0.000
38.838,-0.580,0.811,0.012
38.848,-0.553,0.793,0.014
38.858,-0.559,0.795,0.006
38.868,-0.559,0.809,0.006
38.878,-0.553,0.785,-0.010
38.888,-0.562,0.773,-0.014
38.897,-0.574,0.779,-0.002
38.907,-0.531,0.775,0.021
38.917,-0.510,0.768,0.037
38.927,-0.490,0.754,0.037
38.937,-0.477,0.766,0.049
38.947,-0.494,0.789,0.047
38.957,-0.533,0.797,0.047
38.967,-0.553,0.824,0.043
38.977,-0.557,0.822,0.035
38.987,-0.551,0.836,0.031
38.997,-0.562,0.826,0.008
39.007,-0.547,0.842,0.018
39.016,-0.555,0.854,0.010
39.026,-0.590,0.873,0.014
39.036,-0.605,0.875,0.000
39.046,-0.594,0.859,0.002
39.056,-0.580,0.846,0.000
39.066,-0.580,0.830,-0.002
39.076,-0.557,0.820,-0.006
39.086,-0.547,0.826,-0.008
39.096,-0.549,0.855,0.008
39.106,-0.539,0.883,0.014
39.116,-0.535,0.889,0.029
39.126,-0.527,0.881,0.027
39.136,-0.498,0.854,0.027
39.145,-0.496,0.834,0.020
39.155,-0.498,0.811,0.014
39.165,-0.506,0.818,0.014
39.175,-0.521,0.832,0.014
39.185,-0.535,0.832,0.016
39.195,-0.549,0.840,0.008
39.205,-0.561,0.842,0.020
39.215,-0.557,0.846,0.010
39.225,-0.541,0.836,0.008
39.235,-0.525,0.820,0.000
39.245,-0.506,0.842,0.004
39.255,-0.508,0.873,0.020
39.265,-0.514,0.889,0.021
39.274,-0.518,0.889,0.033
39.284,-0.533,0.873,0.027
39.294,-0.537,0.861,0.023
39.304,-0.545,0.859,0.021
39.314,-0.543,0.859,0.018
39.324,-0.539,0.857,0.031
39.334,-0.514,0.854,0.035
39.344,-0.514,0.844,0.041
39.354,-0.539,0.840,0.031
39.364,-0.543,0.854,0.039
39.374,-0.533,0.857,0.047
39.384,-0.512,0.865,0.049
39.393,-0.479,0.863,0.055
39.403,-0.469,0.857,0.051
39.413,-0.492,0.838,0.035
39.423,-0.559,0.814,0.020
39.433,-0.564,0.871,-0.008
39.443,-0.568,0.854,0.012
39.453,-0.584,0.838,-0.010
39.463,-0.564,0.852,-0.012
39.473,-0.521,0.869,-0.004
39.483,-0.543,0.844,-0.010
39.493,-0.572,0.871,-0.031
39.503,-0.633,0.822,-0.027
39.513,-0.639,0.824,-0.057
39.522,-0.627,0.830,-0.027
39.532,-0.625,0.844,-0.014
39.542,-0.623,0.857,-0.018
39.552,-0.633,0.842,-0.027
39.562,-0.635,0.850,-0.029
39.572,-0.623,0.863,-0.027
39.582,-0.598,0.891,-0.023
39.592,-0.586,0.902,0.000
39.602,-0.574,0.914,0.006
39.612,-0.545,0.879,-0.002
39.622,-0.533,0.877,0.006
39.632,-0.500,0.895,0.008
39.642,-0.428,0.900,0.018
39.651,-0.385,0.873,0.027
39.661,-0.393,0.861,0.020
39.671,-0.334,0.912,0.029
39.681,-0.297,0.914,0.055
39.691,-0.293,0.943,0.049
39.701,-0.260,0.979,0.062
39.711,-0.238,0.986,0.076
39.721,-0.215,1.000,0.092
39.731,-0.221,0.971,0.096
39.741,-0.215,0.934,0.100
39.751,-0.199,0.951,0.115
39.761,-0.178,0.969,0.129
39.771,-0.135,0.953,0.143
39.780,-0.115,0.963,0.184
39.790,-0.109,0.980,0.197
39.800,-0.133,0.932,0.186
39.810,-0.152,0.904,0.176
39.820,-0.166,0.910,0.189
39.830,-0.174,0.898,0.184
39.840,-0.184,0.885,0.168
39.850,-0.184,0.877,0.146
39.860,-0.188,0.871,0.139
39.870,-0.195,0.852,0.113
39.880,-0.240,0.873,0.105
39.890,-0.301,0.852,0.080
39.899,-0.336,0.871,0.076
39.909,-0.311,0.918,0.082
39.919,-0.275,0.926,0.080
39.929,-0.248,0.932,0.068
39.939,-0.246,0.922,0.057
39.949,-0.240,0.934,0.051
39.959,-0.254,0.949,0.047
39.969,-0.273,0.959,0.043
39.979,-0.270,0.969,0.049
39.989,-0.287,0.979,0.059
39.999,-0.307,0.982,0.070
40.009,-0.328,0.969,0.078
40.019,-0.344,0.986,0.092
40.028,-0.344,0.996,0.105
40.038,-0.348,1.004,0.115
40.048,-0.338,1.018,0.125
40.058,-0.336,1.029,0.152
40.068,-0.320,1.023,0.154
40.078,-0.295,1.004,0.164
40.088,-0.273,0.973,0.160
40.098,-0.275,0.936,0.170
40.108,-0.312,0.889,0.156
40.118,-0.350,0.883,0.146
40.128,-0.340,0.902,0.162
40.138,-0.326,0.918,0.180
40.148,-0.344,0.900,0.178
40.157,-0.379,0.881,0.164
40.167,-0.369,0.895,0.150
40.177,-0.344,0.906,0.162
40.187,-0.336,0.918,0.148
40.197,-0.326,0.932,0.152
40.207,-0.324,0.932,0.148
40.217,-0.320,0.926,0.131
40.227,-0.334,0.928,0.127
40.237,-0.350,0.930,0.117
40.247,-0.350,0.932,0.113
40.257,-0.357,0.928,0.102
40.267,-0.338,0.922,0.100
40.276,-0.342,0.920,0.100
40.286,-0.330,0.934,0.102
40.296,-0.322,0.949,0.105
40.306,-0.336,0.949,0.098
40.316,-0.338,0.943,0.090
40.326,-0.334,0.939,0.084
40.336,-0.332,0.928,0.082
40.346,-0.328,0.918,0.076
40.356,-0.328,0.924,0.082
40.366,-0.338,0.932,0.070
40.376,-0.334,0.947,0.070
40.386,-0.320,0.936,0.070
40.396,-0.330,0.930,0.068
40.405,-0.332,0.934,0.059
40.415,-0.342,0.922,0.061
40.425,-0.342,0.898,0.047
40.435,-0.354,0.881,0.043
40.445,-0.354,0.891,0.039
40.455,-0.342,0.920,0.043
40.465,-0.314,0.957,0.070
40.475,-0.307,0.996,0.096
40.485,-0.289,0.996,0.104
40.495,-0.293,0.965,0.102
40.505,-0.305,0.938,0.086
40.515,-0.299,0.930,0.092
40.525,-0.305,0.910,0.094
40.534,-0.305,0.914,0.096
40.544,-0.301,0.924,0.100
40.554,-0.307,0.932,0.104
40.564,-0.299,0.936,0.090
40.574,-0.307,0.963,0.102
40.584,-0.299,0.955,0.098
40.594,-0.291,0.957,0.100
40.604,-0.293,0.957,0.102
40.614,-0.283,0.957,0.107
40.624,-0.283,0.971,0.115
40.634,-0.262,0.986,0.117
40.644,-0.262,0.977,0.125
40.654,-0.287,0.953,0.115
40.663,-0.295,0.939,0.115
40.673,-0.279,0.967,0.131
40.683,-0.266,0.963,0.148
40.693,-0.270,0.961,0.150
40.703,-0.258,0.955,0.146
40.713,-0.260,0.955,0.150
40.723,-0.266,0.957,0.145
40.733,-0.264,0.953,0.143
40.743,-0.256,0.947,0.139
40.753,-0.260,0.943,0.139
40.763,-0.260,0.936,0.133
40.773,-0.264,0.949,0.131
40.782,-0.283,0.971,0.137
40.792,-0.287,0.998,0.135
40.802,-0.281,0.967,0.125
40.812,-0.260,0.973,0.135
40.822,-0.262,0.965,0.131
40.832,-0.250,0.951,0.123
40.842,-0.242,0.934,0.121
40.852,-0.256,0.934,0.109
40.862,-0.215,0.914,0.113
40.872,-0.236,0.910,0.121
40.882,-0.248,0.920,0.107
40.892,-0.238,0.945,0.117
40.902,-0.234,0.961,0.123
40.911,-0.225,0.961,0.113
40.921,-0.266,0.977,0.117
40.931,-0.254,1.014,0.137
40.941,-0.236,0.996,0.146
40.951,-0.229,0.982,0.143
40.961,-0.242,0.988,0.148
40.971,-0.221,0.994,0.156
40.981,-0.238,0.973,0.168
40.991,-0.271,0.975,0.178
41.001,-0.260,1.008,0.188
41.011,-0.223,1.035,0.201
41.021,-0.215,1.023,0.197
41.031,-0.209,1.016,0.180
41.040,-0.227,1.004,0.174
41.050,-0.252,0.953,0.150
41.060,-0.277,0.896,0.137
41.070,-0.324,0.867,0.148
41.080,-0.369,0.850,0.150
41.090,-0.396,0.818,0.160
41.100,-0.488,0.762,0.176
41.110,-0.457,0.854,0.104
41.120,-0.381,0.844,0.215
41.130,-0.424,0.846,0.191
41.140,-0.439,0.803,0.158
41.150,-0.395,0.768,0.145
41.159,-0.365,0.748,0.145
41.169,-0.348,0.762,0.146
41.179,-0.316,0.803,0.162
41.189,-0.295,0.844,0.176
41.199,-0.291,0.875,0.176
41.209,-0.271,0.896,0.172
41.219,-0.240,0.896,0.184
41.229,-0.238,0.904,0.172
41.239,-0.225,0.889,0.170
41.249,-0.244,0.887,0.166
41.259,-0.271,0.906,0.150
41.269,-0.303,0.949,0.156
41.279,-0.311,1.023,0.182
41.288,-0.311,1.061,0.211
41.298,-0.311,1.055,0.205
41.308,-0.318,1.061,0.186
41.318,-0.326,1.033,0.156
41.328,-0.320,1.021,0.137
41.338,-0.318,1.035,0.131
41.348,-0.314,1.084,0.150
41.358,-0.307,1.105,0.186
41.368,-0.303,1.104,0.209
41.378,-0.322,1.070,0.207
41.388,-0.338,1.018,0.182
41.398,-0.316,0.979,0.172
41.408,-0.301,0.938,0.172
41.417,-0.264,0.922,0.174
41.427,-0.229,0.914,0.186
41.437,-0.195,0.898,0.189
41.447,-0.195,0.912,0.191
41.457,-0.209,0.928,0.186
41.467,-0.203,0.938,0.176
41.477,-0.217,0.977,0.168
41.487,-0.217,1.023,0.168
41.497,-0.215,1.047,0.168
41.507,-0.213,1.057,0.160
41.517,-0.221,1.053,0.152
41.527,-0.230,1.070,0.145
41.537,-0.221,1.076,0.143
41.546,-0.195,1.035,0.148
41.556,-0.203,1.010,0.143
41.566,-0.203,0.959,0.133
41.576,-0.201,0.910,0.133
41.586,-0.213,0.885,0.135
41.596,-0.225,0.877,0.145
41.606,-0.234,0.871,0.158
41.616,-0.225,0.875,0.162
41.626,-0.225,0.887,0.189
41.636,-0.246,0.877,0.191
41.646,-0.271,0.850,0.195
41.656,-0.346,0.840,0.207
41.665,-0.400,0.842,0.205
41.675,-0.424,0.830,0.242
41.685,-0.385,0.834,0.215
41.695,-0.342,0.781,0.248
41.705,-0.328,0.736,0.205
41.715,-0.295,0.727,0.182
41.725,-0.273,0.729,0.178
41.735,-0.256,0.783,0.168
41.745,-0.256,0.848,0.188
41.755,-0.260,0.869,0.174
41.765,-0.256,0.875,0.162
41.775,-0.275,0.875,0.139
41.785,-0.266,0.873,0.121
41.794,-0.244,0.887,0.125
41.804,-0.188,0.941,0.115
41.814,-0.213,0.918,0.133
41.824,-0.219,0.947,0.100
41.834,-0.213,0.963,0.104
41.844,-0.250,1.010,0.123
41.854,-0.268,1.010,0.154
41.864,-0.262,0.990,0.164
41.874,-0.230,0.971,0.191
41.884,-0.176,0.941,0.191
41.894,-0.172,0.939,0.199
41.904,-0.180,0.951,0.203
41.914,-0.211,0.975,0.215
41.923,-0.215,0.955,0.203
41.933,-0.223,0.934,0.186
41.943,-0.252,0.977,0.193
41.953,-0.279,0.994,0.197
41.963,-0.285,1.000,0.188
41.973,-0.324,1.004,0.201
41.983,-0.369,0.986,0.172
41.993,-0.293,1.062,0.148
42.003,-0.250,1.018,0.182
42.013,-0.287,0.957,0.115
42.023,-0.260,0.951,0.076
42.033,-0.211,0.984,0.125
42.042,-0.213,1.045,0.145
42.052,-0.207,1.072,0.168
42.062,-0.219,1.143,0.188
42.072,-0.277,0.982,0.133
42.082,-0.289,1.064,0.168
42.092,-0.303,1.035,0.176
42.102,-0.336,0.996,0.146
42.112,-0.336,0.990,0.139
42.122,-0.355,0.984,0.137
42.132,-0.355,0.975,0.119
42.142,-0.328,0.979,0.119
42.152,-0.285,0.967,0.154
42.162,-0.295,0.986,0.123
42.171,-0.293,0.992,0.123
42.181,-0.293,0.982,0.121
42.191,-0.287,0.967,0.109
42.201,-0.254,0.980,0.113
42.211,-0.230,0.992,0.119
42.221,-0.203,0.994,0.117
42.231,-0.207,0.992,0.117
42.241,-0.195,0.969,0.109
42.251,-0.217,0.947,0.115
42.261,-0.252,0.930,0.105
42.271,-0.275,0.932,0.113
42.281,-0.289,0.938,0.137
42.291,-0.291,0.934,0.141
42.300,-0.277,0.916,0.135
42.310,-0.273,0.904,0.141
42.320,-0.277,0.902,0.141
42.330,-0.279,0.889,0.131
42.340,-0.312,0.875,0.119
42.350,-0.336,0.895,0.131
42.360,-0.340,0.895,0.145
42.370,-0.322,0.885,0.158
42.380,-0.320,0.871,0.174
42.390,-0.312,0.844,0.176
42.400,-0.301,0.814,0.168
42.410,-0.322,0.773,0.158
42.420,-0.352,0.760,0.139
42.429,-0.359,0.760,0.135
42.439,-0.338,0.775,0.135
42.449,-0.322,0.812,0.139
42.459,-0.303,0.844,0.145
42.469,-0.289,0.861,0.139
42.479,-0.293,0.881,0.135
42.489,-0.303,0.877,0.119
42.499,-0.307,0.869,0.096
42.509,-0.285,0.922,0.100
42.519,-0.275,0.988,0.117
42.529,-0.275,1.025,0.143
42.539,-0.273,1.039,0.162
42.548,-0.277,1.004,0.174
42.558,-0.246,0.971,0.174
42.568,-0.242,0.939,0.164
42.578,-0.266,0.949,0.158
42.588,-0.273,0.975,0.160
42.598,-0.287,0.992,0.164
42.608,-0.316,1.033,0.178
42.618,-0.354,1.051,0.195
42.628,-0.355,1.016,0.160
42.638,-0.338,0.949,0.133
42.648,-0.307,0.936,0.137
42.658,-0.273,0.926,0.141
42.668,-0.285,0.936,0.139
42.677,-0.295,0.969,0.141
42.687,-0.279,0.986,0.141
42.697,-0.268,0.998,0.150
42.707,-0.248,0.992,0.154
42.717,-0.223,0.979,0.145
42.727,-0.205,0.973,0.141
42.737,-0.178,0.971,0.139
42.747,-0.162,0.984,0.148
42.757,-0.182,0.996,0.145
42.767,-0.223,1.002,0.117
42.777,-0.250,0.982,0.113
42.787,-0.297,1.021,0.113
42.797,-0.312,1.027,0.111
42.806,-0.303,1.010,0.117
42.816,-0.293,0.992,0.125
42.826,-0.301,0.973,0.125
42.836,-0.318,0.943,0.115
42.846,-0.342,0.930,0.109
42.856,-0.357,0.902,0.115
42.866,-0.375,0.908,0.109
42.876,-0.377,0.902,0.117
42.886,-0.355,0.902,0.131
42.896,-0.338,0.896,0.137
42.906,-0.307,0.895,0.146
42.916,-0.281,0.906,0.154
42.925,-0.283,0.906,0.152
42.935,-0.287,0.910,0.150
42.945,-0.277,0.918,0.154
42.955,-0.283,0.932,0.160
42.965,-0.277,0.939,0.166
42.975,-0.275,0.953,0.176
42.985,-0.273,0.957,0.182
42.995,-0.273,0.963,0.191
43.005,-0.283,0.979,0.193
43.015,-0.311,0.967,0.199
43.025,-0.326,0.992,0.203
43.035,-0.299,0.963,0.201
43.045,-0.289,0.941,0.197
43.054,-0.293,0.949,0.182
43.064,-0.297,0.945,0.180
43.074,-0.312,0.953,0.184
43.084,-0.330,0.969,0.174
43.094,-0.340,0.988,0.178
43.104,-0.326,0.984,0.170
43.114,-0.303,0.967,0.158
43.124,-0.293,0.945,0.145
43.134,-0.297,0.910,0.139
43.144,-0.295,0.895,0.135
43.154,-0.289,0.896,0.145
43.164,-0.295,0.918,0.154
43.174,-0.299,0.941,0.162
43.183,-0.279,0.932,0.158
43.193,-0.260,0.934,0.160
43.203,-0.240,0.938,0.156
43.213,-0.211,0.938,0.154
43.223,-0.188,0.951,0.150
43.233,-0.186,0.959,0.143
43.243,-0.184,0.963,0.137
43.253,-0.158,0.975,0.141
43.263,-0.117,0.990,0.166
43.273,-0.111,0.990,0.166
43.283,-0.113,0.979,0.141
43.293,-0.139,0.959,0.137
43.302,-0.193,0.928,0.115
43.312,-0.236,0.887,0.092
43.322,-0.297,0.867,0.084
43.332,-0.404,0.816,0.090
43.342,-0.416,0.863,0.025
43.352,-0.346,0.881,0.119
43.362,-0.389,0.885,0.115
43.372,-0.432,0.885,0.088
43.382,-0.414,0.887,0.082
43.392,-0.438,0.859,0.055
43.402,-0.457,0.873,0.039
43.412,-0.447,0.895,0.027
43.422,-0.451,0.906,0.025
43.431,-0.453,0.926,0.023
43.441,-0.447,0.957,0.029
43.451,-0.434,0.980,0.035
43.461,-0.412,0.984,0.049
43.471,-0.369,0.979,0.057
43.481,-0.342,0.973,0.053
43.491,-0.309,0.949,0.068
43.501,-0.297,0.939,0.070
43.511,-0.299,0.908,0.086
43.521,-0.297,0.932,0.070
43.531,-0.309,0.891,0.090
43.541,-0.270,0.896,0.072
43.551,-0.254,0.928,0.107
43.560,-0.252,0.971,0.141
43.570,-0.275,0.982,0.174
43.580,-0.273,0.996,0.164
43.590,-0.211,0.996,0.205
43.600,-0.189,0.977,0.227
43.610,-0.176,0.986,0.225
43.620,-0.133,1.014,0.258
43.630,-0.152,1.016,0.270
43.640,-0.211,0.996,0.246
43.650,-0.238,1.002,0.232
43.660,-0.270,0.969,0.238
43.670,-0.270,0.918,0.213
43.680,-0.244,0.879,0.193
43.689,-0.244,0.863,0.178
43.699,-0.273,0.877,0.160
43.709,-0.277,0.916,0.150
43.719,-0.268,0.951,0.162
43.729,-0.275,0.988,0.160
43.739,-0.293,0.994,0.158
43.749,-0.270,0.980,0.145
43.759,-0.242,0.945,0.143
43.769,-0.271,0.918,0.145
43.779,-0.295,0.926,0.105
43.789,-0.299,0.912,0.107
43.799,-0.312,0.908,0.096
43.808,-0.330,0.908,0.082
43.818,-0.359,0.914,0.080
43.828,-0.354,0.939,0.076
43.838,-0.352,0.945,0.086
43.848,-0.357,0.955,0.080
43.858,-0.352,0.945,0.068
43.868,-0.338,0.947,0.068
43.878,-0.336,0.932,0.059
43.888,-0.318,0.932,0.051
43.898,-0.281,0.926,0.061
43.908,-0.264,0.928,0.055
43.918,-0.252,0.924,0.055
43.928,-0.244,0.945,0.062
43.937,-0.252,0.953,0.068
43.947,-0.266,0.961,0.066
43.957,-0.268,0.961,0.064
43.967,-0.254,0.955,0.064
43.977,-0.260,0.959,0.062
43.987,-0.254,0.959,0.068
43.997,-0.236,0.961,0.068
44.007,-0.225,0.961,0.072
44.017,-0.229,0.988,0.088
44.027,-0.234,1.027,0.092
44.037,-0.252,1.061,0.102
44.047,-0.266,1.053,0.104
44.057,-0.285,1.008,0.088
44.066,-0.297,0.967,0.076
44.076,-0.297,0.938,0.070
44.086,-0.295,0.928,0.057
44.096,-0.309,0.904,0.025
44.106,-0.281,0.904,0.029
44.116,-0.252,0.918,0.037
44.126,-0.242,0.943,0.057
44.136,-0.242,0.953,0.062
44.146,-0.230,1.004,0.082
44.156,-0.211,0.980,0.082
44.166,-0.186,0.994,0.074
44.176,-0.160,0.982,0.096
44.185,-0.178,0.947,0.090
44.195,-0.189,0.920,0.066
44.205,-0.164,0.916,0.062
44.215,-0.184,0.908,0.076
44.225,-0.232,0.910,0.070
44.235,-0.256,0.916,0.066
44.245,-0.264,0.922,0.066
44.255,-0.295,0.938,0.070
44.265,-0.312,0.965,0.070
44.275,-0.322,0.979,0.088
44.285,-0.328,0.977,0.084
44.295,-0.311,0.971,0.092
44.305,-0.287,0.951,0.094
44.314,-0.281,0.938,0.088
44.324,-0.266,0.930,0.092
44.334,-0.271,0.920,0.084
44.344,-0.268,0.930,0.074
44.354,-0.270,0.953,0.080
44.364,-0.277,0.977,0.074
44.374,-0.273,0.980,0.072
44.384,-0.271,0.986,0.078
44.394,-0.270,0.963,0.088
44.404,-0.283,0.980,0.059
44.414,-0.262,0.967,0.068
44.424,-0.266,0.963,0.066
44.434,-0.277,0.941,0.061
44.443,-0.277,0.934,0.059
44.453,-0.277,0.926,0.061
44.463,-0.281,0.924,0.062
44.473,-0.271,0.932,0.070
44.483,-0.270,0.939,0.076
44.493,-0.260,0.943,0.086
44.503,-0.256,0.936,0.080
44.513,-0.270,0.918,0.068
44.523,-0.279,0.916,0.061
44.533,-0.279,0.918,0.066
44.543,-0.277,0.924,0.070
44.553,-0.287,0.941,0.076
44.563,-0.285,0.955,0.082
44.572,-0.275,0.963,0.088
44.582,-0.268,0.961,0.094
44.592,-0.250,0.953,0.094
44.602,-0.242,0.945,0.098
44.612,-0.246,0.943,0.092
44.622,-0.252,0.922,0.094
44.632,-0.242,0.908,0.088
44.642,-0.244,0.924,0.096
44.652,-0.246,0.938,0.109
44.662,-0.260,0.941,0.113
44.672,-0.270,0.939,0.113
44.682,-0.289,0.930,0.109
44.691,-0.295,0.941,0.107
44.701,-0.303,0.953,0.104
44.711,-0.291,0.939,0.102
44.721,-0.262,0.938,0.107
44.731,-0.232,0.930,0.113
44.741,-0.215,0.924,0.111
44.751,-0.219,0.916,0.113
44.761,-0.238,0.906,0.107
44.771,-0.254,0.906,0.107
44.781,-0.275,0.928,0.109
44.791,-0.287,0.969,0.111
44.801,-0.285,1.000,0.107
44.811,-0.285,1.010,0.107
44.820,-0.289,1.012,0.102
44.830,-0.277,1.012,0.100
44.840,-0.258,1.010,0.104
44.850,-0.238,1.006,0.111
44.860,-0.225,1.000,0.105
44.870,-0.223,0.986,0.105
44.880,-0.229,0.965,0.098
44.890,-0.242,0.947,0.096
44.900,-0.254,0.941,0.084
44.910,-0.264,0.936,0.088
44.920,-0.268,0.930,0.092
44.930,-0.268,0.934,0.092
44.940,-0.256,0.938,0.094
44.949,-0.258,0.936,0.094
44.959,-0.262,0.934,0.090
44.969,-0.266,0.932,0.078
44.979,-0.277,0.930,0.076
44.989,-0.273,0.936,0.072
44.999,-0.268,0.934,0.070
45.009,-0.260,0.938,0.072
45.019,-0.244,0.945,0.074
45.029,-0.242,0.947,0.078
45.039,-0.242,0.947,0.084
45.049,-0.250,0.949,0.076
45.059,-0.248,0.951,0.076
45.068,-0.262,0.957,0.076
45.078,-0.268,0.955,0.072
45.088,-0.271,0.953,0.078
45.098,-0.273,0.961,0.076
45.108,-0.264,0.967,0.078
45.118,-0.258,0.957,0.072
45.128,-0.260,0.951,0.066
45.138,-0.254,0.963,0.064
45.148,-0.252,0.971,0.068
45.158,-0.250,0.973,0.072
45.168,-0.248,0.967,0.068
45.178,-0.246,0.965,0.074
45.188,-0.254,0.951,0.074
45.197,-0.260,0.938,0.066
45.207,-0.264,0.928,0.068
45.217,-0.271,0.928,0.070
45.227,-0.271,0.936,0.070
45.237,-0.273,0.938,0.072
45.247,-0.275,0.951,0.076
45.257,-0.281,0.965,0.078
45.267,-0.271,0.973,0.078
45.277,-0.264,0.973,0.076
45.287,-0.250,0.969,0.078
45.297,-0.246,0.961,0.082
45.307,-0.252,0.951,0.076
45.317,-0.250,0.938,0.074
45.326,-0.262,0.928,0.070
45.336,-0.268,0.932,0.064
45.346,-0.271,0.928,0.061
45.356,-0.277,0.934,0.070
45.366,-0.279,0.938,0.062
45.376,-0.273,0.951,0.070
45.386,-0.285,0.957,0.080
45.396,-0.283,0.959,0.074
45.406,-0.273,0.953,0.070
45.416,-0.262,0.955,0.072
45.426,-0.252,0.949,0.072
45.436,-0.268,0.941,0.074
45.446,-0.273,0.943,0.068
45.455,-0.270,0.959,0.074
45.465,-0.281,0.967,0.082
45.475,-0.283,0.961,0.076
45.485,-0.289,0.959,0.072
45.495,-0.289,0.961,0.064
45.505,-0.281,0.959,0.064
45.515,-0.273,0.963,0.066
45.525,-0.277,0.963,0.068
45.535,-0.256,0.963,0.080
45.545,-0.264,0.959,0.064
45.555,-0.268,0.955,0.068
45.565,-0.273,0.953,0.066
45.574,-0.281,0.945,0.064
45.584,-0.281,0.939,0.066
45.594,-0.285,0.943,0.066
45.604,-0.287,0.941,0.066
45.614,-0.281,0.945,0.062
45.624,-0.277,0.943,0.066
45.634,-0.268,0.945,0.074
45.644,-0.266,0.943,0.074
45.654,-0.273,0.934,0.064
45.664,-0.281,0.932,0.059
45.674,-0.289,0.934,0.059
45.684,-0.289,0.938,0.059
45.694,-0.289,0.945,0.059
45.703,-0.285,0.943,0.066
45.713,-0.281,0.943,0.066
45.723,-0.277,0.945,0.064
45.733,-0.285,0.951,0.061
45.743,-0.285,0.963,0.061
45.753,-0.283,0.969,0.061
45.763,-0.281,0.969,0.059
45.773,-0.275,0.971,0.066
45.783,-0.275,0.969,0.062
45.793,-0.283,0.955,0.057
45.803,-0.285,0.951,0.059
45.813,-0.289,0.945,0.057
45.823,-0.287,0.943,0.053
45.832,-0.283,0.943,0.055
45.842,-0.285,0.947,0.055
45.852,-0.281,0.953,0.055
45.862,-0.275,0.949,0.055
45.872,-0.273,0.951,0.051
45.882,-0.275,0.943,0.053
45.892,-0.270,0.938,0.049
45.902,-0.275,0.930,0.047
45.912,-0.275,0.924,0.045
45.922,-0.277,0.922,0.039
45.932,-0.275,0.918,0.039
45.942,-0.275,0.924,0.041
45.951,-0.279,0.932,0.037
45.961,-0.273,0.941,0.045
45.971,-0.275,0.947,0.045
45.981,-0.279,0.951,0.045
45.991,-0.283,0.949,0.047
46.001,-0.287,0.947,0.043
46.011,-0.285,0.951,0.045
46.021,-0.293,0.945,0.041
46.031,-0.293,0.947,0.043
46.041,-0.295,0.951,0.045
46.051,-0.301,0.953,0.045
46.061,-0.295,0.957,0.051
46.071,-0.289,0.957,0.057
46.080,-0.287,0.951,0.059
46.090,-0.287,0.953,0.064
46.100,-0.297,0.949,0.062
46.110,-0.301,0.949,0.059
46.120,-0.299,0.953,0.064
46.130,-0.303,0.957,0.064
46.140,-0.307,0.957,0.064
46.150,-0.309,0.949,0.070
46.160,-0.305,0.947,0.066
46.170,-0.305,0.938,0.068
46.180,-0.297,0.934,0.072
46.190,-0.289,0.934,0.068
46.200,-0.277,0.934,0.074
46.209,-0.277,0.938,0.074
46.219,-0.277,0.928,0.070
46.229,-0.283,0.922,0.064
46.239,-0.287,0.924,0.061
46.249,-0.293,0.934,0.059
46.259,-0.299,0.939,0.062
46.269,-0.301,0.947,0.061
46.279,-0.301,0.943,0.062
46.289,-0.295,0.938,0.064
46.299,-0.301,0.932,0.062
46.309,-0.307,0.932,0.059
46.319,-0.311,0.936,0.059
46.329,-0.312,0.941,0.057
46.338,-0.314,0.943,0.055
46.348,-0.312,0.947,0.055
46.358,-0.316,0.951,0.057
46.368,-0.311,0.951,0.055
46.378,-0.303,0.953,0.055
46.388,-0.299,0.943,0.055
46.398,-0.295,0.938,0.057
46.408,-0.293,0.932,0.055
46.418,-0.293,0.934,0.059
46.428,-0.293,0.934,0.061
46.438,-0.297,0.932,0.061
46.448,-0.303,0.934,0.059
46.457,-0.311,0.938,0.057
46.467,-0.311,0.939,0.055
46.477,-0.309,0.943,0.053
46.487,-0.309,0.943,0.053
46.497,-0.311,0.943,0.053
46.507,-0.307,0.945,0.055
46.517,-0.303,0.941,0.057
46.527,-0.303,0.938,0.053
46.537,-0.295,0.936,0.051
46.547,-0.301,0.934,0.049
46.557,-0.305,0.938,0.049
46.567,-0.311,0.936,0.051
46.577,-0.312,0.943,0.053
46.586,-0.314,0.947,0.057
46.596,-0.318,0.949,0.053
46.606,-0.322,0.949,0.057
46.616,-0.326,0.949,0.059
46.626,-0.318,0.949,0.062
46.636,-0.309,0.949,0.064
46.646,-0.297,0.943,0.066
46.656,-0.303,0.932,0.062
46.666,-0.303,0.936,0.059
46.676,-0.305,0.938,0.064
46.686,-0.305,0.941,0.062
46.696,-0.312,0.951,0.059
46.706,-0.311,0.953,0.057
46.715,-0.311,0.947,0.053
46.725,-0.328,0.943,0.051
46.735,-0.328,0.941,0.049
46.745,-0.324,0.939,0.049
46.755,-0.322,0.945,0.049
46.765,-0.303,0.951,0.062
46.775,-0.281,0.953,0.068
46.785,-0.266,0.922,0.066
46.795,-0.262,0.916,0.055
46.805,-0.266,0.912,0.049
46.815,-0.271,0.920,0.049
46.825,-0.268,0.922,0.051
46.834,-0.266,0.939,0.051
46.844,-0.266,0.945,0.045
46.854,-0.273,0.947,0.053
46.864,-0.279,0.947,0.051
46.874,-0.291,0.945,0.051
46.884,-0.295,0.951,0.047
46.894,-0.295,0.959,0.049
46.904,-0.301,0.953,0.051
46.914,-0.309,0.949,0.043
46.924,-0.311,0.959,0.045
46.934,-0.305,0.969,0.043
46.944,-0.289,0.967,0.051
46.954,-0.271,0.973,0.053
46.963,-0.256,0.969,0.057
46.973,-0.250,0.957,0.057
46.983,-0.246,0.947,0.055
46.993,-0.252,0.939,0.049
47.003,-0.264,0.938,0.053
47.013,-0.264,0.936,0.053
47.023,-0.266,0.936,0.049
47.033,-0.273,0.938,0.053
47.043,-0.270,0.943,0.055
47.053,-0.277,0.941,0.057
47.063,-0.268,0.947,0.053
47.073,-0.264,0.947,0.057
47.083,-0.268,0.947,0.049
47.092,-0.270,0.945,0.045
47.102,-0.266,0.947,0.049
47.112,-0.275,0.945,0.043
47.122,-0.273,0.949,0.041
47.132,-0.277,0.943,0.043
47.142,-0.289,0.941,0.033
47.152,-0.279,0.951,0.037
47.162,-0.270,0.959,0.043
47.172,-0.258,0.963,0.049
47.182,-0.260,0.963,0.057
47.192,-0.254,0.961,0.045
47.202,-0.246,0.953,0.051
47.211,-0.252,0.945,0.049
47.221,-0.248,0.936,0.043
47.231,-0.254,0.932,0.047
47.241,-0.266,0.938,0.041
47.251,-0.264,0.943,0.047
47.261,-0.264,0.949,0.053
47.271,-0.268,0.949,0.051
47.281,-0.260,0.949,0.051
47.291,-0.268,0.947,0.045
47.301,-0.277,0.943,0.043
47.311,-0.289,0.938,0.041
47.321,-0.281,0.938,0.035
47.331,-0.273,0.951,0.041
47.340,-0.256,0.959,0.045
47.350,-0.256,0.957,0.049
47.360,-0.252,0.963,0.053
47.370,-0.250,0.953,0.057
47.380,-0.250,0.951,0.057
47.390,-0.250,0.938,0.055
47.400,-0.254,0.912,0.051
47.410,-0.270,0.900,0.033
47.420,-0.275,0.914,0.029
47.430,-0.279,0.928,0.027
47.440,-0.289,0.947,0.020
47.450,-0.277,0.959,0.033
47.460,-0.271,0.961,0.029
47.469,-0.266,0.967,0.029
47.479,-0.264,0.957,0.025
47.489,-0.271,0.939,0.023
47.499,-0.260,0.932,0.008
47.509,-0.266,0.924,0.016
47.519,-0.264,0.938,0.016
47.529,-0.254,0.945,0.023
47.539,-0.248,0.953,0.027
47.549,-0.229,0.961,0.020
47.559,-0.221,0.967,0.023
47.569,-0.223,0.963,0.008
47.579,-0.209,0.967,0.002
47.589,-0.211,0.979,0.006
47.598,-0.213,0.988,0.008
47.608,-0.193,1.025,0.029
47.618,-0.188,1.059,0.057
47.628,-0.201,1.057,0.055
47.638,-0.191,1.043,0.045
47.648,-0.205,1.004,0.043
47.658,-0.205,0.979,0.027
47.668,-0.203,0.971,0.029
47.678,-0.188,0.975,0.033
47.688,-0.176,0.963,0.029
47.698,-0.152,0.955,0.035
47.708,-0.133,0.939,0.045
47.717,-0.111,0.922,0.039
47.727,-0.133,0.891,0.027
47.737,-0.168,0.867,0.010
47.747,-0.178,0.863,-0.002
47.757,-0.189,0.869,0.000
47.767,-0.211,0.891,-0.014
47.777,-0.211,0.949,-0.004
47.787,-0.199,1.035,0.014
47.797,-0.236,1.100,0.025
47.807,-0.258,1.135,0.029
47.817,-0.271,1.131,0.029
47.827,-0.277,1.090,0.008
47.837,-0.225,1.055,0.008
47.846,-0.209,0.986,0.020
47.856,-0.199,0.930,-0.004
47.866,-0.172,0.891,-0.012
47.876,-0.148,0.877,-0.014
47.886,-0.174,0.865,-0.020
47.896,-0.170,0.863,-0.021
47.906,-0.156,0.871,-0.010
47.916,-0.168,0.887,-0.010
47.926,-0.154,0.918,-0.010
47.936,-0.160,0.941,-0.008
47.946,-0.158,0.945,-0.018
47.956,-0.182,0.953,-0.023
47.966,-0.182,0.961,-0.037
47.975,-0.184,0.955,-0.039
47.985,-0.174,0.982,-0.035
47.995,-0.125,1.006,-0.014
48.005,-0.129,1.020,-0.010
48.015,-0.123,1.021,-0.014
48.025,-0.127,0.986,-0.023
48.035,-0.098,0.926,-0.049
48.045,-0.090,0.854,-0.080
48.055,-0.086,0.811,-0.104
48.065,-0.061,0.809,-0.105
48.075,-0.062,0.824,-0.107
48.085,-0.062,0.893,-0.088
48.094,-0.068,0.941,-0.080
48.104,-0.088,0.973,-0.072
48.114,-0.092,0.996,-0.059
48.124,-0.096,1.012,-0.057
48.134,-0.113,1.047,-0.055
48.144,-0.121,1.125,-0.049
48.154,-0.143,1.197,-0.043
48.164,-0.166,1.229,-0.045
48.174,-0.186,1.240,-0.074
48.184,-0.201,1.250,-0.064
48.194,-0.211,1.221,-0.064
48.204,-0.191,1.168,-0.061
48.214,-0.152,1.119,-0.055
48.223,-0.148,1.082,-0.055
48.233,-0.121,1.064,-0.041
48.243,-0.117,1.008,-0.021
48.253,-0.105,0.973,-0.020
48.263,-0.133,0.877,-0.014
48.273,-0.135,0.775,-0.037
48.283,-0.123,0.689,-0.039
48.293,-0.127,0.627,-0.041
48.303,-0.143,0.625,-0.033
48.313,-0.152,0.678,-0.010
48.323,-0.160,0.754,0.000
48.333,-0.182,0.811,0.006
48.343,-0.217,0.871,0.006
48.352,-0.244,0.912,0.012
48.362,-0.244,0.947,0.023
48.372,-0.240,0.969,0.012
48.382,-0.248,1.004,0.006
48.392,-0.264,1.041,0.008
48.402,-0.279,1.074,0.010
48.412,-0.277,1.109,0.008
48.422,-0.266,1.143,0.008
48.432,-0.262,1.158,0.029
48.442,-0.248,1.145,0.041
48.452,-0.211,1.078,0.051
48.462,-0.197,1.000,0.049
48.472,-0.186,0.926,0.057
48.481,-0.191,0.877,0.066
48.491,-0.211,0.840,0.078
48.501,-0.234,0.832,0.072
48.511,-0.238,0.830,0.084
48.521,-0.234,0.850,0.078
48.531,-0.252,0.865,0.072
48.541,-0.244,0.889,0.066
48.551,-0.242,0.912,0.070
48.561,-0.262,0.936,0.057
48.571,-0.277,0.957,0.053
48.581,-0.301,0.988,0.045
48.591,-0.307,1.002,0.045
48.600,-0.293,0.994,0.041
48.610,-0.281,0.977,0.033
48.620,-0.240,0.949,0.061
48.630,-0.184,0.961,0.061
48.640,-0.182,1.029,0.053
48.650,-0.258,1.107,0.055
48.660,-0.324,1.117,0.039
48.670,-0.354,1.066,0.029
48.680,-0.350,1.031,0.021
48.690,-0.354,0.959,0.002
48.700,-0.320,0.881,-0.014
48.710,-0.295,0.816,-0.018
48.720,-0.297,0.785,-0.016
48.729,-0.275,0.781,-0.008
48.739,-0.264,0.785,0.006
48.749,-0.275,0.816,0.010
48.759,-0.285,0.854,0.020
48.769,-0.287,0.896,0.021
48.779,-0.305,0.941,0.025
48.789,-0.342,0.996,0.029
48.799,-0.352,1.023,0.031
48.809,-0.359,1.049,0.021
48.819,-0.346,1.107,0.045
48.829,-0.340,1.119,0.062
48.839,-0.320,1.092,0.055
48.849,-0.281,1.078,0.057
48.858,-0.258,1.066,0.080
48.868,-0.281,1.039,0.088
48.878,-0.283,1.014,0.096
48.888,-0.275,0.961,0.102
48.898,-0.248,0.869,0.092
48.908,-0.211,0.783,0.084
48.918,-0.227,0.746,0.109
48.928,-0.250,0.758,0.092
48.938,-0.262,0.762,0.092
48.948,-0.266,0.801,0.090
48.958,-0.264,0.824,0.090
48.968,-0.279,0.840,0.080
48.977,-0.277,0.863,0.059
48.987,-0.303,0.896,0.049
48.997,-0.322,0.947,0.037
49.007,-0.312,0.998,0.045
49.017,-0.287,1.031,0.059
49.027,-0.258,1.035,0.059
49.037,-0.225,1.039,0.062
49.047,-0.227,1.047,0.062
49.057,-0.250,1.031,0.051
49.067,-0.264,1.023,0.049
49.077,-0.283,1.012,0.062
49.087,-0.283,0.982,0.059
49.097,-0.281,0.924,0.072
49.106,-0.275,0.912,0.064
49.116,-0.283,0.896,0.068
49.126,-0.295,0.895,0.064
49.136,-0.309,0.891,0.061
49.146,-0.309,0.893,0.064
49.156,-0.316,0.879,0.061
49.166,-0.320,0.873,0.059
49.176,-0.322,0.881,0.064
49.186,-0.346,0.891,0.057
49.196,-0.330,0.928,0.053
49.206,-0.314,0.965,0.062
49.216,-0.316,1.014,0.068
49.226,-0.289,1.037,0.070
49.235,-0.289,1.043,0.068
49.245,-0.303,1.045,0.068
49.255,-0.305,1.008,0.068
49.265,-0.307,0.975,0.051
49.275,-0.287,0.971,0.057
49.285,-0.271,0.975,0.066
49.295,-0.258,0.980,0.068
49.305,-0.248,0.965,0.072
49.315,-0.240,0.949,0.074
49.325,-0.221,0.916,0.072
49.335,-0.209,0.883,0.076
49.345,-0.199,0.855,0.072
49.355,-0.236,0.840,0.070
49.364,-0.271,0.832,0.064
49.374,-0.273,0.807,0.057
49.384,-0.270,0.797,0.059
49.394,-0.291,0.799,0.049
49.404,-0.309,0.824,0.037
49.414,-0.324,0.838,0.033
49.424,-0.344,0.873,0.020
49.434,-0.375,0.922,0.012
49.444,-0.371,0.992,0.014
49.454,-0.379,1.045,0.023
49.464,-0.367,1.088,0.023
49.474,-0.346,1.090,0.018
49.483,-0.340,1.072,0.012
49.493,-0.344,1.068,0.004
49.503,-0.350,1.037,0.002
49.513,-0.332,1.004,-0.008
49.523,-0.301,0.984,-0.004
49.533,-0.268,0.975,0.006
49.543,-0.246,0.959,-0.006
49.553,-0.221,0.920,0.000
49.563,-0.205,0.875,0.004
49.573,-0.203,0.834,0.020
49.583,-0.197,0.789,0.016
49.593,-0.215,0.764,0.023
49.603,-0.283,0.771,0.025
49.612,-0.297,0.818,0.023
49.622,-0.320,0.840,0.029
49.632,-0.355,0.914,0.020
49.642,-0.402,0.996,0.021
49.652,-0.424,1.068,0.018
49.662,-0.416,1.127,0.033
49.672,-0.438,1.148,0.029
49.682,-0.420,1.141,0.018
49.692,-0.389,1.119,0.018
49.702,-0.371,1.076,0.006
49.712,-0.318,1.014,0.004
49.722,-0.293,0.953,0.000
49.732,-0.271,0.896,-0.004
49.741,-0.256,0.848,-0.010
49.751,-0.223,0.818,-0.012
49.761,-0.203,0.838,0.000
49.771,-0.199,0.881,0.014
49.781,-0.223,0.885,0.023
49.791,-0.248,0.889,0.020
49.801,-0.258,0.881,0.033
49.811,-0.254,0.930,0.055
49.821,-0.242,0.955,0.064
49.831,-0.242,0.957,0.068
49.841,-0.242,0.984,0.070
49.851,-0.258,1.031,0.078
49.860,-0.268,1.078,0.100
49.870,-0.287,1.076,0.109
49.880,-0.316,1.043,0.098
49.890,-0.318,1.006,0.080
49.900,-0.301,0.945,0.074
49.910,-0.283,0.920,0.059
49.920,-0.279,0.922,0.061
49.930,-0.258,0.930,0.061
49.940,-0.229,0.910,0.055
49.950,-0.227,0.904,0.049
49.960,-0.221,0.873,0.029
49.970,-0.242,0.840,0.002
49.980,-0.240,0.861,0.000
49.989,-0.238,0.902,0.021
49.999,-0.252,0.947,0.027
50.009,-0.248,0.973,0.039
50.019,-0.244,1.000,0.057
50.029,-0.256,1.020,0.064
50.039,-0.248,1.027,0.059
50.049,-0.279,0.990,0.043
50.059,-0.281,0.984,0.020
50.069,-0.295,0.982,0.021
50.079,-0.320,0.969,0.014
50.089,-0.314,0.949,0.010
50.099,-0.303,0.920,0.004
50.109,-0.273,0.887,0.004
50.118,-0.242,0.865,0.000
50.128,-0.225,0.840,-0.010
