df_hash,22ZHK4.7EH0JY
device,HZ2X61
project_hash,29R7
project_name,istanbul_aydin_university
person_hash,29R7.5CYM
person_label,V57
date_time_start,2025-10-31_15-01-59.533000_+03
date_time_start_unix,1761908519.533
date_time_end,2025-10-31_15-11-16.488000_+03
length_difference_noticed,no

time,acc_x,acc_y,acc_z
4.713,-0.498,0.893,0.238
4.723,-0.492,0.891,0.242
4.733,-0.488,0.893,0.242
4.743,-0.480,0.891,0.246
4.753,-0.479,0.893,0.248
4.763,-0.480,0.895,0.252
4.773,-0.475,0.895,0.252
4.783,-0.475,0.893,0.250
4.793,-0.471,0.895,0.256
4.803,-0.467,0.893,0.258
4.813,-0.465,0.896,0.260
4.823,-0.465,0.900,0.262
4.833,-0.459,0.896,0.262
4.842,-0.463,0.896,0.262
4.852,-0.459,0.895,0.268
4.862,-0.457,0.896,0.266
4.872,-0.461,0.893,0.266
4.882,-0.463,0.896,0.270
4.892,-0.459,0.898,0.271
4.902,-0.453,0.896,0.273
4.912,-0.443,0.898,0.271
4.922,-0.443,0.898,0.275
4.932,-0.441,0.900,0.273
4.942,-0.436,0.900,0.277
4.952,-0.432,0.902,0.281
4.962,-0.426,0.904,0.281
4.972,-0.424,0.904,0.283
4.982,-0.420,0.906,0.279
4.992,-0.418,0.902,0.283
5.001,-0.418,0.902,0.283
5.011,-0.418,0.904,0.283
5.021,-0.414,0.904,0.287
5.031,-0.414,0.908,0.285
5.041,-0.416,0.914,0.287
5.051,-0.414,0.914,0.287
5.061,-0.418,0.910,0.285
5.071,-0.416,0.910,0.285
5.081,-0.420,0.916,0.285
5.091,-0.418,0.916,0.287
5.101,-0.416,0.908,0.289
5.111,-0.420,0.908,0.281
5.121,-0.426,0.908,0.283
5.131,-0.428,0.908,0.277
5.141,-0.430,0.910,0.281
5.150,-0.432,0.908,0.281
5.160,-0.432,0.908,0.283
5.170,-0.436,0.908,0.277
5.180,-0.438,0.908,0.283
5.190,-0.438,0.910,0.279
5.200,-0.439,0.910,0.283
5.210,-0.438,0.906,0.279
5.220,-0.441,0.908,0.277
5.230,-0.441,0.908,0.277
5.240,-0.441,0.908,0.279
5.250,-0.441,0.908,0.275
5.260,-0.439,0.910,0.277
5.270,-0.438,0.908,0.277
5.280,-0.441,0.906,0.279
5.290,-0.439,0.908,0.277
5.300,-0.438,0.912,0.277
5.309,-0.436,0.910,0.275
5.319,-0.438,0.908,0.279
5.329,-0.439,0.908,0.275
5.339,-0.441,0.908,0.275
5.349,-0.439,0.908,0.275
5.359,-0.441,0.910,0.277
5.369,-0.439,0.908,0.275
5.379,-0.441,0.910,0.277
5.389,-0.439,0.908,0.271
5.399,-0.439,0.906,0.275
5.409,-0.439,0.906,0.277
5.419,-0.441,0.910,0.277
5.429,-0.443,0.906,0.275
5.439,-0.443,0.902,0.277
5.449,-0.445,0.904,0.275
5.459,-0.443,0.900,0.273
5.468,-0.449,0.900,0.275
5.478,-0.447,0.898,0.275
5.488,-0.451,0.902,0.275
5.498,-0.451,0.902,0.277
5.508,-0.451,0.904,0.275
5.518,-0.455,0.904,0.275
5.528,-0.451,0.904,0.275
5.538,-0.453,0.906,0.273
5.548,-0.453,0.904,0.277
5.558,-0.449,0.906,0.273
5.568,-0.445,0.900,0.279
5.578,-0.449,0.902,0.279
5.588,-0.449,0.900,0.275
5.598,-0.445,0.904,0.275
5.608,-0.447,0.902,0.275
5.617,-0.445,0.904,0.273
5.627,-0.449,0.904,0.279
5.637,-0.445,0.904,0.277
5.647,-0.445,0.906,0.277
5.657,-0.447,0.902,0.277
5.667,-0.447,0.904,0.275
5.677,-0.449,0.906,0.279
5.687,-0.445,0.904,0.279
5.697,-0.443,0.904,0.281
5.707,-0.441,0.904,0.277
5.717,-0.441,0.900,0.279
5.727,-0.436,0.902,0.279
5.737,-0.436,0.900,0.279
5.747,-0.436,0.904,0.277
5.757,-0.436,0.904,0.277
5.767,-0.438,0.904,0.279
5.776,-0.438,0.904,0.277
5.786,-0.438,0.908,0.275
5.796,-0.439,0.910,0.273
5.806,-0.441,0.910,0.275
5.816,-0.438,0.908,0.275
5.826,-0.439,0.912,0.277
5.836,-0.439,0.908,0.273
5.846,-0.438,0.910,0.271
5.856,-0.436,0.912,0.273
5.866,-0.438,0.908,0.275
5.876,-0.439,0.908,0.273
5.886,-0.438,0.912,0.275
5.896,-0.439,0.912,0.277
5.906,-0.436,0.908,0.275
5.916,-0.434,0.906,0.275
5.926,-0.436,0.906,0.277
5.935,-0.438,0.908,0.275
5.945,-0.439,0.910,0.277
5.955,-0.436,0.908,0.275
5.965,-0.438,0.910,0.277
5.975,-0.434,0.914,0.271
5.985,-0.436,0.908,0.275
5.995,-0.434,0.908,0.279
6.005,-0.432,0.910,0.277
6.015,-0.432,0.908,0.277
6.025,-0.430,0.912,0.275
6.035,-0.432,0.912,0.279
6.045,-0.432,0.912,0.277
6.055,-0.432,0.914,0.279
6.065,-0.432,0.912,0.277
6.075,-0.432,0.916,0.281
6.084,-0.428,0.912,0.277
6.094,-0.424,0.912,0.283
6.104,-0.428,0.912,0.281
6.114,-0.426,0.910,0.279
6.124,-0.428,0.910,0.279
6.134,-0.428,0.906,0.279
6.144,-0.426,0.904,0.279
6.154,-0.430,0.906,0.281
6.164,-0.430,0.908,0.277
6.174,-0.434,0.908,0.281
6.184,-0.436,0.908,0.277
6.194,-0.436,0.906,0.277
6.204,-0.439,0.908,0.277
6.214,-0.445,0.908,0.277
6.224,-0.443,0.906,0.277
6.234,-0.447,0.906,0.277
6.243,-0.451,0.906,0.277
6.253,-0.451,0.904,0.277
6.263,-0.451,0.902,0.275
6.273,-0.451,0.904,0.277
6.283,-0.451,0.900,0.275
6.293,-0.451,0.900,0.271
6.303,-0.455,0.900,0.271
6.313,-0.455,0.900,0.277
6.323,-0.453,0.902,0.275
6.333,-0.457,0.902,0.273
6.343,-0.453,0.900,0.275
6.353,-0.451,0.900,0.275
6.363,-0.453,0.904,0.273
6.373,-0.453,0.902,0.277
6.383,-0.451,0.904,0.275
6.393,-0.453,0.900,0.279
6.402,-0.453,0.900,0.273
6.412,-0.453,0.900,0.277
6.422,-0.449,0.900,0.275
6.432,-0.453,0.898,0.275
6.442,-0.455,0.904,0.277
6.452,-0.451,0.904,0.279
6.462,-0.453,0.900,0.273
6.472,-0.453,0.896,0.273
6.482,-0.457,0.900,0.271
6.492,-0.455,0.902,0.273
6.502,-0.457,0.898,0.273
6.512,-0.455,0.898,0.273
6.522,-0.453,0.896,0.273
6.532,-0.457,0.900,0.271
6.542,-0.457,0.896,0.273
6.552,-0.459,0.895,0.273
6.561,-0.459,0.893,0.270
6.571,-0.459,0.896,0.271
6.581,-0.463,0.898,0.271
6.591,-0.463,0.896,0.268
6.601,-0.463,0.898,0.268
6.611,-0.467,0.898,0.268
6.621,-0.467,0.898,0.270
6.631,-0.467,0.900,0.268
6.641,-0.469,0.900,0.268
6.651,-0.467,0.900,0.268
6.661,-0.467,0.900,0.270
6.671,-0.467,0.900,0.270
6.681,-0.467,0.898,0.268
6.691,-0.469,0.893,0.264
6.701,-0.471,0.896,0.268
6.710,-0.471,0.900,0.270
6.720,-0.471,0.898,0.268
6.730,-0.469,0.896,0.266
6.740,-0.469,0.895,0.264
6.750,-0.473,0.896,0.264
6.760,-0.475,0.898,0.262
6.770,-0.471,0.898,0.264
6.780,-0.473,0.895,0.268
6.790,-0.473,0.893,0.262
6.800,-0.473,0.895,0.264
6.810,-0.477,0.893,0.264
6.820,-0.475,0.893,0.264
6.830,-0.477,0.893,0.268
6.840,-0.477,0.895,0.264
6.850,-0.477,0.893,0.264
6.860,-0.477,0.895,0.262
6.869,-0.475,0.895,0.264
6.879,-0.477,0.896,0.264
6.889,-0.477,0.891,0.260
6.899,-0.479,0.895,0.262
6.909,-0.477,0.893,0.262
6.919,-0.477,0.889,0.262
6.929,-0.479,0.895,0.262
6.939,-0.479,0.895,0.260
6.949,-0.480,0.893,0.264
6.959,-0.477,0.891,0.262
6.969,-0.479,0.893,0.262
6.979,-0.477,0.891,0.264
6.989,-0.480,0.893,0.264
6.999,-0.482,0.891,0.264
7.009,-0.480,0.895,0.262
7.019,-0.480,0.893,0.264
7.028,-0.479,0.893,0.264
7.038,-0.479,0.893,0.264
7.048,-0.480,0.893,0.262
7.058,-0.480,0.891,0.264
7.068,-0.477,0.891,0.264
7.078,-0.480,0.893,0.264
7.088,-0.482,0.891,0.264
7.098,-0.482,0.893,0.262
7.108,-0.480,0.891,0.262
7.118,-0.482,0.889,0.264
7.128,-0.480,0.891,0.266
7.138,-0.480,0.891,0.266
7.148,-0.482,0.893,0.266
7.158,-0.484,0.891,0.266
7.168,-0.484,0.891,0.264
7.177,-0.482,0.893,0.266
7.187,-0.484,0.891,0.264
7.197,-0.480,0.891,0.264
7.207,-0.480,0.891,0.266
7.217,-0.482,0.893,0.266
7.227,-0.484,0.895,0.266
7.237,-0.479,0.895,0.266
7.247,-0.482,0.891,0.268
7.257,-0.477,0.891,0.270
7.267,-0.479,0.893,0.266
7.277,-0.482,0.896,0.270
7.287,-0.480,0.887,0.266
7.297,-0.480,0.887,0.264
7.307,-0.484,0.891,0.268
7.317,-0.486,0.893,0.270
7.327,-0.482,0.891,0.266
7.336,-0.482,0.889,0.266
7.346,-0.482,0.891,0.271
7.356,-0.480,0.887,0.264
7.366,-0.482,0.887,0.268
7.376,-0.482,0.889,0.268
7.386,-0.480,0.885,0.268
7.396,-0.482,0.885,0.266
7.406,-0.482,0.887,0.268
7.416,-0.480,0.887,0.268
7.426,-0.482,0.889,0.270
7.436,-0.482,0.889,0.268
7.446,-0.479,0.889,0.271
7.456,-0.482,0.895,0.268
7.466,-0.479,0.889,0.271
7.476,-0.479,0.893,0.271
7.486,-0.475,0.895,0.266
7.495,-0.479,0.895,0.268
7.505,-0.484,0.889,0.268
7.515,-0.480,0.889,0.270
7.525,-0.486,0.891,0.270
7.535,-0.482,0.896,0.271
7.545,-0.479,0.893,0.271
7.555,-0.475,0.889,0.270
7.565,-0.480,0.887,0.270
7.575,-0.484,0.887,0.270
7.585,-0.480,0.893,0.268
7.595,-0.484,0.891,0.270
7.605,-0.480,0.889,0.271
7.615,-0.482,0.889,0.268
7.625,-0.482,0.893,0.266
7.635,-0.482,0.893,0.271
7.645,-0.482,0.889,0.264
7.654,-0.480,0.891,0.264
7.664,-0.480,0.893,0.270
7.674,-0.480,0.889,0.268
7.684,-0.482,0.891,0.270
7.694,-0.482,0.893,0.266
7.704,-0.482,0.891,0.268
7.714,-0.480,0.893,0.266
7.724,-0.480,0.891,0.266
7.734,-0.480,0.893,0.266
7.744,-0.480,0.891,0.264
7.754,-0.480,0.889,0.262
7.764,-0.480,0.889,0.266
7.774,-0.482,0.887,0.266
7.784,-0.480,0.889,0.268
7.794,-0.482,0.891,0.268
7.803,-0.482,0.889,0.266
7.813,-0.482,0.889,0.266
7.823,-0.484,0.889,0.270
7.833,-0.484,0.891,0.268
7.843,-0.482,0.891,0.268
7.853,-0.484,0.891,0.268
7.863,-0.482,0.893,0.266
7.873,-0.482,0.889,0.266
7.883,-0.484,0.893,0.266
7.893,-0.480,0.891,0.270
7.903,-0.484,0.889,0.268
7.913,-0.482,0.891,0.266
7.923,-0.484,0.891,0.268
7.933,-0.479,0.891,0.266
7.943,-0.480,0.891,0.264
7.953,-0.480,0.889,0.266
7.962,-0.482,0.889,0.268
7.972,-0.482,0.889,0.266
7.982,-0.482,0.891,0.268
7.992,-0.484,0.891,0.266
8.002,-0.482,0.889,0.268
8.012,-0.484,0.887,0.270
8.022,-0.484,0.891,0.266
8.032,-0.482,0.895,0.270
8.042,-0.482,0.893,0.262
8.052,-0.482,0.891,0.268
8.062,-0.482,0.891,0.264
8.072,-0.482,0.891,0.266
8.082,-0.484,0.893,0.268
8.092,-0.479,0.893,0.268
8.102,-0.479,0.895,0.271
8.112,-0.477,0.898,0.273
8.121,-0.480,0.895,0.270
8.131,-0.479,0.891,0.268
8.141,-0.482,0.889,0.268
8.151,-0.486,0.889,0.273
8.161,-0.484,0.891,0.271
8.171,-0.482,0.889,0.273
8.181,-0.482,0.889,0.268
8.191,-0.479,0.887,0.268
8.201,-0.480,0.887,0.271
8.211,-0.480,0.885,0.270
8.221,-0.482,0.885,0.270
8.231,-0.482,0.885,0.271
8.241,-0.486,0.885,0.268
8.251,-0.486,0.887,0.268
8.261,-0.486,0.891,0.268
8.270,-0.486,0.889,0.268
8.280,-0.484,0.889,0.270
8.290,-0.484,0.891,0.271
8.300,-0.482,0.893,0.270
8.310,-0.484,0.889,0.270
8.320,-0.480,0.891,0.268
8.330,-0.484,0.891,0.266
8.340,-0.480,0.891,0.271
8.350,-0.482,0.887,0.268
8.360,-0.480,0.889,0.270
8.370,-0.484,0.895,0.270
8.380,-0.480,0.893,0.270
8.390,-0.477,0.889,0.270
8.400,-0.477,0.889,0.268
8.410,-0.479,0.885,0.264
8.420,-0.482,0.889,0.270
8.429,-0.484,0.893,0.270
8.439,-0.482,0.891,0.271
8.449,-0.482,0.893,0.270
8.459,-0.484,0.891,0.270
8.469,-0.482,0.889,0.270
8.479,-0.482,0.889,0.266
8.489,-0.482,0.893,0.266
8.499,-0.482,0.887,0.268
8.509,-0.480,0.893,0.268
8.519,-0.480,0.893,0.264
8.529,-0.479,0.891,0.270
8.539,-0.480,0.893,0.270
8.549,-0.479,0.891,0.268
8.559,-0.477,0.891,0.268
8.569,-0.479,0.893,0.270
8.579,-0.477,0.893,0.268
8.588,-0.477,0.893,0.273
8.598,-0.475,0.891,0.271
8.608,-0.479,0.893,0.266
8.618,-0.479,0.889,0.270
8.628,-0.479,0.891,0.271
8.638,-0.484,0.893,0.270
8.648,-0.486,0.895,0.270
8.658,-0.486,0.891,0.266
8.668,-0.484,0.889,0.270
8.678,-0.484,0.889,0.271
8.688,-0.484,0.891,0.270
8.698,-0.486,0.887,0.273
8.708,-0.488,0.889,0.271
8.718,-0.486,0.889,0.271
8.728,-0.486,0.887,0.268
8.737,-0.484,0.887,0.270
8.747,-0.484,0.889,0.268
8.757,-0.486,0.889,0.268
8.767,-0.486,0.889,0.268
8.777,-0.486,0.889,0.270
8.787,-0.484,0.887,0.268
8.797,-0.486,0.887,0.271
8.807,-0.486,0.887,0.270
8.817,-0.484,0.885,0.271
8.827,-0.484,0.887,0.270
8.837,-0.484,0.887,0.270
8.847,-0.488,0.887,0.270
8.857,-0.488,0.889,0.271
8.867,-0.488,0.885,0.271
8.877,-0.486,0.887,0.268
8.887,-0.488,0.887,0.270
8.896,-0.486,0.887,0.271
8.906,-0.486,0.887,0.270
8.916,-0.486,0.887,0.270
8.926,-0.484,0.889,0.275
8.936,-0.482,0.887,0.271
8.946,-0.482,0.889,0.271
8.956,-0.484,0.895,0.275
8.966,-0.480,0.891,0.273
8.976,-0.480,0.887,0.275
8.986,-0.482,0.885,0.273
8.996,-0.482,0.889,0.273
9.006,-0.484,0.893,0.271
9.016,-0.482,0.891,0.273
9.026,-0.482,0.891,0.275
9.036,-0.479,0.889,0.271
9.046,-0.480,0.885,0.277
9.055,-0.482,0.883,0.271
9.065,-0.484,0.885,0.268
9.075,-0.484,0.883,0.271
9.085,-0.486,0.885,0.273
9.095,-0.484,0.887,0.268
9.105,-0.486,0.885,0.271
9.115,-0.484,0.889,0.270
9.125,-0.484,0.891,0.271
9.135,-0.486,0.889,0.273
9.145,-0.484,0.891,0.273
9.155,-0.482,0.891,0.271
9.165,-0.484,0.891,0.268
9.175,-0.484,0.891,0.270
9.185,-0.484,0.889,0.271
9.195,-0.482,0.887,0.273
9.205,-0.484,0.887,0.273
9.214,-0.484,0.893,0.275
9.224,-0.479,0.896,0.277
9.234,-0.480,0.889,0.275
9.244,-0.480,0.887,0.271
9.254,-0.479,0.887,0.270
9.264,-0.480,0.887,0.275
9.274,-0.480,0.889,0.271
9.284,-0.480,0.893,0.273
9.294,-0.479,0.893,0.271
9.304,-0.477,0.895,0.273
9.314,-0.475,0.895,0.277
9.324,-0.473,0.893,0.275
9.334,-0.473,0.893,0.271
9.344,-0.475,0.891,0.273
9.354,-0.471,0.895,0.273
9.363,-0.475,0.895,0.275
9.373,-0.475,0.893,0.271
9.383,-0.475,0.891,0.271
9.393,-0.479,0.895,0.271
9.403,-0.477,0.895,0.273
9.413,-0.477,0.889,0.273
9.423,-0.480,0.887,0.270
9.433,-0.479,0.891,0.270
9.443,-0.480,0.889,0.271
9.453,-0.480,0.889,0.275
9.463,-0.480,0.889,0.273
9.473,-0.482,0.889,0.270
9.483,-0.484,0.889,0.270
9.493,-0.480,0.889,0.273
9.503,-0.482,0.891,0.273
9.513,-0.480,0.889,0.271
9.522,-0.482,0.891,0.270
9.532,-0.484,0.891,0.275
9.542,-0.482,0.889,0.271
9.552,-0.480,0.893,0.271
9.562,-0.480,0.893,0.273
9.572,-0.480,0.887,0.273
9.582,-0.480,0.891,0.271
9.592,-0.480,0.891,0.271
9.602,-0.482,0.889,0.273
9.612,-0.482,0.891,0.271
9.622,-0.484,0.891,0.273
9.632,-0.480,0.889,0.273
9.642,-0.480,0.887,0.270
9.652,-0.479,0.889,0.273
9.662,-0.480,0.887,0.271
9.672,-0.482,0.887,0.273
9.681,-0.482,0.893,0.273
9.691,-0.484,0.889,0.271
9.701,-0.482,0.887,0.268
9.711,-0.484,0.887,0.270
9.721,-0.480,0.887,0.273
9.731,-0.482,0.889,0.271
9.741,-0.482,0.891,0.273
9.751,-0.482,0.889,0.270
9.761,-0.482,0.891,0.273
9.771,-0.482,0.889,0.273
9.781,-0.479,0.889,0.273
9.791,-0.479,0.889,0.273
9.801,-0.479,0.891,0.271
9.811,-0.480,0.893,0.277
9.821,-0.475,0.895,0.275
9.830,-0.479,0.891,0.275
9.840,-0.475,0.891,0.273
9.850,-0.477,0.891,0.275
9.860,-0.480,0.893,0.273
9.870,-0.479,0.891,0.273
9.880,-0.475,0.891,0.275
9.890,-0.477,0.893,0.273
9.900,-0.477,0.891,0.273
9.910,-0.477,0.889,0.275
9.920,-0.480,0.887,0.273
9.930,-0.480,0.887,0.271
9.940,-0.482,0.887,0.273
9.950,-0.484,0.887,0.273
9.960,-0.482,0.889,0.271
9.970,-0.484,0.889,0.271
9.980,-0.482,0.891,0.271
9.989,-0.480,0.891,0.275
9.999,-0.480,0.893,0.273
10.009,-0.480,0.891,0.277
10.019,-0.482,0.891,0.277
10.029,-0.482,0.889,0.273
10.039,-0.482,0.889,0.273
10.049,-0.480,0.887,0.273
10.059,-0.480,0.885,0.273
10.069,-0.480,0.887,0.277
10.079,-0.479,0.895,0.277
10.089,-0.477,0.889,0.279
10.099,-0.477,0.889,0.271
10.109,-0.477,0.887,0.273
10.119,-0.480,0.889,0.270
10.129,-0.480,0.891,0.273
10.139,-0.480,0.893,0.277
10.148,-0.480,0.893,0.273
10.158,-0.480,0.893,0.275
10.168,-0.480,0.893,0.275
10.178,-0.480,0.893,0.275
10.188,-0.479,0.891,0.271
10.198,-0.479,0.893,0.271
10.208,-0.480,0.891,0.273
10.218,-0.479,0.893,0.270
10.228,-0.475,0.893,0.273
10.238,-0.479,0.891,0.275
10.248,-0.475,0.895,0.275
10.258,-0.477,0.891,0.275
10.268,-0.479,0.891,0.275
10.278,-0.482,0.887,0.271
10.288,-0.484,0.887,0.273
10.298,-0.486,0.889,0.271
10.307,-0.488,0.887,0.271
10.317,-0.490,0.885,0.273
10.327,-0.486,0.887,0.271
10.337,-0.492,0.887,0.270
10.347,-0.494,0.883,0.271
10.357,-0.498,0.887,0.271
10.367,-0.498,0.883,0.270
10.377,-0.500,0.889,0.270
10.387,-0.504,0.885,0.271
10.397,-0.502,0.887,0.271
10.407,-0.506,0.883,0.270
10.417,-0.510,0.879,0.268
10.427,-0.518,0.881,0.270
10.437,-0.518,0.879,0.264
10.447,-0.520,0.883,0.270
10.456,-0.521,0.883,0.273
10.466,-0.520,0.881,0.270
10.476,-0.520,0.877,0.271
10.486,-0.518,0.881,0.273
10.496,-0.510,0.887,0.273
10.506,-0.502,0.885,0.279
10.516,-0.494,0.887,0.281
10.526,-0.484,0.887,0.281
10.536,-0.479,0.889,0.279
10.546,-0.475,0.889,0.279
10.556,-0.461,0.891,0.283
10.566,-0.453,0.891,0.287
10.576,-0.445,0.891,0.287
10.586,-0.432,0.898,0.289
10.596,-0.422,0.906,0.299
10.606,-0.406,0.914,0.303
10.615,-0.393,0.912,0.305
10.625,-0.387,0.916,0.305
10.635,-0.379,0.920,0.305
10.645,-0.367,0.928,0.309
10.655,-0.357,0.930,0.312
10.665,-0.344,0.938,0.314
10.675,-0.330,0.941,0.322
10.685,-0.322,0.939,0.320
10.695,-0.318,0.941,0.322
10.705,-0.312,0.945,0.318
10.715,-0.303,0.949,0.324
10.725,-0.295,0.943,0.330
10.735,-0.287,0.945,0.336
10.745,-0.283,0.943,0.332
10.755,-0.281,0.939,0.336
10.765,-0.275,0.939,0.338
10.774,-0.275,0.938,0.338
10.784,-0.275,0.939,0.338
10.794,-0.277,0.939,0.342
10.804,-0.279,0.936,0.342
10.814,-0.283,0.939,0.342
10.824,-0.287,0.941,0.348
10.834,-0.283,0.943,0.346
10.844,-0.285,0.939,0.348
10.854,-0.285,0.938,0.344
10.864,-0.285,0.939,0.348
10.874,-0.285,0.938,0.348
10.884,-0.287,0.939,0.348
10.894,-0.289,0.939,0.346
10.904,-0.289,0.943,0.348
10.914,-0.291,0.941,0.346
10.923,-0.291,0.939,0.344
10.933,-0.295,0.943,0.344
10.943,-0.295,0.945,0.344
10.953,-0.295,0.941,0.340
10.963,-0.293,0.941,0.342
10.973,-0.295,0.943,0.338
10.983,-0.301,0.945,0.338
10.993,-0.303,0.945,0.336
11.003,-0.301,0.943,0.338
11.013,-0.305,0.943,0.338
11.023,-0.303,0.939,0.338
11.033,-0.305,0.936,0.336
11.043,-0.309,0.936,0.332
11.053,-0.307,0.939,0.332
11.063,-0.309,0.941,0.334
11.073,-0.311,0.941,0.334
11.082,-0.314,0.938,0.332
11.092,-0.314,0.939,0.330
11.102,-0.311,0.941,0.332
11.112,-0.311,0.938,0.328
11.122,-0.312,0.938,0.330
11.132,-0.314,0.936,0.328
11.142,-0.311,0.938,0.330
11.152,-0.314,0.938,0.332
11.162,-0.314,0.941,0.334
11.172,-0.320,0.949,0.338
11.182,-0.320,0.947,0.334
11.192,-0.324,0.951,0.336
11.202,-0.318,0.949,0.332
11.212,-0.320,0.943,0.334
11.222,-0.316,0.938,0.334
11.232,-0.314,0.939,0.328
11.241,-0.314,0.936,0.332
11.251,-0.311,0.932,0.330
11.261,-0.314,0.936,0.328
11.271,-0.316,0.936,0.330
11.281,-0.320,0.932,0.328
11.291,-0.322,0.934,0.328
11.301,-0.322,0.930,0.330
11.311,-0.324,0.930,0.328
11.321,-0.328,0.928,0.328
11.331,-0.328,0.928,0.326
11.341,-0.334,0.930,0.324
11.351,-0.334,0.928,0.326
11.361,-0.342,0.930,0.326
11.371,-0.344,0.930,0.322
11.381,-0.344,0.936,0.320
11.390,-0.348,0.936,0.316
11.400,-0.344,0.934,0.314
11.410,-0.344,0.934,0.312
11.420,-0.344,0.930,0.309
11.430,-0.346,0.928,0.311
11.440,-0.352,0.928,0.307
11.450,-0.350,0.932,0.305
11.460,-0.352,0.932,0.305
11.470,-0.354,0.930,0.303
11.480,-0.359,0.930,0.301
11.490,-0.359,0.930,0.301
11.500,-0.361,0.934,0.299
11.510,-0.365,0.934,0.301
11.520,-0.365,0.930,0.297
11.530,-0.367,0.932,0.291
11.540,-0.371,0.930,0.295
11.549,-0.371,0.934,0.291
11.559,-0.369,0.932,0.291
11.569,-0.373,0.932,0.291
11.579,-0.373,0.934,0.289
11.589,-0.373,0.936,0.291
11.599,-0.371,0.936,0.291
11.609,-0.369,0.938,0.291
11.619,-0.369,0.938,0.291
11.629,-0.365,0.936,0.287
11.639,-0.365,0.936,0.285
11.649,-0.365,0.936,0.283
11.659,-0.365,0.934,0.285
11.669,-0.363,0.934,0.281
11.679,-0.365,0.932,0.283
11.689,-0.359,0.924,0.279
11.699,-0.365,0.920,0.281
11.708,-0.365,0.922,0.277
11.718,-0.377,0.924,0.277
11.728,-0.385,0.932,0.275
11.738,-0.391,0.932,0.273
11.748,-0.398,0.924,0.270
11.758,-0.406,0.928,0.266
11.768,-0.408,0.926,0.262
11.778,-0.410,0.920,0.266
11.788,-0.410,0.912,0.252
11.798,-0.420,0.912,0.248
11.808,-0.426,0.910,0.250
11.818,-0.428,0.912,0.250
11.828,-0.430,0.916,0.252
11.838,-0.436,0.914,0.246
11.848,-0.434,0.920,0.248
11.858,-0.436,0.918,0.244
11.867,-0.436,0.918,0.242
11.877,-0.439,0.918,0.244
11.887,-0.439,0.918,0.236
11.897,-0.445,0.924,0.234
11.907,-0.445,0.920,0.234
11.917,-0.443,0.928,0.230
11.927,-0.443,0.924,0.229
11.937,-0.439,0.926,0.230
11.947,-0.439,0.926,0.230
11.957,-0.439,0.924,0.229
11.967,-0.438,0.924,0.230
11.977,-0.438,0.928,0.229
11.987,-0.436,0.928,0.229
11.997,-0.436,0.924,0.227
12.007,-0.438,0.924,0.230
12.016,-0.438,0.928,0.227
12.026,-0.436,0.926,0.221
12.036,-0.439,0.928,0.223
12.046,-0.438,0.926,0.221
12.056,-0.438,0.924,0.219
12.066,-0.439,0.924,0.219
12.076,-0.438,0.924,0.219
12.086,-0.439,0.920,0.217
12.096,-0.436,0.924,0.219
12.106,-0.439,0.922,0.221
12.116,-0.439,0.924,0.219
12.126,-0.436,0.926,0.219
12.136,-0.438,0.926,0.221
12.146,-0.438,0.922,0.217
12.156,-0.441,0.920,0.219
12.166,-0.443,0.918,0.215
12.175,-0.443,0.916,0.219
12.185,-0.443,0.922,0.219
12.195,-0.439,0.918,0.213
12.205,-0.439,0.922,0.213
12.215,-0.443,0.920,0.219
12.225,-0.441,0.920,0.215
12.235,-0.439,0.922,0.217
12.245,-0.445,0.922,0.219
12.255,-0.443,0.922,0.215
12.265,-0.445,0.922,0.219
12.275,-0.443,0.922,0.221
12.285,-0.441,0.920,0.221
12.295,-0.436,0.916,0.221
12.305,-0.436,0.910,0.217
12.315,-0.441,0.910,0.221
12.325,-0.439,0.926,0.225
12.334,-0.445,0.926,0.221
12.344,-0.451,0.914,0.215
12.354,-0.449,0.914,0.213
12.364,-0.449,0.918,0.215
12.374,-0.447,0.916,0.221
12.384,-0.447,0.916,0.219
12.394,-0.445,0.912,0.217
12.404,-0.445,0.910,0.217
12.414,-0.451,0.908,0.215
12.424,-0.449,0.906,0.215
12.434,-0.449,0.910,0.215
12.444,-0.453,0.912,0.217
12.454,-0.453,0.912,0.215
12.464,-0.453,0.912,0.213
12.474,-0.453,0.914,0.211
12.483,-0.457,0.916,0.211
12.493,-0.455,0.918,0.211
12.503,-0.455,0.920,0.215
12.513,-0.451,0.922,0.213
12.523,-0.447,0.920,0.217
12.533,-0.447,0.926,0.215
12.543,-0.445,0.924,0.213
12.553,-0.445,0.922,0.209
12.563,-0.441,0.918,0.213
12.573,-0.443,0.922,0.215
12.583,-0.438,0.926,0.215
12.593,-0.441,0.926,0.217
12.603,-0.439,0.924,0.215
12.613,-0.436,0.920,0.213
12.623,-0.439,0.922,0.213
12.633,-0.441,0.920,0.211
12.642,-0.438,0.918,0.213
12.652,-0.439,0.920,0.211
12.662,-0.439,0.918,0.211
12.672,-0.439,0.916,0.211
12.682,-0.443,0.920,0.215
12.692,-0.443,0.920,0.211
12.702,-0.445,0.920,0.209
12.712,-0.443,0.922,0.211
12.722,-0.443,0.922,0.213
12.732,-0.445,0.922,0.215
12.742,-0.447,0.918,0.211
12.752,-0.447,0.922,0.215
12.762,-0.449,0.920,0.213
12.772,-0.447,0.918,0.213
12.782,-0.449,0.916,0.213
12.792,-0.449,0.910,0.211
12.801,-0.451,0.912,0.213
12.811,-0.455,0.906,0.211
12.821,-0.457,0.904,0.213
12.831,-0.459,0.906,0.213
12.841,-0.461,0.906,0.217
12.851,-0.461,0.902,0.215
12.861,-0.467,0.902,0.213
12.871,-0.471,0.896,0.211
12.881,-0.471,0.896,0.211
12.891,-0.469,0.900,0.213
12.901,-0.463,0.908,0.217
12.911,-0.455,0.914,0.227
12.921,-0.453,0.918,0.232
12.931,-0.451,0.922,0.234
12.941,-0.447,0.928,0.240
12.951,-0.439,0.920,0.242
12.960,-0.428,0.918,0.244
12.970,-0.422,0.918,0.250
12.980,-0.416,0.924,0.254
12.990,-0.404,0.920,0.258
13.000,-0.391,0.912,0.256
13.010,-0.385,0.904,0.254
13.020,-0.387,0.896,0.250
13.030,-0.387,0.891,0.234
13.040,-0.383,0.891,0.234
13.050,-0.375,0.891,0.232
13.060,-0.369,0.891,0.230
13.070,-0.363,0.883,0.217
13.080,-0.350,0.879,0.209
13.090,-0.340,0.879,0.201
13.100,-0.334,0.879,0.197
13.109,-0.334,0.877,0.186
13.119,-0.336,0.881,0.176
13.129,-0.338,0.889,0.166
13.139,-0.344,0.896,0.154
13.149,-0.352,0.895,0.139
13.159,-0.361,0.900,0.127
13.169,-0.375,0.910,0.113
13.179,-0.387,0.918,0.098
13.189,-0.389,0.926,0.082
13.199,-0.391,0.939,0.074
13.209,-0.391,0.957,0.068
13.219,-0.395,0.965,0.057
13.229,-0.396,0.971,0.049
13.239,-0.404,0.977,0.033
13.249,-0.414,0.979,0.018
13.259,-0.424,0.973,0.002
13.268,-0.434,0.959,-0.018
13.278,-0.441,0.955,-0.035
13.288,-0.449,0.949,-0.049
13.298,-0.461,0.947,-0.061
13.308,-0.469,0.951,-0.070
13.318,-0.473,0.955,-0.074
13.328,-0.479,0.957,-0.082
13.338,-0.480,0.953,-0.092
13.348,-0.480,0.959,-0.094
13.358,-0.477,0.967,-0.094
13.368,-0.473,0.967,-0.100
13.378,-0.465,0.965,-0.098
13.388,-0.467,0.957,-0.107
13.398,-0.467,0.949,-0.117
13.408,-0.465,0.945,-0.125
13.418,-0.457,0.943,-0.125
13.427,-0.449,0.939,-0.123
13.437,-0.441,0.943,-0.125
13.447,-0.439,0.947,-0.123
13.457,-0.430,0.955,-0.117
13.467,-0.426,0.961,-0.111
13.477,-0.422,0.961,-0.111
13.487,-0.418,0.965,-0.109
13.497,-0.414,0.963,-0.105
13.507,-0.412,0.973,-0.104
13.517,-0.408,0.977,-0.102
13.527,-0.408,0.977,-0.100
13.537,-0.410,0.967,-0.104
13.547,-0.418,0.955,-0.111
13.557,-0.420,0.951,-0.111
13.567,-0.422,0.953,-0.109
13.576,-0.420,0.955,-0.104
13.586,-0.418,0.951,-0.100
13.596,-0.412,0.949,-0.100
13.606,-0.412,0.949,-0.096
13.616,-0.412,0.941,-0.094
13.626,-0.410,0.938,-0.094
13.636,-0.404,0.928,-0.096
13.646,-0.404,0.918,-0.098
13.656,-0.404,0.918,-0.100
13.666,-0.404,0.930,-0.096
13.676,-0.398,0.934,-0.084
13.686,-0.396,0.938,-0.082
13.696,-0.400,0.939,-0.072
13.706,-0.402,0.947,-0.074
13.716,-0.404,0.953,-0.064
13.726,-0.400,0.959,-0.057
13.735,-0.398,0.957,-0.055
13.745,-0.393,0.957,-0.055
13.755,-0.389,0.947,-0.057
13.765,-0.385,0.934,-0.062
13.775,-0.383,0.926,-0.068
13.785,-0.377,0.928,-0.074
13.795,-0.371,0.936,-0.070
13.805,-0.365,0.939,-0.068
13.815,-0.359,0.943,-0.064
13.825,-0.357,0.939,-0.066
13.835,-0.354,0.938,-0.068
13.845,-0.357,0.938,-0.070
13.855,-0.357,0.934,-0.074
13.865,-0.359,0.939,-0.074
13.875,-0.363,0.955,-0.068
13.885,-0.363,0.965,-0.064
13.894,-0.359,0.965,-0.061
13.904,-0.361,0.965,-0.062
13.914,-0.361,0.975,-0.059
13.924,-0.355,0.979,-0.053
13.934,-0.352,0.967,-0.049
13.944,-0.352,0.957,-0.057
13.954,-0.355,0.939,-0.064
13.964,-0.357,0.936,-0.070
13.974,-0.363,0.941,-0.068
13.984,-0.365,0.949,-0.062
13.994,-0.367,0.947,-0.062
14.004,-0.371,0.949,-0.059
14.014,-0.371,0.947,-0.057
14.024,-0.375,0.947,-0.055
14.034,-0.375,0.941,-0.059
14.043,-0.377,0.939,-0.064
14.053,-0.373,0.936,-0.068
14.063,-0.375,0.928,-0.070
14.073,-0.377,0.932,-0.078
14.083,-0.381,0.943,-0.078
14.093,-0.377,0.941,-0.074
14.103,-0.373,0.951,-0.074
14.113,-0.373,0.951,-0.072
14.123,-0.371,0.957,-0.068
14.133,-0.371,0.961,-0.066
14.143,-0.369,0.965,-0.057
14.153,-0.371,0.967,-0.059
14.163,-0.369,0.959,-0.059
14.173,-0.371,0.959,-0.061
14.183,-0.369,0.965,-0.057
14.193,-0.369,0.959,-0.055
14.202,-0.367,0.961,-0.055
14.212,-0.375,0.939,-0.064
14.222,-0.385,0.924,-0.078
14.232,-0.393,0.939,-0.078
14.242,-0.393,0.959,-0.061
14.252,-0.393,0.965,-0.055
14.262,-0.387,0.969,-0.053
14.272,-0.385,0.965,-0.053
14.282,-0.383,0.945,-0.053
14.292,-0.383,0.938,-0.059
14.302,-0.387,0.941,-0.053
14.312,-0.379,0.953,-0.041
14.322,-0.379,0.955,-0.041
14.332,-0.377,0.953,-0.039
14.342,-0.373,0.955,-0.035
14.352,-0.371,0.961,-0.027
14.361,-0.361,0.971,-0.020
14.371,-0.359,0.961,-0.016
14.381,-0.369,0.926,-0.029
14.391,-0.383,0.914,-0.047
14.401,-0.389,0.928,-0.041
14.411,-0.387,0.945,-0.037
14.421,-0.385,0.959,-0.029
14.431,-0.379,0.965,-0.020
14.441,-0.377,0.969,-0.016
14.451,-0.371,0.969,-0.012
14.461,-0.369,0.961,-0.012
14.471,-0.369,0.947,-0.018
14.481,-0.375,0.938,-0.023
14.491,-0.377,0.934,-0.027
14.501,-0.377,0.932,-0.031
14.511,-0.383,0.922,-0.037
14.520,-0.387,0.918,-0.047
14.530,-0.395,0.918,-0.055
14.540,-0.393,0.926,-0.055
14.550,-0.391,0.936,-0.053
14.560,-0.387,0.949,-0.049
14.570,-0.387,0.957,-0.053
14.580,-0.381,0.965,-0.051
14.590,-0.377,0.971,-0.053
14.600,-0.371,0.969,-0.051
14.610,-0.375,0.965,-0.061
14.620,-0.379,0.961,-0.064
14.630,-0.377,0.955,-0.068
14.640,-0.377,0.951,-0.072
14.650,-0.375,0.951,-0.074
14.660,-0.373,0.953,-0.068
14.669,-0.369,0.955,-0.070
14.679,-0.373,0.951,-0.064
14.689,-0.375,0.955,-0.066
14.699,-0.371,0.961,-0.061
14.709,-0.371,0.967,-0.055
14.719,-0.367,0.969,-0.047
14.729,-0.361,0.967,-0.047
14.739,-0.361,0.965,-0.045
14.749,-0.359,0.965,-0.047
14.759,-0.361,0.957,-0.053
14.769,-0.361,0.953,-0.051
14.779,-0.359,0.963,-0.043
14.789,-0.354,0.965,-0.043
14.799,-0.346,0.947,-0.043
14.809,-0.346,0.945,-0.043
14.819,-0.348,0.945,-0.037
14.828,-0.348,0.951,-0.029
14.838,-0.346,0.947,-0.029
14.848,-0.350,0.945,-0.031
14.858,-0.357,0.947,-0.023
14.868,-0.361,0.945,-0.023
14.878,-0.371,0.945,-0.025
14.888,-0.377,0.936,-0.027
14.898,-0.385,0.936,-0.027
14.908,-0.395,0.938,-0.035
14.918,-0.398,0.936,-0.035
14.928,-0.402,0.936,-0.033
14.938,-0.406,0.936,-0.041
14.948,-0.406,0.916,-0.053
14.958,-0.418,0.902,-0.066
14.968,-0.424,0.914,-0.072
14.978,-0.428,0.934,-0.070
14.987,-0.430,0.955,-0.061
14.997,-0.422,0.969,-0.055
15.007,-0.422,0.977,-0.049
15.017,-0.416,0.982,-0.039
15.027,-0.408,0.980,-0.035
15.037,-0.406,0.955,-0.047
15.047,-0.406,0.947,-0.055
15.057,-0.410,0.949,-0.049
15.067,-0.408,0.953,-0.045
15.077,-0.398,0.945,-0.047
15.087,-0.398,0.945,-0.045
15.097,-0.395,0.941,-0.047
15.107,-0.398,0.932,-0.047
15.117,-0.400,0.930,-0.061
15.127,-0.404,0.943,-0.055
15.136,-0.396,0.951,-0.045
15.146,-0.395,0.953,-0.045
15.156,-0.391,0.955,-0.043
15.166,-0.383,0.957,-0.037
15.176,-0.379,0.951,-0.039
15.186,-0.375,0.947,-0.039
15.196,-0.373,0.939,-0.039
15.206,-0.373,0.938,-0.045
15.216,-0.369,0.930,-0.055
15.226,-0.371,0.932,-0.057
15.236,-0.375,0.936,-0.053
15.246,-0.375,0.945,-0.049
15.256,-0.379,0.955,-0.043
15.266,-0.381,0.965,-0.033
15.276,-0.383,0.965,-0.029
15.286,-0.389,0.963,-0.025
15.295,-0.393,0.957,-0.027
15.305,-0.398,0.947,-0.035
15.315,-0.404,0.941,-0.041
15.325,-0.406,0.934,-0.045
15.335,-0.406,0.943,-0.043
15.345,-0.406,0.949,-0.039
15.355,-0.404,0.951,-0.031
15.365,-0.404,0.941,-0.033
15.375,-0.408,0.918,-0.049
15.385,-0.408,0.914,-0.047
15.395,-0.412,0.932,-0.039
15.405,-0.410,0.941,-0.031
15.415,-0.412,0.939,-0.031
15.425,-0.410,0.941,-0.029
15.435,-0.408,0.947,-0.021
15.445,-0.412,0.943,-0.027
15.454,-0.412,0.939,-0.035
15.464,-0.414,0.943,-0.033
15.474,-0.406,0.955,-0.025
15.484,-0.402,0.955,-0.021
15.494,-0.395,0.941,-0.027
15.504,-0.387,0.932,-0.033
15.514,-0.383,0.930,-0.033
15.524,-0.383,0.936,-0.035
15.534,-0.379,0.926,-0.037
15.544,-0.385,0.922,-0.051
15.554,-0.387,0.932,-0.051
15.564,-0.385,0.947,-0.047
15.574,-0.383,0.943,-0.053
15.584,-0.387,0.949,-0.057
15.594,-0.381,0.961,-0.055
15.604,-0.377,0.973,-0.051
15.613,-0.373,0.971,-0.047
15.623,-0.369,0.967,-0.053
15.633,-0.373,0.959,-0.057
15.643,-0.373,0.961,-0.061
15.653,-0.369,0.961,-0.061
15.663,-0.367,0.967,-0.061
15.673,-0.365,0.967,-0.061
15.683,-0.365,0.961,-0.057
15.693,-0.363,0.957,-0.062
15.703,-0.363,0.957,-0.059
15.713,-0.367,0.961,-0.053
15.723,-0.367,0.965,-0.047
15.733,-0.371,0.973,-0.035
15.743,-0.371,0.984,-0.021
15.753,-0.373,0.977,-0.018
15.762,-0.373,0.963,-0.021
15.772,-0.367,0.961,-0.021
15.782,-0.365,0.949,-0.023
15.792,-0.361,0.943,-0.025
15.802,-0.361,0.938,-0.033
15.812,-0.363,0.932,-0.035
15.822,-0.373,0.930,-0.037
15.832,-0.377,0.932,-0.041
15.842,-0.387,0.930,-0.043
15.852,-0.393,0.936,-0.041
15.862,-0.393,0.941,-0.037
15.872,-0.396,0.943,-0.033
15.882,-0.402,0.953,-0.031
15.892,-0.402,0.955,-0.029
15.902,-0.406,0.936,-0.037
15.912,-0.410,0.922,-0.051
15.921,-0.414,0.928,-0.053
15.931,-0.412,0.932,-0.047
15.941,-0.412,0.926,-0.049
15.951,-0.412,0.936,-0.053
15.961,-0.410,0.941,-0.041
15.971,-0.408,0.951,-0.039
15.981,-0.404,0.955,-0.037
15.991,-0.406,0.943,-0.039
16.001,-0.404,0.932,-0.045
16.011,-0.402,0.938,-0.049
16.021,-0.402,0.936,-0.047
16.031,-0.398,0.930,-0.053
16.041,-0.402,0.928,-0.055
16.051,-0.404,0.934,-0.059
16.061,-0.410,0.928,-0.061
16.071,-0.412,0.928,-0.062
16.080,-0.420,0.934,-0.059
16.090,-0.426,0.945,-0.055
16.100,-0.428,0.947,-0.051
16.110,-0.432,0.953,-0.047
16.120,-0.434,0.957,-0.043
16.130,-0.434,0.965,-0.033
16.140,-0.434,0.959,-0.029
16.150,-0.434,0.949,-0.037
16.160,-0.432,0.943,-0.035
16.170,-0.430,0.941,-0.035
16.180,-0.428,0.947,-0.029
16.190,-0.428,0.953,-0.021
16.200,-0.428,0.957,-0.016
16.210,-0.428,0.957,-0.008
16.220,-0.424,0.953,-0.006
16.229,-0.418,0.936,-0.006
16.239,-0.420,0.914,-0.014
16.249,-0.420,0.900,-0.018
16.259,-0.416,0.896,-0.020
16.269,-0.414,0.898,-0.020
16.279,-0.412,0.902,-0.018
16.289,-0.414,0.918,-0.014
16.299,-0.414,0.930,-0.006
16.309,-0.414,0.928,-0.004
16.319,-0.422,0.926,-0.014
16.329,-0.428,0.910,-0.020
16.339,-0.432,0.906,-0.027
16.349,-0.438,0.906,-0.037
16.359,-0.438,0.914,-0.035
16.369,-0.439,0.926,-0.033
16.379,-0.438,0.928,-0.035
16.388,-0.438,0.936,-0.033
16.398,-0.436,0.939,-0.035
16.408,-0.434,0.941,-0.031
16.418,-0.432,0.941,-0.039
16.428,-0.428,0.934,-0.039
16.438,-0.430,0.928,-0.045
16.448,-0.434,0.924,-0.057
16.458,-0.439,0.914,-0.062
16.468,-0.453,0.902,-0.072
16.478,-0.463,0.902,-0.080
16.488,-0.467,0.916,-0.076
16.498,-0.465,0.922,-0.074
16.508,-0.469,0.928,-0.084
16.518,-0.469,0.936,-0.080
16.528,-0.467,0.932,-0.086
16.538,-0.473,0.932,-0.084
16.547,-0.477,0.938,-0.078
16.557,-0.475,0.947,-0.068
16.567,-0.477,0.936,-0.061
16.577,-0.471,0.924,-0.064
16.587,-0.475,0.922,-0.057
16.597,-0.471,0.924,-0.051
16.607,-0.467,0.920,-0.045
16.617,-0.467,0.920,-0.037
16.627,-0.459,0.920,-0.029
16.637,-0.455,0.920,-0.023
16.647,-0.451,0.914,-0.016
16.657,-0.449,0.898,-0.018
16.667,-0.461,0.840,-0.037
16.677,-0.484,0.814,-0.055
16.687,-0.500,0.811,-0.062
16.696,-0.510,0.807,-0.062
16.706,-0.514,0.811,-0.068
16.716,-0.514,0.824,-0.062
16.726,-0.520,0.828,-0.066
16.736,-0.523,0.826,-0.076
16.746,-0.533,0.846,-0.076
16.756,-0.539,0.875,-0.066
16.766,-0.547,0.889,-0.064
16.776,-0.553,0.900,-0.068
16.786,-0.561,0.906,-0.078
16.796,-0.568,0.908,-0.088
16.806,-0.580,0.900,-0.098
16.816,-0.586,0.893,-0.104
16.826,-0.594,0.885,-0.105
16.836,-0.602,0.877,-0.111
16.846,-0.615,0.883,-0.109
16.855,-0.617,0.910,-0.098
16.865,-0.615,0.924,-0.082
16.875,-0.611,0.908,-0.078
16.885,-0.607,0.881,-0.086
16.895,-0.609,0.859,-0.090
16.905,-0.613,0.850,-0.088
16.915,-0.615,0.848,-0.086
16.925,-0.613,0.834,-0.084
16.935,-0.613,0.822,-0.086
16.945,-0.613,0.803,-0.094
16.955,-0.615,0.791,-0.104
16.965,-0.609,0.805,-0.102
16.975,-0.602,0.822,-0.090
16.985,-0.596,0.836,-0.082
16.995,-0.592,0.836,-0.076
17.005,-0.586,0.814,-0.084
17.014,-0.588,0.791,-0.102
17.024,-0.586,0.779,-0.113
17.034,-0.582,0.777,-0.121
17.044,-0.574,0.797,-0.123
17.054,-0.574,0.820,-0.105
17.064,-0.566,0.846,-0.090
17.074,-0.566,0.859,-0.086
17.084,-0.568,0.854,-0.090
17.094,-0.568,0.848,-0.102
17.104,-0.570,0.842,-0.104
17.114,-0.570,0.842,-0.115
17.124,-0.574,0.852,-0.119
17.134,-0.576,0.861,-0.115
17.144,-0.582,0.871,-0.111
17.154,-0.588,0.879,-0.111
17.164,-0.596,0.867,-0.115
17.173,-0.609,0.861,-0.121
17.183,-0.617,0.861,-0.125
17.193,-0.627,0.859,-0.121
17.203,-0.631,0.857,-0.121
17.213,-0.639,0.865,-0.109
17.223,-0.645,0.867,-0.102
17.233,-0.652,0.867,-0.100
17.243,-0.656,0.873,-0.090
17.253,-0.662,0.875,-0.078
17.263,-0.666,0.871,-0.068
17.273,-0.666,0.861,-0.070
17.283,-0.658,0.857,-0.066
17.293,-0.650,0.854,-0.057
17.303,-0.648,0.836,-0.055
17.313,-0.650,0.812,-0.066
17.322,-0.654,0.816,-0.059
17.332,-0.652,0.832,-0.033
17.342,-0.641,0.846,-0.014
17.352,-0.639,0.854,0.004
17.362,-0.633,0.857,0.021
17.372,-0.621,0.848,0.033
17.382,-0.615,0.807,0.023
17.392,-0.617,0.777,0.010
17.402,-0.625,0.781,0.016
17.412,-0.627,0.805,0.037
17.422,-0.621,0.832,0.064
17.432,-0.617,0.850,0.084
17.442,-0.609,0.857,0.104
17.452,-0.598,0.859,0.119
17.462,-0.588,0.838,0.117
17.472,-0.582,0.777,0.092
17.481,-0.580,0.740,0.061
17.491,-0.586,0.748,0.062
17.501,-0.596,0.783,0.078
17.511,-0.598,0.812,0.092
17.521,-0.600,0.832,0.098
17.531,-0.598,0.850,0.105
17.541,-0.594,0.850,0.107
17.551,-0.588,0.838,0.105
17.561,-0.582,0.820,0.092
17.571,-0.578,0.801,0.082
17.581,-0.576,0.795,0.064
17.591,-0.578,0.801,0.062
17.601,-0.584,0.814,0.061
17.611,-0.584,0.830,0.061
17.621,-0.580,0.840,0.066
17.631,-0.576,0.850,0.064
17.640,-0.572,0.850,0.061
17.650,-0.564,0.850,0.057
17.660,-0.562,0.857,0.055
17.670,-0.559,0.861,0.051
17.680,-0.561,0.867,0.045
17.690,-0.562,0.871,0.041
17.700,-0.561,0.879,0.043
17.710,-0.557,0.879,0.037
17.720,-0.555,0.875,0.031
17.730,-0.557,0.879,0.027
17.740,-0.557,0.875,0.025
17.750,-0.561,0.877,0.020
17.760,-0.559,0.877,0.012
17.770,-0.561,0.885,0.014
17.780,-0.559,0.887,0.016
17.789,-0.559,0.891,0.020
17.799,-0.553,0.891,0.018
17.809,-0.555,0.887,0.018
17.819,-0.557,0.891,0.020
17.829,-0.555,0.889,0.021
17.839,-0.557,0.883,0.020
17.849,-0.557,0.881,0.018
17.859,-0.561,0.881,0.023
17.869,-0.566,0.883,0.021
17.879,-0.568,0.875,0.016
17.889,-0.570,0.869,0.020
17.899,-0.574,0.861,0.016
17.909,-0.578,0.857,0.014
17.919,-0.586,0.857,0.014
17.929,-0.590,0.854,0.018
17.939,-0.598,0.848,0.014
17.948,-0.596,0.844,0.012
17.958,-0.602,0.844,0.016
17.968,-0.602,0.842,0.014
17.978,-0.605,0.840,0.014
17.988,-0.607,0.836,0.016
17.998,-0.609,0.836,0.018
18.008,-0.611,0.838,0.016
18.018,-0.615,0.836,0.018
18.028,-0.617,0.830,0.016
18.038,-0.619,0.832,0.016
18.048,-0.621,0.830,0.020
18.058,-0.625,0.826,0.018
18.068,-0.627,0.828,0.016
18.078,-0.631,0.828,0.012
18.088,-0.635,0.828,0.014
18.098,-0.637,0.826,0.008
18.107,-0.641,0.824,0.012
18.117,-0.637,0.824,0.014
18.127,-0.639,0.822,0.014
18.137,-0.643,0.822,0.014
18.147,-0.643,0.824,0.014
18.157,-0.643,0.826,0.010
18.167,-0.643,0.822,0.010
18.177,-0.643,0.828,0.010
18.187,-0.643,0.830,0.014
18.197,-0.648,0.828,0.018
18.207,-0.648,0.832,0.016
18.217,-0.646,0.828,0.018
18.227,-0.646,0.826,0.021
18.237,-0.645,0.824,0.023
18.247,-0.645,0.826,0.023
18.257,-0.645,0.822,0.020
18.266,-0.645,0.822,0.021
18.276,-0.648,0.820,0.023
18.286,-0.643,0.826,0.027
18.296,-0.643,0.830,0.027
18.306,-0.641,0.826,0.029
18.316,-0.641,0.822,0.031
18.326,-0.643,0.830,0.035
18.336,-0.641,0.828,0.039
18.346,-0.641,0.822,0.033
18.356,-0.641,0.816,0.033
18.366,-0.639,0.820,0.039
18.376,-0.641,0.822,0.041
18.386,-0.639,0.822,0.039
18.396,-0.641,0.822,0.043
18.406,-0.639,0.818,0.043
18.415,-0.633,0.820,0.043
18.425,-0.635,0.816,0.045
18.435,-0.633,0.814,0.047
18.445,-0.637,0.812,0.043
18.455,-0.633,0.807,0.047
18.465,-0.637,0.812,0.041
18.475,-0.633,0.811,0.047
18.485,-0.637,0.811,0.047
18.495,-0.635,0.814,0.049
18.505,-0.637,0.814,0.051
18.515,-0.639,0.812,0.049
18.525,-0.639,0.816,0.049
18.535,-0.641,0.814,0.047
18.545,-0.639,0.811,0.049
18.555,-0.643,0.816,0.049
18.565,-0.643,0.822,0.049
18.574,-0.641,0.824,0.055
18.584,-0.646,0.826,0.051
18.594,-0.646,0.824,0.049
18.604,-0.646,0.814,0.045
18.614,-0.645,0.814,0.043
18.624,-0.646,0.820,0.045
18.634,-0.643,0.822,0.049
18.644,-0.646,0.822,0.045
18.654,-0.645,0.820,0.045
18.664,-0.643,0.824,0.047
18.674,-0.643,0.822,0.047
18.684,-0.643,0.822,0.047
18.694,-0.641,0.824,0.049
18.704,-0.639,0.818,0.049
18.714,-0.635,0.818,0.047
18.724,-0.637,0.818,0.047
18.733,-0.635,0.820,0.047
18.743,-0.637,0.820,0.051
18.753,-0.635,0.820,0.049
18.763,-0.637,0.822,0.051
18.773,-0.637,0.824,0.053
18.783,-0.635,0.822,0.055
18.793,-0.635,0.822,0.051
18.803,-0.637,0.822,0.053
18.813,-0.633,0.818,0.055
18.823,-0.635,0.818,0.049
18.833,-0.635,0.818,0.049
18.843,-0.635,0.816,0.049
18.853,-0.639,0.820,0.049
18.863,-0.639,0.822,0.047
18.873,-0.643,0.822,0.049
18.882,-0.641,0.824,0.049
18.892,-0.645,0.826,0.049
18.902,-0.643,0.824,0.051
18.912,-0.641,0.824,0.047
18.922,-0.643,0.826,0.049
18.932,-0.643,0.824,0.049
18.942,-0.643,0.824,0.049
18.952,-0.641,0.820,0.047
18.962,-0.641,0.824,0.043
18.972,-0.643,0.830,0.049
18.982,-0.637,0.826,0.045
18.992,-0.639,0.830,0.051
19.002,-0.635,0.834,0.053
19.012,-0.633,0.832,0.053
19.022,-0.637,0.826,0.049
19.032,-0.635,0.822,0.051
19.041,-0.641,0.822,0.051
19.051,-0.639,0.820,0.051
19.061,-0.641,0.818,0.053
19.071,-0.639,0.816,0.053
19.081,-0.637,0.811,0.051
19.091,-0.639,0.807,0.049
19.101,-0.637,0.805,0.045
19.111,-0.637,0.811,0.049
19.121,-0.633,0.811,0.045
19.131,-0.641,0.812,0.047
19.141,-0.639,0.814,0.047
19.151,-0.639,0.816,0.043
19.161,-0.641,0.814,0.041
19.171,-0.645,0.816,0.043
19.181,-0.643,0.816,0.041
19.191,-0.645,0.820,0.045
19.200,-0.645,0.818,0.043
19.210,-0.645,0.818,0.043
19.220,-0.648,0.818,0.041
19.230,-0.652,0.822,0.045
19.240,-0.645,0.820,0.047
19.250,-0.648,0.822,0.045
19.260,-0.648,0.822,0.049
19.270,-0.652,0.824,0.049
19.280,-0.650,0.820,0.047
19.290,-0.648,0.818,0.045
19.300,-0.648,0.820,0.047
19.310,-0.650,0.822,0.049
19.320,-0.648,0.824,0.051
19.330,-0.646,0.824,0.051
19.340,-0.646,0.824,0.051
19.349,-0.643,0.824,0.055
19.359,-0.643,0.820,0.053
19.369,-0.643,0.818,0.047
19.379,-0.645,0.816,0.053
19.389,-0.645,0.818,0.047
19.399,-0.643,0.816,0.051
19.409,-0.641,0.818,0.055
19.419,-0.643,0.816,0.049
19.429,-0.641,0.816,0.051
19.439,-0.639,0.812,0.051
19.449,-0.641,0.816,0.053
19.459,-0.643,0.814,0.053
19.469,-0.643,0.816,0.053
19.479,-0.641,0.820,0.051
19.489,-0.641,0.818,0.055
19.499,-0.643,0.822,0.055
19.508,-0.641,0.820,0.053
19.518,-0.641,0.820,0.055
19.528,-0.643,0.820,0.051
19.538,-0.645,0.820,0.055
19.548,-0.643,0.818,0.047
19.558,-0.645,0.818,0.049
19.568,-0.641,0.816,0.049
19.578,-0.641,0.814,0.049
19.588,-0.643,0.812,0.047
19.598,-0.641,0.816,0.047
19.608,-0.643,0.818,0.051
19.618,-0.641,0.814,0.053
19.628,-0.646,0.816,0.051
19.638,-0.648,0.818,0.053
19.648,-0.648,0.818,0.055
19.658,-0.646,0.822,0.057
19.667,-0.650,0.826,0.057
19.677,-0.648,0.824,0.061
19.687,-0.650,0.820,0.059
19.697,-0.652,0.812,0.059
19.707,-0.650,0.809,0.059
19.717,-0.654,0.811,0.059
19.727,-0.654,0.811,0.059
19.737,-0.654,0.814,0.062
19.747,-0.656,0.812,0.064
19.757,-0.656,0.809,0.064
19.767,-0.658,0.807,0.068
19.777,-0.658,0.807,0.070
19.787,-0.658,0.805,0.070
19.797,-0.654,0.803,0.066
19.807,-0.658,0.803,0.070
19.817,-0.656,0.803,0.068
19.826,-0.656,0.807,0.070
19.836,-0.660,0.807,0.070
19.846,-0.654,0.812,0.072
19.856,-0.654,0.811,0.072
19.866,-0.652,0.812,0.070
19.876,-0.650,0.812,0.072
19.886,-0.652,0.811,0.078
19.896,-0.648,0.809,0.074
19.906,-0.650,0.812,0.072
19.916,-0.648,0.809,0.072
19.926,-0.646,0.814,0.070
19.936,-0.645,0.818,0.074
19.946,-0.645,0.811,0.074
19.956,-0.643,0.811,0.076
19.966,-0.645,0.811,0.072
19.975,-0.646,0.812,0.074
19.985,-0.645,0.812,0.072
19.995,-0.646,0.809,0.074
20.005,-0.645,0.812,0.072
20.015,-0.645,0.812,0.070
20.025,-0.645,0.814,0.072
20.035,-0.645,0.811,0.074
20.045,-0.648,0.811,0.072
20.055,-0.648,0.811,0.070
20.065,-0.648,0.812,0.072
20.075,-0.648,0.809,0.070
20.085,-0.650,0.809,0.072
20.095,-0.650,0.812,0.072
20.105,-0.654,0.812,0.070
20.115,-0.652,0.812,0.068
20.125,-0.648,0.811,0.068
20.134,-0.650,0.816,0.068
20.144,-0.652,0.820,0.066
20.154,-0.650,0.822,0.066
20.164,-0.648,0.820,0.066
20.174,-0.646,0.818,0.068
20.184,-0.648,0.818,0.061
20.194,-0.648,0.818,0.066
20.204,-0.650,0.820,0.066
20.214,-0.646,0.820,0.062
20.224,-0.645,0.820,0.062
20.234,-0.643,0.820,0.061
20.244,-0.645,0.820,0.062
20.254,-0.645,0.816,0.062
20.264,-0.641,0.818,0.059
20.274,-0.641,0.818,0.064
20.284,-0.637,0.816,0.062
20.293,-0.641,0.816,0.062
20.303,-0.641,0.812,0.061
20.313,-0.643,0.814,0.061
20.323,-0.645,0.816,0.062
20.333,-0.643,0.812,0.064
20.343,-0.643,0.814,0.061
20.353,-0.646,0.820,0.064
20.363,-0.645,0.820,0.066
20.373,-0.648,0.812,0.066
20.383,-0.650,0.809,0.061
20.393,-0.650,0.809,0.062
20.403,-0.656,0.809,0.062
20.413,-0.658,0.811,0.066
20.423,-0.658,0.814,0.066
20.433,-0.658,0.811,0.064
20.442,-0.654,0.812,0.066
20.452,-0.656,0.811,0.062
20.462,-0.654,0.811,0.061
20.472,-0.654,0.809,0.061
20.482,-0.654,0.807,0.059
20.492,-0.656,0.811,0.061
20.502,-0.654,0.812,0.057
20.512,-0.654,0.814,0.061
20.522,-0.656,0.814,0.061
20.532,-0.656,0.820,0.059
20.542,-0.654,0.822,0.059
20.552,-0.656,0.824,0.062
20.562,-0.658,0.820,0.061
20.572,-0.652,0.824,0.061
20.582,-0.648,0.820,0.061
20.592,-0.646,0.818,0.061
20.601,-0.645,0.811,0.057
20.611,-0.645,0.816,0.057
20.621,-0.645,0.822,0.064
20.631,-0.645,0.824,0.064
20.641,-0.641,0.820,0.061
20.651,-0.643,0.820,0.061
20.661,-0.645,0.822,0.064
20.671,-0.643,0.820,0.068
20.681,-0.643,0.820,0.072
20.691,-0.641,0.820,0.070
20.701,-0.637,0.818,0.068
20.711,-0.635,0.818,0.074
20.721,-0.637,0.812,0.076
20.731,-0.637,0.811,0.074
20.741,-0.635,0.805,0.070
20.751,-0.639,0.805,0.074
20.760,-0.643,0.809,0.076
20.770,-0.648,0.812,0.078
20.780,-0.648,0.807,0.078
20.790,-0.650,0.805,0.074
20.800,-0.652,0.805,0.074
20.810,-0.652,0.807,0.072
20.820,-0.656,0.807,0.074
20.830,-0.656,0.803,0.072
20.840,-0.658,0.805,0.072
20.850,-0.658,0.805,0.072
20.860,-0.658,0.803,0.070
20.870,-0.658,0.807,0.064
20.880,-0.660,0.805,0.068
20.890,-0.658,0.809,0.066
20.900,-0.658,0.811,0.062
20.910,-0.660,0.812,0.066
20.919,-0.662,0.822,0.062
20.929,-0.660,0.824,0.070
20.939,-0.660,0.824,0.066
20.949,-0.656,0.818,0.064
20.959,-0.650,0.814,0.062
20.969,-0.646,0.809,0.061
20.979,-0.648,0.807,0.059
20.989,-0.650,0.807,0.059
20.999,-0.654,0.811,0.062
21.009,-0.650,0.818,0.068
21.019,-0.650,0.832,0.074
21.029,-0.646,0.832,0.076
21.039,-0.645,0.830,0.074
21.049,-0.643,0.830,0.082
21.059,-0.646,0.830,0.080
21.068,-0.652,0.820,0.076
21.078,-0.656,0.809,0.074
21.088,-0.660,0.807,0.074
21.098,-0.662,0.809,0.076
21.108,-0.662,0.807,0.078
21.118,-0.656,0.811,0.082
21.128,-0.658,0.812,0.088
21.138,-0.658,0.818,0.090
21.148,-0.654,0.811,0.088
21.158,-0.650,0.811,0.092
21.168,-0.650,0.805,0.092
21.178,-0.652,0.805,0.088
21.188,-0.652,0.803,0.088
21.198,-0.654,0.805,0.090
21.208,-0.654,0.807,0.086
21.218,-0.650,0.805,0.090
21.227,-0.650,0.803,0.090
21.237,-0.648,0.812,0.090
21.247,-0.648,0.811,0.094
21.257,-0.650,0.805,0.092
21.267,-0.650,0.801,0.082
21.277,-0.646,0.797,0.082
21.287,-0.648,0.797,0.080
21.297,-0.648,0.803,0.080
21.307,-0.648,0.805,0.086
21.317,-0.648,0.805,0.080
21.327,-0.652,0.795,0.078
21.337,-0.658,0.797,0.070
21.347,-0.660,0.797,0.072
21.357,-0.660,0.801,0.074
21.367,-0.660,0.799,0.072
21.377,-0.664,0.799,0.072
21.386,-0.666,0.801,0.072
21.396,-0.672,0.807,0.072
21.406,-0.674,0.809,0.070
21.416,-0.676,0.799,0.064
21.426,-0.678,0.791,0.064
21.436,-0.676,0.799,0.066
21.446,-0.682,0.795,0.072
21.456,-0.682,0.789,0.066
21.466,-0.688,0.791,0.066
21.476,-0.689,0.789,0.066
21.486,-0.688,0.791,0.070
21.496,-0.689,0.787,0.070
21.506,-0.689,0.791,0.070
21.516,-0.689,0.789,0.066
21.526,-0.688,0.791,0.064
21.535,-0.688,0.795,0.059
21.545,-0.688,0.797,0.064
21.555,-0.686,0.797,0.066
21.565,-0.682,0.795,0.068
21.575,-0.684,0.799,0.061
21.585,-0.684,0.801,0.074
21.595,-0.682,0.799,0.070
21.605,-0.678,0.799,0.066
21.615,-0.676,0.797,0.070
21.625,-0.676,0.799,0.074
21.635,-0.676,0.791,0.072
21.645,-0.670,0.793,0.068
21.655,-0.666,0.793,0.068
21.665,-0.670,0.791,0.076
21.675,-0.672,0.793,0.074
21.685,-0.672,0.789,0.070
21.694,-0.672,0.783,0.066
21.704,-0.676,0.785,0.066
21.714,-0.678,0.789,0.068
21.724,-0.678,0.789,0.070
21.734,-0.676,0.789,0.068
21.744,-0.678,0.789,0.072
21.754,-0.678,0.799,0.076
21.764,-0.678,0.797,0.068
21.774,-0.680,0.787,0.068
21.784,-0.680,0.787,0.068
21.794,-0.686,0.789,0.070
21.804,-0.684,0.793,0.074
21.814,-0.688,0.795,0.070
21.824,-0.686,0.795,0.070
21.834,-0.689,0.793,0.074
21.844,-0.689,0.791,0.072
21.853,-0.689,0.795,0.072
21.863,-0.686,0.789,0.074
21.873,-0.686,0.785,0.078
21.883,-0.686,0.783,0.076
21.893,-0.686,0.791,0.074
21.903,-0.682,0.785,0.082
21.913,-0.680,0.783,0.084
21.923,-0.684,0.785,0.078
21.933,-0.682,0.789,0.086
21.943,-0.678,0.787,0.090
21.953,-0.680,0.783,0.084
21.963,-0.686,0.791,0.086
21.973,-0.688,0.789,0.086
21.983,-0.680,0.785,0.092
21.993,-0.676,0.795,0.096
22.002,-0.680,0.799,0.096
22.012,-0.678,0.793,0.092
22.022,-0.670,0.783,0.090
22.032,-0.668,0.781,0.090
22.042,-0.670,0.789,0.092
22.052,-0.670,0.785,0.092
22.062,-0.670,0.791,0.092
22.072,-0.674,0.793,0.098
22.082,-0.672,0.791,0.094
22.092,-0.666,0.789,0.092
22.102,-0.664,0.783,0.092
22.112,-0.664,0.777,0.086
22.122,-0.668,0.777,0.086
22.132,-0.670,0.773,0.084
22.142,-0.676,0.777,0.084
22.152,-0.682,0.773,0.080
22.161,-0.688,0.777,0.078
22.171,-0.693,0.777,0.074
22.181,-0.693,0.783,0.080
22.191,-0.701,0.783,0.080
22.201,-0.707,0.773,0.074
22.211,-0.715,0.768,0.070
22.221,-0.717,0.781,0.070
22.231,-0.711,0.785,0.072
22.241,-0.707,0.787,0.070
22.251,-0.701,0.781,0.068
22.261,-0.703,0.773,0.070
22.271,-0.703,0.775,0.062
22.281,-0.701,0.789,0.068
22.291,-0.703,0.799,0.076
22.301,-0.701,0.811,0.082
22.311,-0.699,0.816,0.086
22.320,-0.691,0.809,0.088
22.330,-0.686,0.803,0.082
22.340,-0.684,0.803,0.084
22.350,-0.684,0.801,0.090
22.360,-0.682,0.801,0.086
22.370,-0.676,0.801,0.088
22.380,-0.670,0.812,0.094
22.390,-0.670,0.816,0.098
22.400,-0.668,0.812,0.092
22.410,-0.668,0.811,0.096
22.420,-0.672,0.811,0.102
22.430,-0.678,0.809,0.102
22.440,-0.676,0.795,0.096
22.450,-0.676,0.793,0.100
22.460,-0.678,0.787,0.105
22.470,-0.680,0.785,0.104
22.479,-0.684,0.785,0.102
22.489,-0.686,0.785,0.107
22.499,-0.686,0.775,0.111
22.509,-0.693,0.758,0.113
22.519,-0.697,0.770,0.113
22.529,-0.707,0.766,0.121
22.539,-0.709,0.758,0.121
22.549,-0.715,0.758,0.125
22.559,-0.717,0.766,0.133
22.569,-0.721,0.768,0.139
22.579,-0.717,0.770,0.143
22.589,-0.713,0.773,0.150
22.599,-0.709,0.781,0.158
22.609,-0.711,0.787,0.158
22.619,-0.701,0.779,0.158
22.628,-0.695,0.773,0.164
22.638,-0.691,0.770,0.162
22.648,-0.688,0.779,0.168
22.658,-0.680,0.791,0.174
22.668,-0.674,0.799,0.186
22.678,-0.676,0.791,0.182
22.688,-0.670,0.783,0.176
22.698,-0.676,0.775,0.174
22.708,-0.676,0.771,0.174
22.718,-0.678,0.775,0.178
22.728,-0.680,0.779,0.186
22.738,-0.678,0.777,0.189
22.748,-0.676,0.777,0.193
22.758,-0.676,0.779,0.193
22.768,-0.676,0.777,0.199
22.778,-0.678,0.777,0.195
22.787,-0.672,0.777,0.199
22.797,-0.674,0.779,0.203
22.807,-0.678,0.779,0.209
22.817,-0.680,0.781,0.213
22.827,-0.678,0.775,0.217
22.837,-0.680,0.777,0.213
22.847,-0.678,0.771,0.221
22.857,-0.680,0.770,0.223
22.867,-0.676,0.771,0.225
22.877,-0.678,0.771,0.232
22.887,-0.678,0.773,0.238
22.897,-0.668,0.771,0.240
22.907,-0.664,0.766,0.244
22.917,-0.662,0.762,0.246
22.927,-0.660,0.764,0.250
22.937,-0.658,0.771,0.254
22.946,-0.662,0.770,0.254
22.956,-0.654,0.764,0.254
22.966,-0.650,0.762,0.256
22.976,-0.654,0.768,0.258
22.986,-0.650,0.768,0.260
22.996,-0.650,0.773,0.260
23.006,-0.645,0.771,0.260
23.016,-0.646,0.773,0.262
23.026,-0.643,0.775,0.264
23.036,-0.643,0.781,0.264
23.046,-0.641,0.781,0.264
23.056,-0.635,0.789,0.266
23.066,-0.637,0.789,0.266
23.076,-0.639,0.795,0.268
23.086,-0.635,0.803,0.268
23.095,-0.635,0.803,0.273
23.105,-0.631,0.795,0.266
23.115,-0.631,0.793,0.270
23.125,-0.635,0.797,0.270
23.135,-0.637,0.799,0.268
23.145,-0.639,0.801,0.270
23.155,-0.635,0.801,0.266
23.165,-0.633,0.797,0.264
23.175,-0.631,0.795,0.264
23.185,-0.629,0.793,0.262
23.195,-0.631,0.793,0.260
23.205,-0.631,0.797,0.258
23.215,-0.629,0.797,0.260
23.225,-0.629,0.791,0.256
23.235,-0.635,0.791,0.248
23.245,-0.631,0.793,0.250
23.254,-0.633,0.793,0.252
23.264,-0.633,0.787,0.248
23.274,-0.635,0.791,0.248
23.284,-0.639,0.787,0.242
23.294,-0.635,0.785,0.242
23.304,-0.637,0.783,0.242
23.314,-0.643,0.787,0.246
23.324,-0.646,0.793,0.246
23.334,-0.648,0.787,0.246
23.344,-0.648,0.783,0.240
23.354,-0.652,0.785,0.234
23.364,-0.658,0.781,0.230
23.374,-0.662,0.781,0.232
23.384,-0.664,0.783,0.229
23.394,-0.666,0.787,0.229
23.404,-0.668,0.787,0.227
23.413,-0.674,0.791,0.227
23.423,-0.672,0.791,0.229
23.433,-0.668,0.795,0.232
23.443,-0.668,0.801,0.232
23.453,-0.672,0.797,0.229
23.463,-0.670,0.799,0.229
23.473,-0.670,0.801,0.223
23.483,-0.670,0.801,0.230
23.493,-0.672,0.803,0.230
23.503,-0.674,0.799,0.227
23.513,-0.666,0.797,0.223
23.523,-0.672,0.791,0.225
23.533,-0.670,0.789,0.227
23.543,-0.668,0.785,0.221
23.553,-0.668,0.779,0.223
23.563,-0.662,0.779,0.217
23.572,-0.664,0.779,0.215
23.582,-0.660,0.773,0.213
23.592,-0.662,0.775,0.209
23.602,-0.666,0.775,0.211
23.612,-0.672,0.775,0.217
23.622,-0.672,0.777,0.213
23.632,-0.680,0.771,0.211
23.642,-0.684,0.773,0.209
23.652,-0.689,0.771,0.207
23.662,-0.689,0.768,0.203
23.672,-0.693,0.768,0.201
23.682,-0.693,0.764,0.199
23.692,-0.695,0.762,0.197
23.702,-0.695,0.762,0.197
23.712,-0.703,0.764,0.195
23.721,-0.703,0.760,0.195
23.731,-0.703,0.762,0.193
23.741,-0.703,0.760,0.191
23.751,-0.705,0.764,0.191
23.761,-0.709,0.764,0.189
23.771,-0.705,0.762,0.189
23.781,-0.707,0.758,0.184
23.791,-0.711,0.752,0.182
23.801,-0.715,0.750,0.178
23.811,-0.715,0.748,0.176
23.821,-0.715,0.752,0.178
23.831,-0.719,0.750,0.176
23.841,-0.719,0.754,0.178
23.851,-0.717,0.748,0.176
23.861,-0.717,0.746,0.172
23.871,-0.719,0.746,0.170
23.880,-0.721,0.742,0.166
23.890,-0.723,0.738,0.160
23.900,-0.725,0.736,0.164
23.910,-0.729,0.736,0.160
23.920,-0.727,0.738,0.158
23.930,-0.727,0.740,0.160
23.940,-0.725,0.742,0.158
23.950,-0.729,0.742,0.156
23.960,-0.727,0.744,0.156
23.970,-0.725,0.742,0.154
23.980,-0.723,0.746,0.152
23.990,-0.725,0.750,0.146
24.000,-0.723,0.752,0.145
24.010,-0.725,0.752,0.145
24.020,-0.725,0.758,0.145
24.030,-0.723,0.764,0.145
24.039,-0.727,0.764,0.145
24.049,-0.723,0.760,0.143
24.059,-0.725,0.758,0.139
24.069,-0.727,0.760,0.137
24.079,-0.725,0.762,0.133
24.089,-0.721,0.762,0.135
24.099,-0.721,0.760,0.131
24.109,-0.721,0.758,0.133
24.119,-0.717,0.758,0.131
24.129,-0.713,0.758,0.131
24.139,-0.713,0.758,0.131
24.149,-0.711,0.760,0.131
24.159,-0.709,0.760,0.129
24.169,-0.709,0.758,0.133
24.179,-0.711,0.760,0.131
24.188,-0.713,0.762,0.131
24.198,-0.713,0.760,0.131
24.208,-0.711,0.758,0.129
24.218,-0.713,0.760,0.125
24.228,-0.713,0.762,0.123
24.238,-0.711,0.760,0.123
24.248,-0.709,0.762,0.127
24.258,-0.713,0.764,0.125
24.268,-0.707,0.764,0.121
24.278,-0.711,0.768,0.123
24.288,-0.707,0.770,0.123
24.298,-0.709,0.771,0.125
24.308,-0.711,0.773,0.123
24.318,-0.707,0.773,0.121
24.328,-0.705,0.775,0.119
24.338,-0.703,0.773,0.117
24.347,-0.705,0.773,0.119
24.357,-0.705,0.773,0.115
24.367,-0.703,0.771,0.117
24.377,-0.703,0.771,0.115
24.387,-0.703,0.773,0.117
24.397,-0.701,0.773,0.117
24.407,-0.703,0.775,0.117
24.417,-0.707,0.770,0.117
24.427,-0.705,0.770,0.113
24.437,-0.707,0.766,0.115
24.447,-0.705,0.764,0.115
24.457,-0.707,0.766,0.115
24.467,-0.705,0.766,0.113
24.477,-0.707,0.770,0.113
24.487,-0.703,0.775,0.119
24.497,-0.705,0.771,0.113
24.506,-0.703,0.762,0.109
24.516,-0.703,0.762,0.104
24.526,-0.705,0.762,0.104
24.536,-0.705,0.764,0.104
24.546,-0.711,0.770,0.107
24.556,-0.711,0.768,0.109
24.566,-0.713,0.766,0.105
24.576,-0.711,0.768,0.111
24.586,-0.711,0.770,0.111
24.596,-0.713,0.766,0.107
24.606,-0.711,0.762,0.105
24.616,-0.707,0.762,0.107
24.626,-0.709,0.764,0.104
24.636,-0.711,0.766,0.109
24.646,-0.711,0.766,0.107
24.655,-0.709,0.768,0.113
24.665,-0.709,0.760,0.111
24.675,-0.709,0.758,0.111
24.685,-0.709,0.760,0.109
24.695,-0.711,0.758,0.111
24.705,-0.715,0.760,0.111
24.715,-0.717,0.758,0.111
24.725,-0.717,0.758,0.109
24.735,-0.717,0.764,0.109
24.745,-0.717,0.762,0.109
24.755,-0.715,0.760,0.111
24.765,-0.713,0.754,0.111
24.775,-0.715,0.752,0.104
24.785,-0.717,0.756,0.105
24.795,-0.721,0.756,0.107
24.805,-0.723,0.762,0.111
24.814,-0.725,0.762,0.109
24.824,-0.727,0.764,0.109
24.834,-0.727,0.760,0.105
24.844,-0.725,0.758,0.105
24.854,-0.727,0.760,0.107
24.864,-0.727,0.754,0.104
24.874,-0.729,0.758,0.107
24.884,-0.723,0.756,0.109
24.894,-0.725,0.754,0.111
24.904,-0.723,0.754,0.107
24.914,-0.725,0.752,0.109
24.924,-0.721,0.754,0.107
24.934,-0.721,0.758,0.109
24.944,-0.717,0.758,0.107
24.954,-0.719,0.756,0.111
24.964,-0.715,0.760,0.109
24.973,-0.715,0.760,0.111
24.983,-0.711,0.758,0.109
24.993,-0.709,0.760,0.111
25.003,-0.709,0.764,0.113
25.013,-0.707,0.762,0.111
25.023,-0.707,0.762,0.109
25.033,-0.705,0.764,0.107
25.043,-0.707,0.762,0.107
25.053,-0.705,0.766,0.105
25.063,-0.707,0.764,0.105
25.073,-0.705,0.766,0.104
25.083,-0.707,0.762,0.105
25.093,-0.707,0.762,0.107
25.103,-0.709,0.762,0.104
25.113,-0.709,0.762,0.105
25.123,-0.709,0.762,0.102
25.132,-0.711,0.762,0.107
25.142,-0.711,0.766,0.107
25.152,-0.713,0.764,0.104
25.162,-0.713,0.760,0.105
25.172,-0.719,0.758,0.102
25.182,-0.717,0.756,0.098
25.192,-0.719,0.756,0.102
25.202,-0.719,0.758,0.098
25.212,-0.715,0.752,0.100
25.222,-0.721,0.756,0.100
25.232,-0.721,0.756,0.098
25.242,-0.719,0.758,0.096
25.252,-0.715,0.756,0.098
25.262,-0.715,0.760,0.098
25.272,-0.715,0.766,0.098
25.281,-0.717,0.760,0.096
25.291,-0.719,0.754,0.096
25.301,-0.721,0.754,0.090
25.311,-0.721,0.760,0.098
25.321,-0.721,0.764,0.100
25.331,-0.717,0.770,0.100
25.341,-0.719,0.766,0.098
25.351,-0.719,0.762,0.100
25.361,-0.717,0.760,0.096
25.371,-0.715,0.760,0.098
25.381,-0.717,0.756,0.096
25.391,-0.719,0.756,0.096
25.401,-0.721,0.756,0.098
25.411,-0.719,0.758,0.098
25.421,-0.719,0.762,0.100
25.431,-0.715,0.760,0.102
25.440,-0.717,0.762,0.102
25.450,-0.715,0.764,0.104
25.460,-0.713,0.764,0.104
25.470,-0.711,0.762,0.105
25.480,-0.711,0.764,0.105
25.490,-0.709,0.764,0.105
25.500,-0.707,0.768,0.104
25.510,-0.701,0.770,0.105
25.520,-0.703,0.773,0.107
25.530,-0.697,0.773,0.107
25.540,-0.697,0.773,0.107
25.550,-0.693,0.768,0.104
25.560,-0.691,0.768,0.102
25.570,-0.695,0.766,0.102
25.580,-0.697,0.768,0.105
25.590,-0.699,0.770,0.102
25.599,-0.703,0.764,0.098
25.609,-0.703,0.760,0.100
25.619,-0.699,0.760,0.094
25.629,-0.703,0.756,0.096
25.639,-0.707,0.756,0.088
25.649,-0.709,0.756,0.090
25.659,-0.711,0.758,0.090
25.669,-0.717,0.764,0.096
25.679,-0.719,0.762,0.096
25.689,-0.721,0.760,0.096
25.699,-0.725,0.756,0.096
25.709,-0.725,0.752,0.094
25.719,-0.730,0.746,0.092
25.729,-0.730,0.744,0.090
25.739,-0.732,0.742,0.086
25.748,-0.730,0.746,0.086
25.758,-0.734,0.748,0.084
25.768,-0.734,0.750,0.090
25.778,-0.734,0.748,0.092
25.788,-0.738,0.752,0.090
25.798,-0.736,0.754,0.088
25.808,-0.736,0.754,0.094
25.818,-0.736,0.758,0.090
25.828,-0.734,0.758,0.094
25.838,-0.729,0.762,0.092
25.848,-0.729,0.758,0.092
25.858,-0.727,0.754,0.094
25.868,-0.727,0.752,0.094
25.878,-0.725,0.752,0.092
25.888,-0.721,0.756,0.090
25.898,-0.719,0.756,0.092
25.907,-0.717,0.754,0.094
25.917,-0.717,0.756,0.092
25.927,-0.719,0.754,0.092
25.937,-0.717,0.754,0.092
25.947,-0.713,0.758,0.088
25.957,-0.715,0.758,0.090
25.967,-0.711,0.762,0.090
25.977,-0.711,0.762,0.094
25.987,-0.713,0.762,0.092
25.997,-0.711,0.764,0.092
26.007,-0.709,0.760,0.092
26.017,-0.713,0.760,0.094
26.027,-0.713,0.758,0.092
26.037,-0.713,0.758,0.088
26.047,-0.715,0.762,0.092
26.057,-0.715,0.764,0.088
26.066,-0.717,0.764,0.092
26.076,-0.721,0.768,0.096
26.086,-0.717,0.764,0.090
26.096,-0.715,0.756,0.090
26.106,-0.719,0.754,0.088
26.116,-0.723,0.750,0.090
26.126,-0.721,0.756,0.090
26.136,-0.721,0.756,0.090
26.146,-0.721,0.756,0.088
26.156,-0.721,0.758,0.084
26.166,-0.721,0.756,0.090
26.176,-0.725,0.754,0.090
26.186,-0.725,0.756,0.088
26.196,-0.729,0.756,0.086
26.206,-0.727,0.754,0.086
26.216,-0.727,0.756,0.088
26.225,-0.727,0.756,0.090
26.235,-0.729,0.754,0.088
26.245,-0.727,0.758,0.088
26.255,-0.727,0.760,0.088
26.265,-0.721,0.760,0.088
26.275,-0.723,0.758,0.090
26.285,-0.725,0.758,0.092
26.295,-0.725,0.758,0.090
26.305,-0.723,0.758,0.088
26.315,-0.721,0.756,0.092
26.325,-0.715,0.760,0.094
26.335,-0.715,0.764,0.094
26.345,-0.715,0.764,0.092
26.355,-0.717,0.762,0.092
26.365,-0.717,0.758,0.094
26.374,-0.719,0.758,0.090
26.384,-0.725,0.760,0.092
26.394,-0.723,0.758,0.092
26.404,-0.725,0.754,0.090
26.414,-0.721,0.758,0.090
26.424,-0.721,0.762,0.096
26.434,-0.719,0.758,0.094
26.444,-0.715,0.760,0.090
26.454,-0.719,0.758,0.094
26.464,-0.719,0.758,0.094
26.474,-0.713,0.762,0.096
26.484,-0.709,0.770,0.102
26.494,-0.709,0.770,0.102
26.504,-0.707,0.768,0.105
26.514,-0.705,0.768,0.104
26.524,-0.701,0.766,0.105
26.533,-0.699,0.766,0.105
26.543,-0.699,0.760,0.105
26.553,-0.703,0.762,0.102
26.563,-0.707,0.758,0.107
26.573,-0.707,0.758,0.105
26.583,-0.711,0.760,0.107
26.593,-0.709,0.766,0.109
26.603,-0.705,0.764,0.111
26.613,-0.707,0.768,0.111
26.623,-0.703,0.773,0.113
26.633,-0.699,0.770,0.113
26.643,-0.699,0.770,0.111
26.653,-0.695,0.768,0.113
26.663,-0.691,0.768,0.111
26.673,-0.691,0.768,0.109
26.683,-0.691,0.771,0.105
26.692,-0.691,0.773,0.105
26.702,-0.695,0.777,0.105
26.712,-0.691,0.779,0.098
26.722,-0.693,0.783,0.107
26.732,-0.693,0.789,0.107
26.742,-0.689,0.791,0.105
26.752,-0.688,0.791,0.111
26.762,-0.691,0.795,0.107
26.772,-0.689,0.791,0.109
26.782,-0.691,0.791,0.109
26.792,-0.691,0.791,0.115
26.802,-0.688,0.789,0.115
26.812,-0.689,0.789,0.121
26.822,-0.691,0.787,0.121
26.832,-0.689,0.787,0.123
26.841,-0.691,0.785,0.127
26.851,-0.689,0.779,0.127
26.861,-0.689,0.775,0.127
26.871,-0.689,0.775,0.129
26.881,-0.688,0.770,0.131
26.891,-0.691,0.766,0.135
26.901,-0.697,0.770,0.133
26.911,-0.701,0.766,0.129
26.921,-0.699,0.752,0.133
26.931,-0.699,0.748,0.133
26.941,-0.699,0.754,0.131
26.951,-0.707,0.758,0.135
26.961,-0.707,0.756,0.131
26.971,-0.701,0.754,0.127
26.981,-0.703,0.756,0.131
26.991,-0.705,0.752,0.129
27.000,-0.701,0.758,0.123
27.010,-0.699,0.762,0.123
27.020,-0.699,0.766,0.125
27.030,-0.699,0.766,0.121
27.040,-0.699,0.764,0.125
27.050,-0.699,0.766,0.119
27.060,-0.697,0.768,0.117
27.070,-0.697,0.771,0.113
27.080,-0.697,0.771,0.115
27.090,-0.699,0.771,0.111
27.100,-0.699,0.773,0.109
27.110,-0.699,0.777,0.107
27.120,-0.695,0.777,0.109
27.130,-0.699,0.775,0.105
27.140,-0.697,0.779,0.109
27.150,-0.697,0.779,0.105
27.159,-0.697,0.773,0.102
27.169,-0.699,0.770,0.100
27.179,-0.699,0.764,0.094
27.189,-0.703,0.766,0.092
27.199,-0.707,0.768,0.092
27.209,-0.707,0.768,0.096
27.219,-0.711,0.770,0.094
27.229,-0.713,0.771,0.096
27.239,-0.711,0.773,0.094
27.249,-0.715,0.771,0.092
27.259,-0.713,0.768,0.088
27.269,-0.713,0.764,0.086
27.279,-0.715,0.764,0.084
27.289,-0.715,0.764,0.082
27.299,-0.713,0.760,0.086
27.308,-0.715,0.762,0.080
27.318,-0.713,0.764,0.086
27.328,-0.711,0.766,0.084
27.338,-0.715,0.766,0.082
27.348,-0.717,0.766,0.078
27.358,-0.719,0.766,0.082
27.368,-0.717,0.770,0.086
27.378,-0.719,0.773,0.082
27.388,-0.717,0.771,0.088
27.398,-0.715,0.771,0.084
27.408,-0.715,0.771,0.084
27.418,-0.713,0.773,0.088
27.428,-0.711,0.770,0.090
27.438,-0.707,0.768,0.092
27.448,-0.713,0.766,0.094
27.458,-0.707,0.766,0.094
27.467,-0.709,0.766,0.090
27.477,-0.709,0.764,0.094
27.487,-0.707,0.764,0.092
27.497,-0.709,0.764,0.096
27.507,-0.709,0.762,0.098
27.517,-0.711,0.766,0.098
27.527,-0.711,0.766,0.098
27.537,-0.713,0.764,0.098
27.547,-0.713,0.764,0.100
27.557,-0.709,0.764,0.098
27.567,-0.709,0.764,0.098
27.577,-0.711,0.764,0.096
27.587,-0.711,0.764,0.098
27.597,-0.707,0.762,0.096
27.607,-0.707,0.764,0.094
27.617,-0.707,0.764,0.098
27.626,-0.709,0.770,0.102
27.636,-0.705,0.770,0.098
27.646,-0.709,0.768,0.100
27.656,-0.709,0.775,0.104
27.666,-0.705,0.768,0.104
27.676,-0.707,0.760,0.096
27.686,-0.709,0.758,0.094
27.696,-0.711,0.760,0.096
27.706,-0.709,0.762,0.098
27.716,-0.709,0.764,0.098
27.726,-0.711,0.766,0.102
27.736,-0.711,0.766,0.098
27.746,-0.713,0.762,0.098
27.756,-0.713,0.760,0.098
27.766,-0.711,0.762,0.096
27.776,-0.711,0.760,0.094
27.785,-0.711,0.762,0.098
27.795,-0.711,0.762,0.098
27.805,-0.709,0.762,0.094
27.815,-0.709,0.760,0.096
27.825,-0.711,0.760,0.094
27.835,-0.707,0.762,0.094
27.845,-0.709,0.758,0.092
27.855,-0.707,0.758,0.092
27.865,-0.705,0.756,0.086
27.875,-0.709,0.758,0.086
27.885,-0.711,0.760,0.084
27.895,-0.709,0.762,0.090
27.905,-0.715,0.766,0.088
27.915,-0.711,0.770,0.088
27.925,-0.711,0.764,0.082
27.934,-0.713,0.760,0.084
27.944,-0.711,0.762,0.082
27.954,-0.715,0.762,0.084
27.964,-0.713,0.764,0.084
27.974,-0.717,0.766,0.080
27.984,-0.717,0.770,0.080
27.994,-0.715,0.768,0.084
28.004,-0.719,0.768,0.084
28.014,-0.717,0.768,0.082
28.024,-0.719,0.766,0.080
28.034,-0.713,0.764,0.078
28.044,-0.711,0.764,0.084
28.054,-0.711,0.766,0.078
28.064,-0.711,0.768,0.080
28.074,-0.711,0.768,0.080
28.084,-0.707,0.768,0.082
28.093,-0.709,0.770,0.078
28.103,-0.705,0.770,0.080
28.113,-0.705,0.770,0.082
28.123,-0.703,0.771,0.082
28.133,-0.703,0.771,0.080
28.143,-0.703,0.773,0.082
28.153,-0.707,0.770,0.080
28.163,-0.703,0.770,0.080
28.173,-0.703,0.770,0.080
28.183,-0.705,0.771,0.082
28.193,-0.709,0.775,0.084
28.203,-0.703,0.775,0.078
28.213,-0.705,0.771,0.080
28.223,-0.703,0.777,0.084
28.233,-0.705,0.777,0.082
28.243,-0.705,0.775,0.082
28.252,-0.703,0.775,0.082
28.262,-0.703,0.775,0.084
28.272,-0.699,0.773,0.084
28.282,-0.699,0.771,0.084
28.292,-0.699,0.771,0.084
28.302,-0.697,0.768,0.084
28.312,-0.697,0.770,0.080
28.322,-0.699,0.771,0.086
28.332,-0.701,0.771,0.088
28.342,-0.701,0.771,0.086
28.352,-0.705,0.770,0.088
28.362,-0.701,0.770,0.088
28.372,-0.701,0.766,0.086
28.382,-0.701,0.762,0.084
28.392,-0.705,0.760,0.082
28.401,-0.705,0.766,0.084
28.411,-0.707,0.760,0.084
28.421,-0.707,0.758,0.080
28.431,-0.709,0.754,0.078
28.441,-0.713,0.758,0.082
28.451,-0.717,0.760,0.080
28.461,-0.715,0.762,0.082
28.471,-0.715,0.760,0.080
28.481,-0.719,0.764,0.078
28.491,-0.719,0.762,0.078
28.501,-0.717,0.760,0.074
28.511,-0.717,0.762,0.074
28.521,-0.715,0.762,0.078
28.531,-0.721,0.762,0.076
28.541,-0.719,0.762,0.076
28.551,-0.719,0.766,0.078
28.560,-0.719,0.766,0.076
28.570,-0.717,0.771,0.074
28.580,-0.713,0.770,0.076
28.590,-0.711,0.773,0.078
28.600,-0.711,0.773,0.080
28.610,-0.711,0.771,0.078
28.620,-0.707,0.773,0.078
28.630,-0.711,0.770,0.082
28.640,-0.707,0.770,0.084
28.650,-0.703,0.770,0.086
28.660,-0.705,0.775,0.088
28.670,-0.707,0.773,0.084
28.680,-0.701,0.770,0.086
28.690,-0.701,0.766,0.086
28.700,-0.701,0.766,0.086
28.710,-0.703,0.768,0.086
28.719,-0.705,0.770,0.088
28.729,-0.701,0.768,0.086
28.739,-0.699,0.770,0.088
28.749,-0.697,0.768,0.092
28.759,-0.701,0.768,0.094
28.769,-0.699,0.768,0.090
28.779,-0.695,0.768,0.090
28.789,-0.697,0.766,0.088
28.799,-0.701,0.768,0.092
28.809,-0.703,0.770,0.090
28.819,-0.699,0.771,0.092
28.829,-0.699,0.773,0.092
28.839,-0.699,0.773,0.094
28.849,-0.703,0.775,0.094
28.859,-0.703,0.775,0.092
28.869,-0.705,0.775,0.094
28.878,-0.703,0.773,0.092
28.888,-0.705,0.773,0.092
28.898,-0.711,0.775,0.096
28.908,-0.709,0.771,0.092
28.918,-0.713,0.771,0.096
28.928,-0.709,0.771,0.100
28.938,-0.711,0.768,0.098
28.948,-0.711,0.768,0.100
28.958,-0.713,0.768,0.100
28.968,-0.709,0.766,0.100
28.978,-0.709,0.762,0.100
28.988,-0.711,0.762,0.102
28.998,-0.711,0.760,0.105
29.008,-0.711,0.758,0.105
29.018,-0.711,0.760,0.102
29.027,-0.713,0.756,0.102
29.037,-0.707,0.762,0.104
29.047,-0.709,0.762,0.107
29.057,-0.713,0.762,0.104
29.067,-0.711,0.764,0.098
29.077,-0.709,0.762,0.104
29.087,-0.715,0.762,0.104
29.097,-0.711,0.762,0.104
29.107,-0.711,0.762,0.104
29.117,-0.709,0.764,0.105
29.127,-0.707,0.766,0.105
29.137,-0.703,0.764,0.105
29.147,-0.705,0.768,0.109
29.157,-0.707,0.766,0.105
29.167,-0.705,0.760,0.102
29.177,-0.705,0.758,0.100
29.186,-0.711,0.756,0.100
29.196,-0.709,0.758,0.100
29.206,-0.709,0.756,0.104
29.216,-0.711,0.758,0.100
29.226,-0.713,0.758,0.100
29.236,-0.713,0.756,0.098
29.246,-0.717,0.754,0.096
29.256,-0.717,0.752,0.096
29.266,-0.717,0.754,0.090
29.276,-0.719,0.752,0.092
29.286,-0.719,0.758,0.090
29.296,-0.723,0.758,0.086
29.306,-0.721,0.758,0.090
29.316,-0.721,0.754,0.086
29.326,-0.719,0.760,0.086
29.336,-0.719,0.764,0.084
29.345,-0.719,0.764,0.088
29.355,-0.721,0.764,0.084
29.365,-0.719,0.764,0.082
29.375,-0.715,0.764,0.084
29.385,-0.717,0.764,0.082
29.395,-0.713,0.766,0.084
29.405,-0.713,0.771,0.086
29.415,-0.713,0.771,0.086
29.425,-0.707,0.770,0.086
29.435,-0.709,0.766,0.084
29.445,-0.707,0.766,0.082
29.455,-0.711,0.766,0.080
29.465,-0.709,0.770,0.084
29.475,-0.709,0.766,0.086
29.485,-0.707,0.768,0.086
29.494,-0.707,0.770,0.088
29.504,-0.707,0.771,0.088
29.514,-0.707,0.768,0.086
29.524,-0.709,0.768,0.086
29.534,-0.707,0.764,0.082
29.544,-0.705,0.764,0.084
29.554,-0.707,0.762,0.084
29.564,-0.709,0.764,0.086
29.574,-0.705,0.766,0.082
29.584,-0.707,0.768,0.080
29.594,-0.707,0.770,0.080
29.604,-0.705,0.768,0.084
29.614,-0.707,0.770,0.084
29.624,-0.707,0.770,0.084
29.634,-0.707,0.770,0.082
29.644,-0.705,0.770,0.082
29.653,-0.709,0.768,0.082
29.663,-0.709,0.771,0.080
29.673,-0.707,0.770,0.078
29.683,-0.707,0.768,0.082
29.693,-0.705,0.768,0.080
29.703,-0.709,0.771,0.082
29.713,-0.709,0.770,0.078
29.723,-0.709,0.770,0.076
29.733,-0.711,0.770,0.078
29.743,-0.709,0.770,0.082
29.753,-0.707,0.770,0.084
29.763,-0.709,0.770,0.082
29.773,-0.707,0.768,0.080
29.783,-0.709,0.766,0.084
29.793,-0.713,0.770,0.086
29.803,-0.711,0.768,0.084
29.812,-0.707,0.766,0.082
29.822,-0.709,0.762,0.084
29.832,-0.711,0.764,0.082
29.842,-0.711,0.764,0.082
29.852,-0.711,0.762,0.082
29.862,-0.713,0.766,0.080
29.872,-0.711,0.766,0.086
29.882,-0.711,0.766,0.084
29.892,-0.711,0.768,0.088
29.902,-0.715,0.771,0.090
29.912,-0.715,0.766,0.090
29.922,-0.709,0.760,0.086
29.932,-0.711,0.760,0.086
29.942,-0.711,0.764,0.088
29.952,-0.713,0.766,0.090
29.961,-0.713,0.766,0.090
29.971,-0.709,0.768,0.088
29.981,-0.709,0.768,0.090
29.991,-0.703,0.764,0.092
30.001,-0.705,0.764,0.090
30.011,-0.707,0.764,0.090
30.021,-0.705,0.764,0.088
30.031,-0.705,0.764,0.090
30.041,-0.707,0.768,0.088
30.051,-0.703,0.766,0.090
30.061,-0.703,0.770,0.090
30.071,-0.701,0.771,0.092
30.081,-0.701,0.773,0.092
30.091,-0.699,0.773,0.094
30.101,-0.697,0.771,0.094
30.111,-0.693,0.770,0.094
30.120,-0.695,0.771,0.094
30.130,-0.693,0.771,0.092
30.140,-0.695,0.775,0.094
30.150,-0.691,0.779,0.096
30.160,-0.693,0.777,0.096
30.170,-0.693,0.775,0.094
30.180,-0.689,0.770,0.094
30.190,-0.689,0.770,0.092
30.200,-0.693,0.771,0.090
30.210,-0.695,0.773,0.090
30.220,-0.693,0.775,0.088
30.230,-0.693,0.777,0.088
30.240,-0.691,0.777,0.090
30.250,-0.691,0.781,0.088
30.260,-0.689,0.779,0.088
30.270,-0.688,0.779,0.086
30.279,-0.689,0.781,0.086
30.289,-0.688,0.783,0.082
30.299,-0.688,0.781,0.086
30.309,-0.688,0.783,0.084
30.319,-0.686,0.785,0.082
30.329,-0.686,0.785,0.076
30.339,-0.688,0.787,0.078
30.349,-0.686,0.789,0.078
30.359,-0.686,0.791,0.076
30.369,-0.686,0.791,0.074
30.379,-0.686,0.791,0.074
30.389,-0.684,0.791,0.076
30.399,-0.684,0.791,0.072
30.409,-0.682,0.787,0.074
30.419,-0.684,0.789,0.072
30.429,-0.682,0.789,0.072
30.438,-0.684,0.787,0.072
30.448,-0.680,0.785,0.068
30.458,-0.682,0.789,0.072
30.468,-0.680,0.791,0.072
30.478,-0.680,0.793,0.072
30.488,-0.682,0.789,0.068
30.498,-0.680,0.789,0.070
30.508,-0.680,0.789,0.070
30.518,-0.682,0.787,0.072
30.528,-0.684,0.787,0.068
30.538,-0.684,0.787,0.068
30.548,-0.680,0.789,0.070
30.558,-0.684,0.785,0.070
30.568,-0.682,0.787,0.072
30.578,-0.684,0.785,0.070
30.587,-0.682,0.789,0.072
30.597,-0.686,0.787,0.070
30.607,-0.688,0.783,0.066
30.617,-0.682,0.787,0.064
30.627,-0.676,0.787,0.066
30.637,-0.678,0.787,0.072
30.647,-0.678,0.791,0.066
30.657,-0.680,0.793,0.068
30.667,-0.678,0.793,0.066
30.677,-0.678,0.795,0.068
30.687,-0.676,0.795,0.066
30.697,-0.678,0.789,0.061
30.707,-0.686,0.789,0.062
30.717,-0.682,0.791,0.059
30.727,-0.680,0.793,0.062
30.737,-0.686,0.795,0.062
30.746,-0.684,0.795,0.057
30.756,-0.682,0.795,0.057
30.766,-0.676,0.795,0.061
30.776,-0.676,0.795,0.057
30.786,-0.676,0.795,0.059
30.796,-0.676,0.795,0.057
30.806,-0.674,0.797,0.057
30.816,-0.676,0.799,0.061
30.826,-0.674,0.799,0.059
30.836,-0.674,0.799,0.059
30.846,-0.674,0.801,0.059
30.856,-0.670,0.803,0.062
30.866,-0.666,0.799,0.059
30.876,-0.666,0.801,0.061
30.886,-0.668,0.799,0.061
30.896,-0.668,0.803,0.062
30.905,-0.668,0.799,0.061
30.915,-0.664,0.803,0.062
30.925,-0.664,0.805,0.059
30.935,-0.664,0.805,0.062
30.945,-0.662,0.799,0.061
30.955,-0.664,0.795,0.061
30.965,-0.666,0.801,0.062
30.975,-0.670,0.803,0.061
30.985,-0.670,0.801,0.057
30.995,-0.670,0.801,0.057
31.005,-0.672,0.803,0.061
31.015,-0.670,0.801,0.059
31.025,-0.668,0.801,0.062
31.035,-0.672,0.801,0.061
31.045,-0.670,0.801,0.059
31.054,-0.672,0.801,0.061
31.064,-0.670,0.799,0.059
31.074,-0.670,0.801,0.064
31.084,-0.668,0.803,0.061
31.094,-0.670,0.805,0.062
31.104,-0.666,0.801,0.061
31.114,-0.666,0.799,0.062
31.124,-0.666,0.799,0.061
31.134,-0.666,0.801,0.061
31.144,-0.668,0.801,0.066
31.154,-0.666,0.801,0.062
31.164,-0.668,0.797,0.062
31.174,-0.668,0.799,0.062
31.184,-0.668,0.799,0.061
31.194,-0.668,0.797,0.066
31.204,-0.670,0.795,0.066
31.213,-0.668,0.795,0.064
31.223,-0.670,0.795,0.064
31.233,-0.672,0.797,0.066
31.243,-0.670,0.795,0.066
31.253,-0.670,0.797,0.062
31.263,-0.674,0.797,0.066
31.273,-0.674,0.795,0.064
31.283,-0.674,0.795,0.062
31.293,-0.680,0.795,0.064
31.303,-0.678,0.795,0.061
31.313,-0.682,0.793,0.064
31.323,-0.682,0.791,0.064
31.333,-0.678,0.793,0.061
31.343,-0.676,0.795,0.062
31.353,-0.676,0.797,0.062
31.363,-0.674,0.799,0.062
31.372,-0.674,0.799,0.061
31.382,-0.676,0.795,0.062
31.392,-0.678,0.799,0.068
31.402,-0.672,0.795,0.062
31.412,-0.672,0.799,0.062
31.422,-0.674,0.799,0.066
31.432,-0.672,0.797,0.066
31.442,-0.672,0.801,0.068
31.452,-0.670,0.807,0.070
31.462,-0.666,0.797,0.066
31.472,-0.666,0.793,0.064
31.482,-0.664,0.797,0.061
31.492,-0.666,0.797,0.064
31.502,-0.666,0.797,0.064
31.512,-0.664,0.803,0.066
31.522,-0.668,0.801,0.068
31.531,-0.664,0.799,0.064
31.541,-0.666,0.797,0.068
31.551,-0.668,0.797,0.066
31.561,-0.672,0.797,0.064
31.571,-0.672,0.793,0.064
31.581,-0.670,0.795,0.059
31.591,-0.676,0.795,0.061
31.601,-0.672,0.799,0.061
31.611,-0.676,0.799,0.062
31.621,-0.674,0.803,0.064
31.631,-0.678,0.807,0.066
31.641,-0.676,0.801,0.064
31.651,-0.676,0.801,0.062
31.661,-0.672,0.799,0.062
31.671,-0.670,0.799,0.064
31.680,-0.664,0.803,0.062
31.690,-0.664,0.805,0.066
31.700,-0.664,0.807,0.068
31.710,-0.664,0.807,0.066
31.720,-0.658,0.805,0.066
31.730,-0.658,0.801,0.066
31.740,-0.662,0.803,0.064
31.750,-0.662,0.805,0.064
31.760,-0.658,0.805,0.068
31.770,-0.660,0.805,0.064
31.780,-0.656,0.807,0.064
31.790,-0.660,0.809,0.064
31.800,-0.660,0.809,0.062
31.810,-0.662,0.809,0.062
31.820,-0.662,0.807,0.064
31.830,-0.662,0.807,0.062
31.839,-0.660,0.807,0.064
31.849,-0.660,0.805,0.064
31.859,-0.660,0.809,0.064
31.869,-0.660,0.805,0.068
31.879,-0.658,0.803,0.062
31.889,-0.662,0.807,0.066
31.899,-0.660,0.805,0.066
31.909,-0.660,0.803,0.066
31.919,-0.660,0.805,0.062
31.929,-0.658,0.801,0.062
31.939,-0.664,0.803,0.064
31.949,-0.664,0.805,0.066
31.959,-0.666,0.801,0.064
31.969,-0.666,0.801,0.066
31.979,-0.664,0.805,0.061
31.989,-0.662,0.803,0.062
31.998,-0.666,0.805,0.061
32.008,-0.664,0.803,0.061
32.018,-0.664,0.805,0.066
32.028,-0.664,0.805,0.064
32.038,-0.668,0.803,0.061
32.048,-0.666,0.801,0.062
32.058,-0.660,0.803,0.061
32.068,-0.664,0.801,0.062
32.078,-0.666,0.803,0.062
32.088,-0.670,0.805,0.061
32.098,-0.670,0.805,0.062
32.108,-0.670,0.803,0.059
32.118,-0.668,0.807,0.061
32.128,-0.672,0.805,0.064
32.138,-0.668,0.805,0.062
32.147,-0.670,0.803,0.064
32.157,-0.666,0.801,0.062
32.167,-0.666,0.803,0.062
32.177,-0.664,0.805,0.064
32.187,-0.666,0.805,0.066
32.197,-0.666,0.807,0.061
32.207,-0.662,0.805,0.068
32.217,-0.664,0.809,0.068
32.227,-0.664,0.811,0.070
32.237,-0.668,0.805,0.066
32.247,-0.666,0.799,0.064
32.257,-0.668,0.799,0.064
32.267,-0.666,0.805,0.072
32.277,-0.664,0.807,0.068
32.287,-0.668,0.805,0.070
32.297,-0.664,0.805,0.072
32.306,-0.662,0.805,0.070
32.316,-0.660,0.803,0.070
32.326,-0.664,0.801,0.066
32.336,-0.660,0.803,0.070
32.346,-0.662,0.801,0.070
32.356,-0.660,0.803,0.068
32.366,-0.662,0.801,0.066
32.376,-0.660,0.805,0.070
32.386,-0.660,0.805,0.070
32.396,-0.660,0.811,0.072
32.406,-0.658,0.809,0.074
32.416,-0.660,0.812,0.072
32.426,-0.658,0.811,0.070
32.436,-0.660,0.811,0.070
32.446,-0.660,0.809,0.070
32.456,-0.658,0.807,0.070
32.465,-0.656,0.812,0.076
32.475,-0.654,0.818,0.074
32.485,-0.652,0.820,0.082
32.495,-0.648,0.816,0.076
32.505,-0.645,0.811,0.074
32.515,-0.633,0.809,0.072
32.525,-0.633,0.811,0.080
32.535,-0.639,0.816,0.082
32.545,-0.639,0.816,0.082
32.555,-0.633,0.814,0.080
32.565,-0.617,0.816,0.080
32.575,-0.604,0.818,0.090
32.585,-0.605,0.830,0.092
32.595,-0.613,0.834,0.094
32.605,-0.621,0.834,0.086
32.614,-0.617,0.836,0.080
32.624,-0.609,0.840,0.080
32.634,-0.596,0.855,0.088
32.644,-0.588,0.861,0.090
32.654,-0.584,0.861,0.078
32.664,-0.586,0.861,0.072
32.674,-0.580,0.865,0.064
32.684,-0.574,0.867,0.062
32.694,-0.566,0.865,0.064
32.704,-0.559,0.869,0.066
32.714,-0.551,0.873,0.064
32.724,-0.541,0.875,0.061
32.734,-0.535,0.879,0.062
32.744,-0.531,0.885,0.064
32.754,-0.525,0.887,0.061
32.764,-0.521,0.889,0.062
32.773,-0.523,0.889,0.059
32.783,-0.523,0.893,0.057
32.793,-0.525,0.896,0.059
32.803,-0.520,0.898,0.051
32.813,-0.518,0.898,0.053
32.823,-0.520,0.900,0.051
32.833,-0.520,0.902,0.049
32.843,-0.520,0.902,0.045
32.853,-0.521,0.904,0.043
32.863,-0.520,0.906,0.043
32.873,-0.518,0.914,0.045
32.883,-0.518,0.916,0.043
32.893,-0.516,0.922,0.043
32.903,-0.514,0.926,0.043
32.913,-0.510,0.930,0.041
32.923,-0.510,0.932,0.043
32.932,-0.508,0.934,0.043
32.942,-0.506,0.928,0.041
32.952,-0.506,0.928,0.043
32.962,-0.500,0.928,0.041
32.972,-0.494,0.926,0.041
32.982,-0.490,0.930,0.045
32.992,-0.488,0.932,0.049
33.002,-0.482,0.938,0.049
33.012,-0.482,0.934,0.051
33.022,-0.484,0.928,0.047
33.032,-0.490,0.930,0.043
33.042,-0.486,0.928,0.043
33.052,-0.482,0.932,0.049
33.062,-0.479,0.938,0.055
33.072,-0.480,0.939,0.057
33.082,-0.477,0.943,0.057
33.091,-0.473,0.939,0.062
33.101,-0.475,0.941,0.062
33.111,-0.465,0.945,0.062
33.121,-0.455,0.941,0.072
33.131,-0.447,0.949,0.078
33.141,-0.438,0.951,0.084
33.151,-0.426,0.943,0.088
33.161,-0.418,0.943,0.092
33.171,-0.410,0.945,0.100
33.181,-0.398,0.947,0.105
33.191,-0.391,0.945,0.111
33.201,-0.385,0.941,0.111
33.211,-0.387,0.939,0.113
33.221,-0.387,0.932,0.117
33.231,-0.389,0.930,0.119
33.240,-0.383,0.938,0.127
33.250,-0.377,0.939,0.135
33.260,-0.375,0.934,0.135
33.270,-0.373,0.928,0.133
33.280,-0.379,0.926,0.133
33.290,-0.381,0.922,0.137
33.300,-0.389,0.924,0.137
33.310,-0.393,0.922,0.141
33.320,-0.395,0.924,0.143
33.330,-0.396,0.932,0.146
33.340,-0.398,0.939,0.143
33.350,-0.402,0.939,0.145
33.360,-0.404,0.938,0.148
33.370,-0.408,0.939,0.143
33.380,-0.408,0.934,0.139
33.390,-0.408,0.939,0.139
33.399,-0.406,0.945,0.145
33.409,-0.404,0.947,0.148
33.419,-0.412,0.951,0.145
33.429,-0.414,0.957,0.143
33.439,-0.414,0.961,0.145
33.449,-0.408,0.965,0.150
33.459,-0.404,0.963,0.150
33.469,-0.408,0.965,0.152
33.479,-0.412,0.955,0.152
33.489,-0.416,0.945,0.150
33.499,-0.410,0.945,0.154
33.509,-0.404,0.951,0.164
33.519,-0.402,0.957,0.174
33.529,-0.396,0.951,0.178
33.539,-0.393,0.951,0.186
33.549,-0.398,0.953,0.193
33.558,-0.400,0.951,0.197
33.568,-0.400,0.941,0.197
33.578,-0.398,0.943,0.205
33.588,-0.393,0.949,0.217
33.598,-0.402,0.947,0.223
33.608,-0.404,0.947,0.223
33.618,-0.408,0.949,0.234
33.628,-0.408,0.951,0.240
33.638,-0.412,0.947,0.242
33.648,-0.410,0.939,0.242
33.658,-0.406,0.932,0.244
33.668,-0.406,0.928,0.248
33.678,-0.406,0.920,0.250
33.688,-0.404,0.918,0.252
33.698,-0.400,0.920,0.260
33.707,-0.395,0.920,0.271
33.717,-0.387,0.928,0.277
33.727,-0.383,0.932,0.287
33.737,-0.385,0.924,0.291
33.747,-0.377,0.926,0.299
33.757,-0.375,0.926,0.303
33.767,-0.373,0.922,0.311
33.777,-0.371,0.922,0.314
33.787,-0.371,0.924,0.320
33.797,-0.369,0.922,0.324
33.807,-0.371,0.926,0.326
33.817,-0.371,0.918,0.330
33.827,-0.375,0.908,0.336
33.837,-0.379,0.910,0.361
33.847,-0.383,0.914,0.377
33.857,-0.375,0.883,0.336
33.866,-0.379,0.861,0.330
33.876,-0.377,0.891,0.354
33.886,-0.373,0.906,0.363
33.896,-0.381,0.900,0.359
33.906,-0.391,0.891,0.354
33.916,-0.393,0.891,0.350
33.926,-0.393,0.889,0.357
33.936,-0.391,0.898,0.365
33.946,-0.381,0.912,0.375
33.956,-0.371,0.914,0.379
33.966,-0.367,0.916,0.379
33.976,-0.363,0.916,0.377
33.986,-0.367,0.920,0.381
33.996,-0.365,0.916,0.391
34.006,-0.363,0.898,0.383
34.016,-0.375,0.883,0.377
34.025,-0.385,0.883,0.377
34.035,-0.381,0.879,0.383
34.045,-0.383,0.873,0.389
34.055,-0.387,0.871,0.387
34.065,-0.387,0.875,0.393
34.075,-0.387,0.879,0.398
34.085,-0.381,0.885,0.398
34.095,-0.373,0.883,0.402
34.105,-0.371,0.881,0.398
34.115,-0.373,0.885,0.395
34.125,-0.381,0.885,0.389
34.135,-0.387,0.889,0.389
34.145,-0.393,0.887,0.387
34.155,-0.396,0.891,0.385
34.165,-0.404,0.891,0.379
34.175,-0.408,0.893,0.385
34.184,-0.418,0.893,0.381
34.194,-0.432,0.895,0.383
34.204,-0.432,0.895,0.379
34.214,-0.441,0.885,0.383
34.224,-0.453,0.879,0.383
34.234,-0.455,0.879,0.381
34.244,-0.457,0.875,0.385
34.254,-0.461,0.873,0.389
34.264,-0.463,0.869,0.385
34.274,-0.461,0.871,0.387
34.284,-0.465,0.867,0.391
34.294,-0.471,0.869,0.395
34.304,-0.475,0.867,0.391
34.314,-0.480,0.865,0.395
34.324,-0.479,0.867,0.393
34.333,-0.479,0.861,0.393
34.343,-0.479,0.863,0.391
34.353,-0.477,0.869,0.391
34.363,-0.471,0.873,0.395
34.373,-0.465,0.877,0.398
34.383,-0.459,0.873,0.398
34.393,-0.453,0.871,0.400
34.403,-0.451,0.861,0.396
34.413,-0.447,0.855,0.400
34.423,-0.445,0.854,0.398
34.433,-0.441,0.855,0.398
34.443,-0.439,0.859,0.406
34.453,-0.439,0.857,0.412
34.463,-0.439,0.857,0.410
34.473,-0.443,0.852,0.416
34.483,-0.439,0.854,0.418
34.492,-0.438,0.859,0.426
34.502,-0.436,0.857,0.428
34.512,-0.434,0.855,0.418
34.522,-0.441,0.852,0.416
34.532,-0.445,0.852,0.414
34.542,-0.453,0.852,0.414
34.552,-0.459,0.850,0.414
34.562,-0.463,0.850,0.410
34.572,-0.465,0.852,0.410
34.582,-0.469,0.852,0.408
34.592,-0.469,0.857,0.410
34.602,-0.471,0.857,0.406
34.612,-0.473,0.850,0.404
34.622,-0.469,0.855,0.402
34.632,-0.465,0.859,0.406
34.642,-0.461,0.857,0.406
34.651,-0.467,0.857,0.404
34.661,-0.467,0.855,0.402
34.671,-0.463,0.861,0.408
34.681,-0.465,0.857,0.408
34.691,-0.471,0.855,0.396
34.701,-0.467,0.861,0.396
34.711,-0.467,0.867,0.400
34.721,-0.467,0.867,0.402
34.731,-0.465,0.867,0.400
34.741,-0.467,0.865,0.400
34.751,-0.467,0.865,0.398
34.761,-0.475,0.869,0.398
34.771,-0.475,0.871,0.396
34.781,-0.473,0.877,0.400
34.791,-0.473,0.871,0.400
34.800,-0.471,0.871,0.402
34.810,-0.469,0.867,0.404
34.820,-0.469,0.865,0.402
34.830,-0.463,0.863,0.406
34.840,-0.465,0.863,0.402
34.850,-0.461,0.857,0.404
34.860,-0.455,0.857,0.402
34.870,-0.455,0.854,0.408
34.880,-0.455,0.854,0.410
34.890,-0.449,0.857,0.410
34.900,-0.445,0.857,0.408
34.910,-0.441,0.850,0.406
34.920,-0.447,0.852,0.412
34.930,-0.441,0.855,0.410
34.940,-0.441,0.855,0.412
34.950,-0.443,0.852,0.408
34.959,-0.445,0.852,0.406
34.969,-0.449,0.852,0.404
34.979,-0.451,0.854,0.406
34.989,-0.459,0.859,0.412
34.999,-0.465,0.861,0.408
35.009,-0.463,0.859,0.408
35.019,-0.463,0.861,0.406
35.029,-0.461,0.857,0.410
35.039,-0.463,0.859,0.406
35.049,-0.459,0.859,0.406
35.059,-0.459,0.857,0.404
35.069,-0.457,0.857,0.402
35.079,-0.461,0.857,0.398
35.089,-0.463,0.859,0.400
35.099,-0.459,0.859,0.402
35.109,-0.465,0.865,0.400
35.118,-0.465,0.867,0.400
35.128,-0.463,0.863,0.402
35.138,-0.463,0.861,0.408
35.148,-0.461,0.863,0.400
35.158,-0.461,0.863,0.400
35.168,-0.461,0.857,0.398
35.178,-0.459,0.861,0.404
35.188,-0.459,0.863,0.404
35.198,-0.457,0.863,0.400
35.208,-0.461,0.859,0.402
35.218,-0.461,0.855,0.402
35.228,-0.465,0.855,0.398
35.238,-0.471,0.855,0.400
35.248,-0.469,0.857,0.398
35.258,-0.471,0.852,0.398
35.267,-0.473,0.850,0.398
35.277,-0.477,0.854,0.393
35.287,-0.479,0.852,0.393
35.297,-0.477,0.850,0.391
35.307,-0.480,0.848,0.393
35.317,-0.482,0.852,0.395
35.327,-0.486,0.855,0.393
35.337,-0.486,0.855,0.396
35.347,-0.486,0.857,0.393
35.357,-0.486,0.859,0.393
35.367,-0.486,0.859,0.391
35.377,-0.490,0.855,0.387
35.387,-0.492,0.855,0.387
35.397,-0.488,0.859,0.387
35.407,-0.490,0.854,0.389
35.417,-0.494,0.852,0.383
35.426,-0.488,0.854,0.387
35.436,-0.490,0.852,0.387
35.446,-0.490,0.855,0.391
35.456,-0.488,0.852,0.391
35.466,-0.490,0.852,0.391
35.476,-0.490,0.850,0.387
35.486,-0.492,0.852,0.387
35.496,-0.496,0.855,0.389
35.506,-0.498,0.852,0.387
35.516,-0.496,0.854,0.385
35.526,-0.496,0.852,0.387
35.536,-0.500,0.850,0.383
35.546,-0.498,0.854,0.385
35.556,-0.498,0.850,0.387
35.566,-0.498,0.854,0.385
35.576,-0.496,0.852,0.391
35.585,-0.492,0.850,0.389
35.595,-0.490,0.846,0.387
35.605,-0.490,0.844,0.387
35.615,-0.490,0.842,0.385
35.625,-0.492,0.844,0.383
35.635,-0.494,0.842,0.383
35.645,-0.500,0.846,0.387
35.655,-0.496,0.844,0.387
35.665,-0.498,0.844,0.385
35.675,-0.500,0.848,0.381
35.685,-0.498,0.844,0.375
35.695,-0.496,0.842,0.375
35.705,-0.494,0.846,0.375
35.715,-0.496,0.848,0.373
35.725,-0.498,0.848,0.373
35.735,-0.500,0.852,0.375
35.744,-0.502,0.855,0.373
35.754,-0.498,0.855,0.371
35.764,-0.498,0.855,0.375
35.774,-0.494,0.855,0.375
35.784,-0.492,0.852,0.377
35.794,-0.492,0.852,0.371
35.804,-0.492,0.850,0.375
35.814,-0.492,0.848,0.369
35.824,-0.496,0.844,0.367
35.834,-0.498,0.842,0.367
35.844,-0.500,0.844,0.365
35.854,-0.502,0.846,0.363
35.864,-0.508,0.844,0.365
35.874,-0.510,0.836,0.359
35.884,-0.512,0.834,0.354
35.893,-0.514,0.832,0.352
35.903,-0.518,0.824,0.344
35.913,-0.520,0.830,0.342
35.923,-0.529,0.828,0.342
35.933,-0.529,0.832,0.338
35.943,-0.531,0.836,0.338
35.953,-0.531,0.844,0.338
35.963,-0.533,0.850,0.336
35.973,-0.535,0.855,0.334
35.983,-0.533,0.854,0.334
35.993,-0.537,0.852,0.324
36.003,-0.541,0.852,0.318
36.013,-0.543,0.855,0.316
36.023,-0.539,0.855,0.312
36.033,-0.545,0.859,0.311
36.043,-0.543,0.869,0.311
36.052,-0.539,0.871,0.307
36.062,-0.545,0.867,0.303
36.072,-0.547,0.859,0.295
36.082,-0.543,0.852,0.291
36.092,-0.543,0.854,0.285
36.102,-0.547,0.852,0.287
36.112,-0.549,0.857,0.285
36.122,-0.551,0.852,0.279
36.132,-0.551,0.854,0.281
36.142,-0.551,0.854,0.277
36.152,-0.555,0.850,0.275
36.162,-0.553,0.848,0.268
36.172,-0.555,0.854,0.266
36.182,-0.557,0.854,0.264
36.192,-0.562,0.852,0.260
36.202,-0.564,0.854,0.258
36.211,-0.566,0.857,0.256
36.221,-0.566,0.861,0.258
36.231,-0.568,0.863,0.256
36.241,-0.568,0.861,0.254
36.251,-0.566,0.857,0.248
36.261,-0.574,0.854,0.244
36.271,-0.574,0.855,0.244
36.281,-0.572,0.852,0.244
36.291,-0.574,0.854,0.242
36.301,-0.574,0.855,0.242
36.311,-0.572,0.855,0.238
36.321,-0.570,0.859,0.236
36.331,-0.574,0.863,0.234
36.341,-0.570,0.865,0.236
36.351,-0.574,0.859,0.234
36.360,-0.578,0.857,0.232
36.370,-0.582,0.854,0.232
36.380,-0.582,0.852,0.230
36.390,-0.584,0.850,0.230
36.400,-0.580,0.844,0.234
36.410,-0.584,0.842,0.234
36.420,-0.586,0.842,0.230
36.430,-0.590,0.840,0.236
36.440,-0.592,0.840,0.236
36.450,-0.590,0.846,0.234
36.460,-0.594,0.842,0.238
36.470,-0.594,0.846,0.236
36.480,-0.596,0.842,0.232
36.490,-0.596,0.842,0.229
36.500,-0.598,0.842,0.232
36.510,-0.594,0.840,0.230
36.519,-0.594,0.840,0.230
36.529,-0.590,0.842,0.234
36.539,-0.590,0.842,0.240
36.549,-0.588,0.846,0.236
36.559,-0.584,0.846,0.238
36.569,-0.578,0.844,0.236
36.579,-0.576,0.842,0.244
36.589,-0.574,0.846,0.242
36.599,-0.572,0.838,0.242
36.609,-0.570,0.840,0.240
36.619,-0.566,0.846,0.242
36.629,-0.570,0.848,0.244
36.639,-0.572,0.846,0.240
36.649,-0.572,0.846,0.240
36.659,-0.580,0.844,0.236
36.669,-0.582,0.840,0.236
36.678,-0.582,0.846,0.240
36.688,-0.584,0.850,0.246
36.698,-0.580,0.859,0.248
36.708,-0.576,0.859,0.242
36.718,-0.574,0.861,0.248
36.728,-0.566,0.863,0.240
36.738,-0.564,0.863,0.240
36.748,-0.561,0.863,0.242
36.758,-0.557,0.869,0.244
36.768,-0.553,0.869,0.246
36.778,-0.549,0.867,0.248
36.788,-0.547,0.867,0.246
36.798,-0.547,0.865,0.252
36.808,-0.549,0.863,0.248
36.818,-0.551,0.863,0.250
36.828,-0.551,0.861,0.254
36.837,-0.555,0.857,0.258
36.847,-0.557,0.854,0.260
36.857,-0.561,0.846,0.262
36.867,-0.562,0.844,0.266
36.877,-0.562,0.842,0.266
36.887,-0.564,0.842,0.271
36.897,-0.568,0.838,0.270
36.907,-0.568,0.840,0.270
36.917,-0.572,0.844,0.268
36.927,-0.570,0.844,0.275
36.937,-0.572,0.842,0.277
36.947,-0.570,0.840,0.275
36.957,-0.564,0.848,0.283
36.967,-0.557,0.854,0.287
36.977,-0.555,0.848,0.285
36.986,-0.555,0.842,0.283
36.996,-0.549,0.840,0.279
37.006,-0.547,0.844,0.285
37.016,-0.545,0.844,0.289
37.026,-0.547,0.842,0.291
37.036,-0.549,0.854,0.293
37.046,-0.543,0.857,0.299
37.056,-0.549,0.852,0.291
37.066,-0.547,0.852,0.297
37.076,-0.545,0.854,0.293
37.086,-0.541,0.848,0.297
37.096,-0.545,0.848,0.291
37.106,-0.547,0.844,0.293
37.116,-0.547,0.844,0.297
37.126,-0.549,0.844,0.293
37.136,-0.545,0.844,0.293
37.145,-0.545,0.844,0.295
37.155,-0.545,0.846,0.299
37.165,-0.547,0.850,0.297
37.175,-0.549,0.848,0.301
37.185,-0.549,0.855,0.297
37.195,-0.543,0.854,0.299
37.205,-0.539,0.846,0.295
37.215,-0.537,0.850,0.293
37.225,-0.537,0.850,0.297
37.235,-0.533,0.848,0.297
37.245,-0.531,0.852,0.301
37.255,-0.529,0.854,0.299
37.265,-0.527,0.852,0.301
37.275,-0.525,0.850,0.301
37.285,-0.521,0.850,0.295
37.295,-0.518,0.844,0.299
37.304,-0.516,0.848,0.303
37.314,-0.518,0.846,0.305
37.324,-0.518,0.842,0.299
37.334,-0.518,0.840,0.297
37.344,-0.518,0.834,0.295
37.354,-0.518,0.830,0.295
37.364,-0.518,0.828,0.293
37.374,-0.518,0.824,0.295
37.384,-0.518,0.824,0.297
37.394,-0.514,0.824,0.299
37.404,-0.518,0.822,0.293
37.414,-0.518,0.812,0.287
37.424,-0.523,0.809,0.281
37.434,-0.527,0.814,0.281
37.444,-0.539,0.820,0.283
37.453,-0.549,0.822,0.279
37.463,-0.549,0.826,0.277
37.473,-0.551,0.840,0.279
37.483,-0.543,0.842,0.270
37.493,-0.547,0.828,0.250
37.503,-0.557,0.805,0.227
37.513,-0.564,0.785,0.209
37.523,-0.582,0.789,0.195
37.533,-0.594,0.799,0.186
37.543,-0.609,0.811,0.176
37.553,-0.625,0.814,0.168
37.563,-0.635,0.818,0.158
37.573,-0.635,0.824,0.148
37.583,-0.625,0.822,0.133
37.593,-0.611,0.811,0.113
37.603,-0.607,0.799,0.094
37.612,-0.615,0.801,0.074
37.622,-0.637,0.818,0.059
37.632,-0.658,0.820,0.047
37.642,-0.676,0.834,0.037
37.652,-0.680,0.846,0.035
37.662,-0.676,0.861,0.031
37.672,-0.660,0.865,0.021
37.682,-0.645,0.863,0.014
37.692,-0.639,0.854,0.000
37.702,-0.641,0.855,-0.002
37.712,-0.645,0.854,-0.008
37.722,-0.645,0.852,-0.012
37.732,-0.650,0.848,-0.010
37.742,-0.652,0.846,-0.012
37.752,-0.656,0.838,-0.023
37.762,-0.654,0.832,-0.031
37.771,-0.654,0.840,-0.029
37.781,-0.650,0.848,-0.023
37.791,-0.652,0.854,-0.025
37.801,-0.660,0.855,-0.031
37.811,-0.664,0.865,-0.033
37.821,-0.666,0.873,-0.031
37.831,-0.662,0.881,-0.029
37.841,-0.662,0.879,-0.027
37.851,-0.662,0.875,-0.029
37.861,-0.656,0.871,-0.027
37.871,-0.654,0.859,-0.027
37.881,-0.650,0.852,-0.025
37.891,-0.648,0.830,-0.025
37.901,-0.650,0.812,-0.023
37.911,-0.648,0.797,-0.029
37.920,-0.646,0.783,-0.027
37.930,-0.639,0.775,-0.025
37.940,-0.639,0.770,-0.027
37.950,-0.643,0.770,-0.027
37.960,-0.648,0.773,-0.029
37.970,-0.656,0.773,-0.031
37.980,-0.662,0.771,-0.033
37.990,-0.668,0.768,-0.043
38.000,-0.676,0.770,-0.047
38.010,-0.682,0.781,-0.055
38.020,-0.680,0.785,-0.061
38.030,-0.674,0.779,-0.062
38.040,-0.684,0.771,-0.074
38.050,-0.689,0.775,-0.082
38.060,-0.693,0.775,-0.086
38.070,-0.695,0.775,-0.088
38.079,-0.695,0.777,-0.090
38.089,-0.695,0.775,-0.090
38.099,-0.695,0.779,-0.088
38.109,-0.693,0.777,-0.094
38.119,-0.689,0.773,-0.092
38.129,-0.689,0.773,-0.088
38.139,-0.686,0.775,-0.090
38.149,-0.684,0.768,-0.086
38.159,-0.689,0.762,-0.086
38.169,-0.697,0.762,-0.086
38.179,-0.701,0.760,-0.092
38.189,-0.711,0.760,-0.096
38.199,-0.719,0.760,-0.096
38.209,-0.727,0.758,-0.105
38.219,-0.727,0.750,-0.105
38.229,-0.730,0.744,-0.109
38.238,-0.730,0.746,-0.109
38.248,-0.736,0.748,-0.107
38.258,-0.732,0.754,-0.105
38.268,-0.734,0.758,-0.100
38.278,-0.729,0.766,-0.098
38.288,-0.723,0.768,-0.090
38.298,-0.717,0.768,-0.088
38.308,-0.709,0.770,-0.090
38.318,-0.701,0.766,-0.086
38.328,-0.699,0.760,-0.090
38.338,-0.693,0.752,-0.090
38.348,-0.691,0.750,-0.090
38.358,-0.693,0.748,-0.088
38.368,-0.695,0.750,-0.090
38.378,-0.701,0.752,-0.096
38.388,-0.701,0.744,-0.096
38.397,-0.703,0.738,-0.100
38.407,-0.705,0.754,-0.092
38.417,-0.701,0.756,-0.090
38.427,-0.699,0.752,-0.090
38.437,-0.699,0.756,-0.090
38.447,-0.699,0.760,-0.090
38.457,-0.695,0.762,-0.092
38.467,-0.697,0.768,-0.094
38.477,-0.693,0.771,-0.096
38.487,-0.691,0.771,-0.098
38.497,-0.693,0.773,-0.104
38.507,-0.693,0.777,-0.102
38.517,-0.693,0.779,-0.104
38.527,-0.693,0.775,-0.107
38.537,-0.699,0.773,-0.113
38.546,-0.699,0.771,-0.119
38.556,-0.701,0.771,-0.117
38.566,-0.703,0.775,-0.119
38.576,-0.699,0.781,-0.113
38.586,-0.695,0.787,-0.107
38.596,-0.691,0.793,-0.107
38.606,-0.693,0.795,-0.105
38.616,-0.688,0.797,-0.105
38.626,-0.688,0.795,-0.102
38.636,-0.686,0.795,-0.100
38.646,-0.684,0.795,-0.096
38.656,-0.684,0.797,-0.090
38.666,-0.678,0.799,-0.086
38.676,-0.676,0.797,-0.084
38.686,-0.674,0.789,-0.080
38.696,-0.676,0.783,-0.080
38.705,-0.672,0.777,-0.080
38.715,-0.676,0.775,-0.074
38.725,-0.682,0.771,-0.072
38.735,-0.688,0.770,-0.072
38.745,-0.693,0.766,-0.066
38.755,-0.699,0.762,-0.062
38.765,-0.701,0.764,-0.057
38.775,-0.705,0.764,-0.059
38.785,-0.703,0.766,-0.055
38.795,-0.707,0.770,-0.053
38.805,-0.705,0.768,-0.045
38.815,-0.705,0.770,-0.045
38.825,-0.701,0.768,-0.037
38.835,-0.707,0.771,-0.033
38.845,-0.707,0.773,-0.031
38.855,-0.707,0.770,-0.025
38.864,-0.709,0.766,-0.025
38.874,-0.709,0.768,-0.021
38.884,-0.707,0.766,-0.020
38.894,-0.707,0.764,-0.014
38.904,-0.703,0.766,-0.012
38.914,-0.705,0.771,-0.006
38.924,-0.701,0.773,0.000
38.934,-0.697,0.779,0.004
38.944,-0.697,0.781,0.008
38.954,-0.693,0.785,0.010
38.964,-0.695,0.785,0.012
38.974,-0.693,0.787,0.014
38.984,-0.689,0.791,0.018
38.994,-0.686,0.789,0.018
39.004,-0.682,0.795,0.021
39.013,-0.676,0.791,0.027
39.023,-0.676,0.793,0.033
39.033,-0.668,0.795,0.035
39.043,-0.668,0.797,0.041
39.053,-0.664,0.797,0.045
39.063,-0.660,0.801,0.049
39.073,-0.658,0.801,0.047
39.083,-0.656,0.803,0.055
39.093,-0.650,0.805,0.055
39.103,-0.650,0.809,0.057
39.113,-0.654,0.811,0.061
39.123,-0.664,0.809,0.059
39.133,-0.668,0.803,0.057
39.143,-0.672,0.803,0.062
39.153,-0.670,0.807,0.068
39.163,-0.670,0.811,0.070
39.172,-0.668,0.816,0.076
39.182,-0.664,0.822,0.078
39.192,-0.662,0.824,0.086
39.202,-0.654,0.820,0.086
39.212,-0.648,0.814,0.088
39.222,-0.648,0.811,0.086
39.232,-0.641,0.809,0.092
39.242,-0.639,0.809,0.096
39.252,-0.637,0.811,0.102
39.262,-0.635,0.812,0.104
39.272,-0.627,0.816,0.107
39.282,-0.619,0.820,0.117
39.292,-0.613,0.820,0.121
39.302,-0.609,0.824,0.129
39.312,-0.604,0.826,0.131
39.322,-0.604,0.824,0.131
39.331,-0.602,0.826,0.127
39.341,-0.600,0.832,0.131
39.351,-0.596,0.828,0.129
39.361,-0.596,0.828,0.127
39.371,-0.592,0.824,0.127
39.381,-0.592,0.828,0.127
39.391,-0.592,0.830,0.133
39.401,-0.592,0.836,0.133
39.411,-0.594,0.842,0.139
39.421,-0.596,0.844,0.141
39.431,-0.598,0.846,0.145
39.441,-0.598,0.846,0.145
39.451,-0.594,0.850,0.148
39.461,-0.592,0.854,0.152
39.471,-0.586,0.852,0.148
39.481,-0.584,0.846,0.152
39.490,-0.584,0.852,0.150
39.500,-0.586,0.850,0.154
39.510,-0.584,0.854,0.158
39.520,-0.584,0.855,0.162
39.530,-0.584,0.854,0.164
39.540,-0.584,0.854,0.168
39.550,-0.584,0.855,0.168
39.560,-0.582,0.852,0.170
39.570,-0.582,0.852,0.172
39.580,-0.580,0.855,0.170
39.590,-0.582,0.854,0.178
39.600,-0.582,0.850,0.174
39.610,-0.584,0.852,0.180
39.620,-0.584,0.850,0.182
39.630,-0.588,0.850,0.182
39.639,-0.586,0.848,0.186
39.649,-0.588,0.850,0.189
39.659,-0.586,0.850,0.189
39.669,-0.594,0.852,0.193
39.679,-0.592,0.846,0.197
39.689,-0.594,0.840,0.195
39.699,-0.594,0.840,0.197
39.709,-0.594,0.838,0.197
39.719,-0.596,0.832,0.197
39.729,-0.604,0.832,0.197
39.739,-0.602,0.832,0.195
39.749,-0.605,0.828,0.195
39.759,-0.605,0.824,0.197
39.769,-0.613,0.820,0.199
39.779,-0.617,0.818,0.199
39.789,-0.619,0.811,0.203
39.798,-0.625,0.807,0.203
39.808,-0.629,0.803,0.205
39.818,-0.639,0.803,0.203
39.828,-0.641,0.797,0.209
39.838,-0.646,0.797,0.209
39.848,-0.650,0.795,0.209
39.858,-0.654,0.791,0.207
39.868,-0.654,0.791,0.211
39.878,-0.658,0.791,0.209
39.888,-0.662,0.791,0.211
39.898,-0.668,0.791,0.209
39.908,-0.670,0.787,0.211
39.918,-0.672,0.783,0.207
39.928,-0.672,0.785,0.205
39.938,-0.672,0.783,0.207
39.948,-0.672,0.781,0.205
39.957,-0.670,0.781,0.207
39.967,-0.676,0.783,0.209
39.977,-0.676,0.785,0.207
39.987,-0.680,0.779,0.207
39.997,-0.678,0.771,0.201
40.007,-0.684,0.773,0.203
40.017,-0.686,0.777,0.207
40.027,-0.686,0.773,0.207
40.037,-0.686,0.775,0.207
40.047,-0.680,0.773,0.209
40.057,-0.680,0.773,0.211
40.067,-0.678,0.775,0.207
40.077,-0.678,0.773,0.211
40.087,-0.678,0.777,0.207
40.097,-0.682,0.775,0.209
40.106,-0.680,0.777,0.211
40.116,-0.680,0.779,0.207
40.126,-0.674,0.779,0.205
40.136,-0.674,0.783,0.205
40.146,-0.674,0.787,0.207
40.156,-0.670,0.787,0.205
40.166,-0.670,0.787,0.205
40.176,-0.666,0.787,0.205
40.186,-0.662,0.793,0.207
40.196,-0.666,0.791,0.203
40.206,-0.664,0.791,0.207
40.216,-0.664,0.791,0.203
40.226,-0.660,0.797,0.209
40.236,-0.662,0.797,0.211
40.246,-0.658,0.797,0.207
40.256,-0.656,0.795,0.203
40.265,-0.656,0.795,0.205
40.275,-0.658,0.795,0.211
40.285,-0.658,0.797,0.209
40.295,-0.658,0.801,0.205
40.305,-0.654,0.799,0.203
40.315,-0.656,0.797,0.209
40.325,-0.656,0.799,0.207
40.335,-0.656,0.795,0.207
40.345,-0.656,0.793,0.207
40.355,-0.658,0.793,0.205
40.365,-0.660,0.793,0.205
40.375,-0.658,0.795,0.207
40.385,-0.662,0.793,0.207
40.395,-0.662,0.795,0.209
40.405,-0.662,0.793,0.207
40.415,-0.662,0.795,0.209
40.424,-0.662,0.793,0.207
40.434,-0.664,0.795,0.209
40.444,-0.660,0.797,0.215
40.454,-0.660,0.797,0.209
40.464,-0.660,0.797,0.211
40.474,-0.656,0.795,0.207
40.484,-0.660,0.795,0.207
40.494,-0.658,0.793,0.207
40.504,-0.658,0.793,0.207
40.514,-0.656,0.791,0.205
40.524,-0.658,0.795,0.209
40.534,-0.664,0.789,0.209
40.544,-0.660,0.791,0.209
40.554,-0.660,0.793,0.209
40.564,-0.660,0.791,0.211
40.573,-0.660,0.789,0.209
40.583,-0.660,0.787,0.211
40.593,-0.662,0.787,0.211
40.603,-0.660,0.787,0.211
40.613,-0.662,0.787,0.209
40.623,-0.666,0.785,0.207
40.633,-0.666,0.785,0.207
40.643,-0.668,0.787,0.205
40.653,-0.668,0.785,0.209
40.663,-0.672,0.791,0.209
40.673,-0.672,0.787,0.207
40.683,-0.674,0.787,0.205
40.693,-0.670,0.791,0.207
40.703,-0.676,0.785,0.211
40.713,-0.674,0.787,0.209
40.723,-0.674,0.787,0.207
40.732,-0.670,0.789,0.213
40.742,-0.672,0.789,0.215
40.752,-0.672,0.793,0.213
40.762,-0.672,0.787,0.213
40.772,-0.672,0.785,0.213
40.782,-0.670,0.781,0.213
40.792,-0.674,0.781,0.215
40.802,-0.674,0.783,0.215
40.812,-0.672,0.781,0.219
40.822,-0.670,0.785,0.219
40.832,-0.670,0.783,0.221
40.842,-0.670,0.783,0.219
40.852,-0.668,0.783,0.219
40.862,-0.668,0.781,0.217
40.872,-0.666,0.779,0.215
40.882,-0.668,0.785,0.217
40.891,-0.668,0.785,0.221
40.901,-0.670,0.785,0.219
40.911,-0.670,0.783,0.221
40.921,-0.668,0.787,0.223
40.931,-0.666,0.785,0.223
40.941,-0.664,0.789,0.225
40.951,-0.666,0.787,0.225
40.961,-0.668,0.787,0.227
40.971,-0.668,0.787,0.227
40.981,-0.662,0.787,0.227
40.991,-0.666,0.785,0.223
41.001,-0.664,0.783,0.229
41.011,-0.664,0.793,0.227
41.021,-0.662,0.789,0.229
41.031,-0.660,0.787,0.229
41.041,-0.660,0.787,0.225
41.050,-0.660,0.783,0.227
41.060,-0.662,0.789,0.229
41.070,-0.662,0.789,0.230
41.080,-0.660,0.787,0.232
41.090,-0.660,0.789,0.230
41.100,-0.660,0.791,0.236
41.110,-0.660,0.787,0.232
41.120,-0.658,0.789,0.234
41.130,-0.658,0.787,0.229
41.140,-0.658,0.787,0.232
41.150,-0.662,0.787,0.234
41.160,-0.660,0.787,0.238
41.170,-0.660,0.787,0.236
41.180,-0.656,0.791,0.236
41.190,-0.658,0.789,0.234
41.199,-0.658,0.787,0.236
41.209,-0.658,0.785,0.236
41.219,-0.660,0.783,0.238
41.229,-0.660,0.787,0.238
41.239,-0.662,0.783,0.236
41.249,-0.660,0.783,0.236
41.259,-0.662,0.787,0.236
41.269,-0.666,0.791,0.242
41.279,-0.666,0.797,0.240
41.289,-0.664,0.797,0.244
41.299,-0.666,0.797,0.248
41.309,-0.662,0.801,0.244
41.319,-0.660,0.797,0.250
41.329,-0.658,0.795,0.250
41.339,-0.656,0.791,0.250
41.349,-0.654,0.791,0.248
41.358,-0.652,0.787,0.248
41.368,-0.654,0.783,0.246
41.378,-0.650,0.783,0.248
41.388,-0.650,0.787,0.248
41.398,-0.652,0.785,0.254
41.408,-0.652,0.787,0.256
41.418,-0.650,0.783,0.256
41.428,-0.650,0.785,0.256
41.438,-0.652,0.785,0.256
41.448,-0.654,0.781,0.252
41.458,-0.656,0.781,0.254
41.468,-0.654,0.775,0.258
41.478,-0.656,0.777,0.258
41.488,-0.654,0.781,0.264
41.498,-0.654,0.779,0.262
41.508,-0.650,0.775,0.264
41.517,-0.656,0.783,0.258
41.527,-0.654,0.779,0.264
41.537,-0.652,0.781,0.260
41.547,-0.654,0.773,0.256
41.557,-0.660,0.771,0.254
41.567,-0.662,0.775,0.256
41.577,-0.666,0.777,0.256
41.587,-0.666,0.775,0.258
41.597,-0.666,0.777,0.258
41.607,-0.668,0.779,0.256
41.617,-0.666,0.775,0.256
41.627,-0.664,0.775,0.256
41.637,-0.668,0.777,0.254
41.647,-0.668,0.777,0.258
41.657,-0.666,0.775,0.258
41.666,-0.666,0.775,0.254
41.676,-0.668,0.779,0.252
41.686,-0.666,0.779,0.258
41.696,-0.666,0.779,0.256
41.706,-0.664,0.779,0.260
41.716,-0.664,0.779,0.260
41.726,-0.666,0.783,0.260
41.736,-0.664,0.789,0.262
41.746,-0.660,0.785,0.260
41.756,-0.660,0.781,0.260
41.766,-0.658,0.781,0.260
41.776,-0.660,0.779,0.266
41.786,-0.656,0.785,0.268
41.796,-0.656,0.785,0.268
41.806,-0.654,0.783,0.266
41.816,-0.652,0.779,0.268
41.825,-0.652,0.779,0.266
41.835,-0.656,0.781,0.264
41.845,-0.658,0.779,0.262
41.855,-0.658,0.775,0.262
41.865,-0.660,0.775,0.260
41.875,-0.658,0.781,0.258
41.885,-0.660,0.775,0.260
41.895,-0.660,0.775,0.256
41.905,-0.662,0.779,0.256
41.915,-0.664,0.781,0.256
41.925,-0.662,0.781,0.252
41.935,-0.668,0.781,0.252
41.945,-0.662,0.787,0.256
41.955,-0.664,0.793,0.250
41.965,-0.662,0.791,0.250
41.975,-0.662,0.793,0.250
41.984,-0.664,0.791,0.250
41.994,-0.664,0.793,0.248
42.004,-0.662,0.793,0.248
42.014,-0.662,0.787,0.246
42.024,-0.660,0.789,0.244
42.034,-0.660,0.787,0.248
42.044,-0.658,0.787,0.250
42.054,-0.658,0.791,0.248
42.064,-0.654,0.789,0.244
42.074,-0.654,0.787,0.246
42.084,-0.654,0.789,0.246
42.094,-0.652,0.789,0.246
42.104,-0.650,0.787,0.244
42.114,-0.656,0.787,0.246
42.124,-0.656,0.785,0.244
42.134,-0.660,0.787,0.250
42.143,-0.656,0.785,0.246
42.153,-0.660,0.785,0.246
42.163,-0.660,0.785,0.248
42.173,-0.662,0.781,0.244
42.183,-0.664,0.785,0.248
42.193,-0.664,0.781,0.248
42.203,-0.666,0.781,0.244
42.213,-0.668,0.783,0.248
42.223,-0.666,0.781,0.252
42.233,-0.666,0.785,0.250
42.243,-0.664,0.787,0.252
42.253,-0.662,0.777,0.250
42.263,-0.666,0.781,0.248
42.273,-0.670,0.787,0.252
42.283,-0.666,0.777,0.246
42.292,-0.668,0.773,0.246
42.302,-0.668,0.775,0.244
42.312,-0.670,0.775,0.250
42.322,-0.670,0.777,0.250
42.332,-0.666,0.777,0.250
42.342,-0.668,0.777,0.254
42.352,-0.668,0.777,0.252
42.362,-0.668,0.783,0.250
42.372,-0.666,0.779,0.248
42.382,-0.666,0.781,0.248
42.392,-0.664,0.781,0.248
42.402,-0.668,0.783,0.246
42.412,-0.664,0.781,0.244
42.422,-0.660,0.783,0.248
42.432,-0.658,0.783,0.248
42.442,-0.656,0.789,0.248
42.451,-0.658,0.789,0.246
42.461,-0.656,0.789,0.244
42.471,-0.652,0.793,0.246
42.481,-0.652,0.795,0.246
42.491,-0.652,0.797,0.246
42.501,-0.648,0.789,0.244
42.511,-0.646,0.795,0.246
42.521,-0.646,0.803,0.244
42.531,-0.648,0.803,0.246
42.541,-0.645,0.797,0.242
42.551,-0.645,0.795,0.238
42.561,-0.648,0.797,0.244
42.571,-0.648,0.797,0.248
42.581,-0.646,0.801,0.244
42.591,-0.646,0.803,0.246
42.601,-0.648,0.799,0.244
42.610,-0.646,0.799,0.248
42.620,-0.646,0.799,0.248
42.630,-0.645,0.799,0.248
42.640,-0.643,0.795,0.244
42.650,-0.645,0.797,0.248
42.660,-0.641,0.797,0.248
42.670,-0.641,0.797,0.252
42.680,-0.641,0.797,0.250
42.690,-0.641,0.799,0.250
42.700,-0.641,0.797,0.248
42.710,-0.643,0.799,0.250
42.720,-0.645,0.801,0.248
42.730,-0.641,0.795,0.252
42.740,-0.645,0.801,0.250
42.750,-0.643,0.799,0.248
42.759,-0.641,0.805,0.254
42.769,-0.639,0.803,0.250
42.779,-0.645,0.801,0.250
42.789,-0.639,0.803,0.254
42.799,-0.641,0.799,0.254
42.809,-0.639,0.801,0.248
42.819,-0.643,0.801,0.252
42.829,-0.637,0.801,0.254
42.839,-0.641,0.801,0.256
42.849,-0.641,0.799,0.254
42.859,-0.639,0.799,0.256
42.869,-0.643,0.799,0.256
42.879,-0.643,0.799,0.258
42.889,-0.645,0.795,0.260
42.899,-0.645,0.793,0.256
42.909,-0.645,0.795,0.258
42.918,-0.646,0.799,0.260
42.928,-0.645,0.803,0.262
42.938,-0.645,0.791,0.260
42.948,-0.646,0.795,0.264
42.958,-0.646,0.799,0.268
42.968,-0.648,0.795,0.264
42.978,-0.648,0.787,0.258
42.988,-0.652,0.781,0.262
42.998,-0.650,0.785,0.264
43.008,-0.654,0.789,0.266
43.018,-0.656,0.787,0.264
43.028,-0.652,0.787,0.271
43.038,-0.650,0.787,0.268
43.048,-0.650,0.785,0.266
43.058,-0.652,0.781,0.268
43.068,-0.650,0.781,0.270
43.077,-0.654,0.781,0.271
43.087,-0.656,0.779,0.271
43.097,-0.654,0.781,0.270
43.107,-0.656,0.779,0.270
43.117,-0.658,0.779,0.270
43.127,-0.658,0.775,0.270
43.137,-0.656,0.777,0.270
43.147,-0.654,0.777,0.270
43.157,-0.658,0.775,0.268
43.167,-0.660,0.777,0.270
43.177,-0.660,0.775,0.270
43.187,-0.658,0.781,0.271
43.197,-0.662,0.783,0.271
43.207,-0.658,0.787,0.273
43.217,-0.656,0.793,0.273
43.226,-0.658,0.781,0.268
43.236,-0.654,0.773,0.266
43.246,-0.656,0.773,0.268
43.256,-0.652,0.779,0.268
43.266,-0.652,0.781,0.270
43.276,-0.654,0.785,0.270
43.286,-0.660,0.791,0.271
43.296,-0.652,0.789,0.275
43.306,-0.652,0.793,0.275
43.316,-0.648,0.787,0.273
43.326,-0.646,0.785,0.273
43.336,-0.646,0.787,0.271
43.346,-0.645,0.789,0.273
43.356,-0.645,0.791,0.271
43.366,-0.645,0.789,0.275
43.376,-0.646,0.789,0.277
43.385,-0.646,0.791,0.277
43.395,-0.646,0.791,0.277
43.405,-0.646,0.789,0.277
43.415,-0.648,0.787,0.279
43.425,-0.646,0.787,0.277
43.435,-0.646,0.785,0.275
43.445,-0.645,0.787,0.273
43.455,-0.646,0.783,0.277
43.465,-0.646,0.787,0.277
43.475,-0.646,0.787,0.273
43.485,-0.648,0.789,0.277
43.495,-0.646,0.791,0.277
43.505,-0.645,0.789,0.281
43.515,-0.646,0.791,0.281
43.525,-0.648,0.793,0.275
43.535,-0.646,0.791,0.277
43.544,-0.646,0.789,0.277
43.554,-0.646,0.793,0.281
43.564,-0.645,0.791,0.279
43.574,-0.645,0.785,0.281
43.584,-0.646,0.783,0.277
43.594,-0.648,0.783,0.281
43.604,-0.646,0.785,0.283
43.614,-0.646,0.783,0.281
43.624,-0.650,0.783,0.279
43.634,-0.650,0.789,0.283
43.644,-0.650,0.785,0.283
43.654,-0.652,0.779,0.277
43.664,-0.654,0.777,0.277
43.674,-0.656,0.781,0.277
43.684,-0.658,0.787,0.277
43.694,-0.658,0.783,0.283
43.703,-0.654,0.785,0.279
43.713,-0.654,0.783,0.283
43.723,-0.654,0.781,0.279
43.733,-0.652,0.775,0.277
43.743,-0.654,0.779,0.279
43.753,-0.656,0.779,0.281
43.763,-0.654,0.781,0.285
43.773,-0.654,0.779,0.277
43.783,-0.654,0.779,0.277
43.793,-0.656,0.777,0.285
43.803,-0.652,0.781,0.283
43.813,-0.654,0.781,0.281
43.823,-0.652,0.783,0.283
43.833,-0.656,0.783,0.279
43.843,-0.654,0.781,0.281
43.852,-0.656,0.785,0.279
43.862,-0.652,0.785,0.281
43.872,-0.652,0.783,0.277
43.882,-0.652,0.785,0.287
43.892,-0.648,0.793,0.287
43.902,-0.646,0.797,0.287
43.912,-0.641,0.785,0.285
43.922,-0.646,0.781,0.285
43.932,-0.643,0.787,0.283
43.942,-0.645,0.783,0.287
43.952,-0.648,0.785,0.285
43.962,-0.648,0.783,0.285
43.972,-0.646,0.781,0.289
43.982,-0.652,0.785,0.281
43.992,-0.648,0.781,0.285
44.002,-0.648,0.777,0.281
44.011,-0.648,0.771,0.279
44.021,-0.650,0.777,0.277
44.031,-0.650,0.775,0.277
44.041,-0.654,0.779,0.279
44.051,-0.650,0.779,0.281
44.061,-0.648,0.781,0.279
44.071,-0.650,0.781,0.279
44.081,-0.654,0.785,0.277
44.091,-0.652,0.783,0.279
44.101,-0.652,0.787,0.279
44.111,-0.654,0.783,0.283
44.121,-0.652,0.787,0.279
44.131,-0.650,0.789,0.279
44.141,-0.654,0.791,0.279
44.151,-0.652,0.791,0.281
44.161,-0.648,0.785,0.281
44.170,-0.646,0.781,0.277
44.180,-0.648,0.777,0.277
44.190,-0.646,0.771,0.271
44.200,-0.652,0.789,0.279
44.210,-0.658,0.799,0.281
44.220,-0.658,0.787,0.279
44.230,-0.656,0.783,0.277
44.240,-0.652,0.787,0.275
44.250,-0.654,0.787,0.279
44.260,-0.650,0.781,0.273
44.270,-0.652,0.779,0.270
44.280,-0.652,0.777,0.277
44.290,-0.652,0.779,0.275
44.300,-0.654,0.779,0.275
44.310,-0.656,0.783,0.275
44.319,-0.658,0.781,0.277
44.329,-0.658,0.783,0.279
44.339,-0.656,0.787,0.281
44.349,-0.656,0.781,0.279
44.359,-0.656,0.775,0.275
44.369,-0.660,0.775,0.279
44.379,-0.660,0.781,0.275
44.389,-0.656,0.785,0.279
44.399,-0.656,0.787,0.285
44.409,-0.654,0.785,0.285
44.419,-0.652,0.783,0.285
44.429,-0.654,0.781,0.283
44.439,-0.650,0.777,0.287
44.449,-0.654,0.779,0.285
44.459,-0.650,0.781,0.283
44.469,-0.652,0.779,0.285
44.478,-0.654,0.783,0.281
44.488,-0.654,0.785,0.287
44.498,-0.652,0.789,0.287
44.508,-0.654,0.785,0.285
44.518,-0.658,0.783,0.279
44.528,-0.662,0.775,0.277
44.538,-0.664,0.773,0.277
44.548,-0.662,0.777,0.279
44.558,-0.664,0.775,0.277
44.568,-0.682,0.771,0.275
44.578,-0.686,0.775,0.270
44.588,-0.688,0.771,0.275
44.598,-0.686,0.773,0.285
44.608,-0.686,0.783,0.287
44.618,-0.678,0.783,0.287
44.628,-0.672,0.781,0.291
44.637,-0.668,0.781,0.293
44.647,-0.660,0.783,0.291
44.657,-0.656,0.783,0.299
44.667,-0.646,0.787,0.303
44.677,-0.639,0.793,0.303
44.687,-0.635,0.793,0.309
44.697,-0.633,0.785,0.309
44.707,-0.633,0.783,0.309
44.717,-0.635,0.785,0.305
44.727,-0.633,0.785,0.312
44.737,-0.629,0.783,0.311
44.747,-0.623,0.777,0.312
44.757,-0.621,0.775,0.316
44.767,-0.619,0.777,0.314
44.777,-0.619,0.791,0.320
44.787,-0.621,0.797,0.328
44.796,-0.619,0.795,0.330
44.806,-0.615,0.791,0.326
44.816,-0.615,0.791,0.322
44.826,-0.615,0.795,0.330
44.836,-0.615,0.789,0.322
44.846,-0.617,0.785,0.316
44.856,-0.619,0.785,0.324
44.866,-0.621,0.781,0.324
44.876,-0.623,0.787,0.320
44.886,-0.617,0.791,0.322
44.896,-0.617,0.795,0.324
44.906,-0.617,0.797,0.326
44.916,-0.615,0.795,0.328
44.926,-0.611,0.795,0.326
44.936,-0.613,0.795,0.326
44.945,-0.613,0.795,0.326
44.955,-0.613,0.795,0.322
44.965,-0.613,0.795,0.324
44.975,-0.615,0.793,0.324
44.985,-0.615,0.797,0.326
44.995,-0.613,0.795,0.324
45.005,-0.613,0.801,0.326
45.015,-0.615,0.803,0.326
45.025,-0.611,0.803,0.326
45.035,-0.613,0.805,0.326
45.045,-0.615,0.803,0.326
45.055,-0.615,0.803,0.324
45.065,-0.619,0.805,0.322
45.075,-0.623,0.803,0.320
45.085,-0.625,0.799,0.322
45.095,-0.623,0.803,0.326
45.104,-0.629,0.805,0.324
45.114,-0.631,0.795,0.318
45.124,-0.643,0.787,0.311
45.134,-0.650,0.791,0.311
45.144,-0.670,0.779,0.305
45.154,-0.676,0.779,0.303
45.164,-0.682,0.789,0.307
45.174,-0.680,0.791,0.318
45.184,-0.666,0.799,0.322
45.194,-0.658,0.803,0.326
45.204,-0.654,0.805,0.328
45.214,-0.627,0.820,0.334
45.224,-0.613,0.822,0.340
45.234,-0.609,0.818,0.334
45.244,-0.596,0.820,0.330
45.254,-0.574,0.826,0.344
45.263,-0.562,0.826,0.352
45.273,-0.551,0.822,0.344
45.283,-0.525,0.820,0.355
45.293,-0.506,0.824,0.367
45.303,-0.484,0.830,0.367
45.313,-0.471,0.840,0.377
45.323,-0.463,0.844,0.385
45.333,-0.451,0.842,0.391
45.343,-0.436,0.848,0.391
45.353,-0.422,0.842,0.393
45.363,-0.414,0.852,0.400
45.373,-0.404,0.857,0.410
45.383,-0.391,0.857,0.416
45.393,-0.385,0.859,0.416
45.403,-0.377,0.867,0.416
45.412,-0.371,0.879,0.420
45.422,-0.365,0.885,0.424
45.432,-0.359,0.887,0.420
45.442,-0.352,0.889,0.416
45.452,-0.334,0.891,0.418
45.462,-0.324,0.895,0.422
45.472,-0.324,0.896,0.416
45.482,-0.320,0.902,0.416
45.492,-0.314,0.904,0.416
45.502,-0.316,0.906,0.410
45.512,-0.324,0.910,0.408
45.522,-0.324,0.914,0.404
45.532,-0.326,0.912,0.400
45.542,-0.328,0.916,0.393
45.552,-0.326,0.922,0.396
45.562,-0.311,0.930,0.398
45.571,-0.305,0.926,0.396
45.581,-0.303,0.926,0.393
45.591,-0.303,0.926,0.393
45.601,-0.307,0.926,0.387
45.611,-0.305,0.928,0.385
45.621,-0.303,0.936,0.381
45.631,-0.299,0.936,0.385
45.641,-0.295,0.941,0.381
45.651,-0.295,0.955,0.379
45.661,-0.291,0.959,0.379
45.671,-0.293,0.959,0.375
45.681,-0.289,0.965,0.365
45.691,-0.283,0.969,0.354
45.701,-0.275,0.961,0.344
45.711,-0.266,0.945,0.330
45.721,-0.260,0.920,0.311
45.730,-0.268,0.908,0.297
45.740,-0.273,0.895,0.289
45.750,-0.287,0.885,0.283
45.760,-0.312,0.889,0.279
45.770,-0.340,0.889,0.270
45.780,-0.369,0.887,0.268
45.790,-0.402,0.883,0.258
45.800,-0.434,0.873,0.248
45.810,-0.465,0.861,0.232
45.820,-0.496,0.826,0.203
45.830,-0.533,0.783,0.176
45.840,-0.578,0.770,0.166
45.850,-0.617,0.766,0.158
45.860,-0.666,0.768,0.162
45.870,-0.703,0.791,0.166
45.879,-0.725,0.811,0.189
45.889,-0.734,0.828,0.195
45.899,-0.734,0.830,0.195
45.909,-0.744,0.818,0.178
45.919,-0.752,0.812,0.172
45.929,-0.758,0.807,0.168
45.939,-0.764,0.801,0.160
45.949,-0.771,0.787,0.152
45.959,-0.779,0.781,0.145
45.969,-0.781,0.775,0.139
45.979,-0.785,0.768,0.133
45.989,-0.783,0.770,0.131
45.999,-0.783,0.764,0.129
46.009,-0.779,0.764,0.127
46.019,-0.773,0.768,0.129
46.029,-0.770,0.762,0.133
46.038,-0.771,0.760,0.127
46.048,-0.770,0.760,0.131
46.058,-0.770,0.760,0.131
46.068,-0.764,0.764,0.131
46.078,-0.762,0.764,0.137
46.088,-0.758,0.764,0.143
46.098,-0.748,0.768,0.139
46.108,-0.742,0.770,0.141
46.118,-0.734,0.766,0.143
46.128,-0.732,0.764,0.145
46.138,-0.725,0.762,0.146
46.148,-0.727,0.762,0.145
46.158,-0.723,0.760,0.148
46.168,-0.717,0.762,0.150
46.178,-0.711,0.768,0.152
46.188,-0.709,0.771,0.158
46.197,-0.707,0.768,0.160
46.207,-0.707,0.770,0.160
46.217,-0.701,0.768,0.158
46.227,-0.697,0.768,0.164
46.237,-0.699,0.770,0.166
46.247,-0.697,0.773,0.166
46.257,-0.695,0.773,0.174
46.267,-0.688,0.775,0.178
46.277,-0.684,0.779,0.186
46.287,-0.684,0.775,0.184
46.297,-0.682,0.775,0.184
46.307,-0.682,0.775,0.184
46.317,-0.678,0.775,0.188
46.327,-0.678,0.773,0.189
46.337,-0.674,0.770,0.193
46.347,-0.678,0.773,0.193
46.356,-0.674,0.770,0.191
46.366,-0.674,0.766,0.188
46.376,-0.672,0.768,0.199
46.386,-0.670,0.770,0.197
46.396,-0.672,0.771,0.197
46.406,-0.670,0.768,0.195
46.416,-0.674,0.766,0.197
46.426,-0.676,0.771,0.197
46.436,-0.676,0.773,0.201
46.446,-0.678,0.773,0.197
46.456,-0.674,0.771,0.199
46.466,-0.676,0.773,0.199
46.476,-0.678,0.775,0.201
46.486,-0.680,0.773,0.195
46.496,-0.680,0.771,0.193
46.505,-0.680,0.771,0.195
46.515,-0.680,0.771,0.195
46.525,-0.686,0.770,0.193
46.535,-0.688,0.775,0.193
46.545,-0.689,0.775,0.191
46.555,-0.686,0.771,0.189
46.565,-0.686,0.773,0.193
46.575,-0.686,0.771,0.188
46.585,-0.686,0.775,0.188
46.595,-0.689,0.775,0.191
46.605,-0.691,0.777,0.188
46.615,-0.689,0.775,0.186
46.625,-0.688,0.773,0.186
46.635,-0.689,0.773,0.184
46.645,-0.691,0.775,0.184
46.655,-0.693,0.775,0.182
46.664,-0.693,0.775,0.186
46.674,-0.695,0.779,0.182
46.684,-0.695,0.777,0.180
46.694,-0.695,0.771,0.182
46.704,-0.693,0.773,0.180
46.714,-0.691,0.775,0.184
46.724,-0.693,0.779,0.184
46.734,-0.691,0.773,0.182
46.744,-0.689,0.773,0.182
46.754,-0.693,0.781,0.186
46.764,-0.688,0.773,0.180
46.774,-0.688,0.768,0.176
46.784,-0.691,0.766,0.174
46.794,-0.693,0.770,0.178
46.804,-0.693,0.770,0.176
46.814,-0.695,0.768,0.176
46.823,-0.697,0.768,0.172
46.833,-0.697,0.770,0.174
46.843,-0.697,0.770,0.172
46.853,-0.697,0.768,0.170
46.863,-0.701,0.766,0.170
46.873,-0.699,0.764,0.170
46.883,-0.701,0.766,0.168
46.893,-0.707,0.770,0.168
46.903,-0.705,0.770,0.168
46.913,-0.705,0.768,0.170
46.923,-0.703,0.768,0.168
46.933,-0.703,0.766,0.174
46.943,-0.707,0.764,0.174
46.953,-0.709,0.764,0.172
46.963,-0.705,0.768,0.170
46.972,-0.699,0.770,0.172
46.982,-0.701,0.771,0.174
46.992,-0.695,0.770,0.178
47.002,-0.693,0.775,0.176
47.012,-0.693,0.777,0.176
47.022,-0.689,0.775,0.176
47.032,-0.686,0.770,0.170
47.042,-0.688,0.768,0.172
47.052,-0.688,0.770,0.172
47.062,-0.689,0.775,0.170
47.072,-0.689,0.777,0.168
47.082,-0.686,0.777,0.170
47.092,-0.688,0.777,0.170
47.102,-0.688,0.777,0.172
47.112,-0.686,0.777,0.166
47.122,-0.689,0.779,0.166
47.131,-0.689,0.777,0.166
47.141,-0.689,0.777,0.166
47.151,-0.688,0.779,0.162
47.161,-0.689,0.777,0.166
47.171,-0.691,0.781,0.166
47.181,-0.691,0.781,0.166
47.191,-0.689,0.779,0.166
47.201,-0.689,0.777,0.168
47.211,-0.691,0.779,0.166
47.221,-0.693,0.775,0.164
47.231,-0.691,0.775,0.166
47.241,-0.695,0.775,0.164
47.251,-0.693,0.770,0.166
47.261,-0.701,0.770,0.168
47.271,-0.697,0.771,0.166
47.281,-0.701,0.766,0.166
47.290,-0.699,0.762,0.170
47.300,-0.699,0.764,0.168
47.310,-0.701,0.768,0.170
47.320,-0.703,0.768,0.170
47.330,-0.703,0.768,0.170
47.340,-0.701,0.766,0.172
47.350,-0.703,0.764,0.172
47.360,-0.705,0.764,0.168
47.370,-0.701,0.766,0.168
47.380,-0.703,0.764,0.172
47.390,-0.701,0.771,0.172
47.400,-0.701,0.771,0.174
47.410,-0.701,0.773,0.174
47.420,-0.699,0.773,0.176
47.430,-0.699,0.777,0.174
47.440,-0.699,0.773,0.174
47.449,-0.699,0.779,0.174
47.459,-0.697,0.777,0.176
47.469,-0.699,0.775,0.170
47.479,-0.697,0.770,0.168
47.489,-0.697,0.773,0.172
47.499,-0.695,0.777,0.174
47.509,-0.695,0.783,0.178
47.519,-0.689,0.783,0.184
47.529,-0.691,0.789,0.188
47.539,-0.686,0.793,0.191
47.549,-0.680,0.783,0.184
47.559,-0.682,0.773,0.184
47.569,-0.676,0.777,0.186
47.579,-0.676,0.773,0.188
47.589,-0.676,0.781,0.189
47.598,-0.682,0.781,0.191
47.608,-0.678,0.777,0.188
47.618,-0.678,0.779,0.191
47.628,-0.678,0.775,0.191
47.638,-0.678,0.775,0.193
47.648,-0.682,0.773,0.195
47.658,-0.680,0.773,0.193
47.668,-0.684,0.768,0.193
47.678,-0.686,0.770,0.197
47.688,-0.684,0.768,0.195
47.698,-0.684,0.766,0.193
47.708,-0.684,0.766,0.197
47.718,-0.686,0.766,0.193
47.728,-0.686,0.764,0.195
47.738,-0.688,0.766,0.197
47.748,-0.689,0.770,0.197
47.757,-0.693,0.770,0.201
47.767,-0.691,0.771,0.201
47.777,-0.689,0.771,0.199
47.787,-0.691,0.775,0.203
47.797,-0.693,0.779,0.205
47.807,-0.693,0.773,0.201
47.817,-0.695,0.766,0.203
47.827,-0.691,0.766,0.201
47.837,-0.693,0.766,0.205
47.847,-0.693,0.771,0.207
47.857,-0.689,0.766,0.201
47.867,-0.688,0.764,0.203
47.877,-0.689,0.770,0.201
47.887,-0.686,0.770,0.203
47.897,-0.686,0.770,0.207
47.907,-0.686,0.771,0.205
47.916,-0.686,0.768,0.203
47.926,-0.686,0.770,0.203
47.936,-0.686,0.770,0.199
47.946,-0.688,0.768,0.205
47.956,-0.688,0.770,0.201
47.966,-0.689,0.771,0.203
47.976,-0.688,0.771,0.199
47.986,-0.686,0.771,0.201
47.996,-0.684,0.773,0.203
48.006,-0.688,0.773,0.205
48.016,-0.688,0.775,0.201
48.026,-0.689,0.771,0.199
48.036,-0.689,0.771,0.197
48.046,-0.689,0.773,0.201
48.056,-0.691,0.775,0.199
48.065,-0.691,0.775,0.201
48.075,-0.691,0.771,0.201
48.085,-0.695,0.770,0.197
48.095,-0.691,0.770,0.203
48.105,-0.689,0.770,0.201
48.115,-0.689,0.770,0.197
48.125,-0.688,0.771,0.201
48.135,-0.689,0.771,0.203
48.145,-0.689,0.771,0.205
48.155,-0.689,0.773,0.203
48.165,-0.691,0.771,0.203
48.175,-0.691,0.773,0.203
48.185,-0.689,0.773,0.205
48.195,-0.688,0.770,0.203
48.205,-0.689,0.771,0.203
48.215,-0.688,0.770,0.205
48.224,-0.689,0.768,0.205
48.234,-0.688,0.770,0.203
48.244,-0.689,0.771,0.203
48.254,-0.693,0.768,0.201
48.264,-0.695,0.768,0.203
48.274,-0.699,0.768,0.203
48.284,-0.697,0.766,0.201
48.294,-0.701,0.764,0.201
48.304,-0.699,0.770,0.201
48.314,-0.697,0.768,0.203
48.324,-0.699,0.770,0.207
48.334,-0.701,0.771,0.209
48.344,-0.699,0.773,0.207
48.354,-0.701,0.766,0.205
48.364,-0.701,0.764,0.205
48.374,-0.701,0.766,0.209
48.383,-0.699,0.766,0.209
48.393,-0.697,0.768,0.209
48.403,-0.701,0.762,0.209
48.413,-0.699,0.760,0.207
48.423,-0.699,0.764,0.211
48.433,-0.695,0.760,0.209
48.443,-0.697,0.764,0.207
48.453,-0.695,0.760,0.213
48.463,-0.695,0.764,0.207
48.473,-0.693,0.766,0.211
48.483,-0.691,0.766,0.215
48.493,-0.691,0.766,0.211
48.503,-0.689,0.766,0.213
48.513,-0.686,0.758,0.207
48.523,-0.691,0.754,0.203
48.532,-0.693,0.746,0.203
48.542,-0.697,0.750,0.205
48.552,-0.691,0.760,0.215
48.562,-0.691,0.768,0.223
48.572,-0.688,0.775,0.225
48.582,-0.688,0.781,0.225
48.592,-0.680,0.791,0.227
48.602,-0.676,0.797,0.230
48.612,-0.674,0.795,0.225
48.622,-0.672,0.789,0.221
48.632,-0.668,0.789,0.221
48.642,-0.668,0.793,0.223
48.652,-0.666,0.795,0.223
48.662,-0.662,0.793,0.219
48.672,-0.656,0.799,0.225
48.682,-0.652,0.801,0.229
48.691,-0.650,0.801,0.223
48.701,-0.650,0.801,0.223
48.711,-0.643,0.799,0.227
48.721,-0.643,0.803,0.227
48.731,-0.637,0.805,0.230
48.741,-0.633,0.807,0.230
48.751,-0.631,0.811,0.232
48.761,-0.629,0.805,0.229
48.771,-0.631,0.807,0.229
48.781,-0.627,0.803,0.229
48.791,-0.627,0.807,0.225
48.801,-0.631,0.809,0.229
48.811,-0.627,0.809,0.232
48.821,-0.623,0.814,0.234
48.831,-0.623,0.814,0.234
48.841,-0.617,0.814,0.232
48.850,-0.613,0.814,0.234
48.860,-0.613,0.818,0.232
48.870,-0.607,0.814,0.232
48.880,-0.609,0.816,0.230
48.890,-0.613,0.816,0.230
48.900,-0.613,0.814,0.230
48.910,-0.613,0.816,0.229
48.920,-0.615,0.816,0.227
48.930,-0.615,0.814,0.225
48.940,-0.619,0.820,0.227
48.950,-0.619,0.820,0.225
48.960,-0.617,0.822,0.225
48.970,-0.621,0.820,0.225
48.980,-0.617,0.822,0.225
48.990,-0.621,0.822,0.223
49.000,-0.621,0.822,0.223
49.009,-0.621,0.818,0.223
49.019,-0.619,0.818,0.221
49.029,-0.621,0.820,0.223
49.039,-0.619,0.818,0.223
49.049,-0.621,0.818,0.221
49.059,-0.625,0.818,0.221
49.069,-0.623,0.820,0.221
49.079,-0.623,0.820,0.223
49.089,-0.621,0.816,0.223
49.099,-0.619,0.818,0.223
49.109,-0.621,0.818,0.223
49.119,-0.619,0.818,0.221
49.129,-0.615,0.820,0.221
49.139,-0.623,0.824,0.219
49.149,-0.627,0.820,0.219
49.158,-0.625,0.814,0.217
49.168,-0.627,0.814,0.213
49.178,-0.633,0.812,0.215
49.188,-0.629,0.816,0.217
49.198,-0.631,0.814,0.219
49.208,-0.633,0.820,0.217
49.218,-0.631,0.816,0.219
49.228,-0.629,0.814,0.215
49.238,-0.629,0.811,0.215
49.248,-0.633,0.811,0.213
49.258,-0.633,0.811,0.215
49.268,-0.631,0.811,0.211
49.278,-0.633,0.811,0.213
49.288,-0.635,0.814,0.211
49.298,-0.639,0.812,0.211
49.308,-0.639,0.814,0.209
49.317,-0.639,0.812,0.207
49.327,-0.643,0.814,0.209
49.337,-0.639,0.814,0.211
49.347,-0.639,0.814,0.207
49.357,-0.641,0.812,0.209
49.367,-0.637,0.814,0.209
49.377,-0.637,0.814,0.207
49.387,-0.637,0.812,0.209
49.397,-0.639,0.816,0.211
49.407,-0.633,0.818,0.207
49.417,-0.633,0.816,0.207
49.427,-0.637,0.805,0.209
49.437,-0.637,0.807,0.205
49.447,-0.641,0.809,0.207
49.457,-0.643,0.811,0.209
49.467,-0.646,0.812,0.207
49.476,-0.645,0.809,0.205
49.486,-0.648,0.807,0.205
49.496,-0.648,0.803,0.205
49.506,-0.650,0.799,0.201
49.516,-0.652,0.797,0.201
49.526,-0.652,0.803,0.211
49.536,-0.648,0.805,0.207
49.546,-0.652,0.807,0.207
49.556,-0.646,0.811,0.211
49.566,-0.645,0.811,0.209
49.576,-0.645,0.809,0.207
49.586,-0.641,0.811,0.207
49.596,-0.639,0.812,0.207
49.606,-0.639,0.809,0.207
49.616,-0.639,0.809,0.203
49.625,-0.639,0.807,0.203
49.635,-0.639,0.812,0.205
49.645,-0.639,0.814,0.209
49.655,-0.639,0.816,0.205
49.665,-0.635,0.814,0.209
49.675,-0.635,0.820,0.207
49.685,-0.631,0.822,0.211
49.695,-0.625,0.822,0.207
49.705,-0.623,0.824,0.209
49.715,-0.623,0.820,0.207
49.725,-0.623,0.818,0.201
49.735,-0.631,0.816,0.201
49.745,-0.629,0.818,0.203
49.755,-0.629,0.820,0.201
49.765,-0.633,0.824,0.201
49.775,-0.637,0.824,0.207
49.784,-0.637,0.826,0.207
49.794,-0.631,0.830,0.211
49.804,-0.625,0.832,0.211
49.814,-0.621,0.834,0.209
49.824,-0.617,0.832,0.211
49.834,-0.611,0.830,0.207
49.844,-0.600,0.830,0.209
49.854,-0.590,0.830,0.211
49.864,-0.584,0.830,0.209
49.874,-0.586,0.828,0.205
49.884,-0.584,0.828,0.211
49.894,-0.588,0.832,0.209
49.904,-0.588,0.836,0.213
49.914,-0.586,0.840,0.211
49.924,-0.578,0.855,0.215
49.934,-0.572,0.863,0.223
49.943,-0.562,0.869,0.225
49.953,-0.555,0.873,0.223
49.963,-0.551,0.873,0.219
49.973,-0.543,0.871,0.217
49.983,-0.533,0.871,0.211
49.993,-0.529,0.873,0.211
50.003,-0.521,0.877,0.203
50.013,-0.510,0.883,0.211
50.023,-0.504,0.883,0.207
50.033,-0.500,0.887,0.205
50.043,-0.490,0.896,0.213
50.053,-0.482,0.906,0.217
50.063,-0.477,0.912,0.213
50.073,-0.471,0.910,0.209
50.083,-0.467,0.906,0.201
50.093,-0.455,0.910,0.201
50.102,-0.449,0.910,0.203
50.112,-0.445,0.912,0.201
50.122,-0.443,0.914,0.201
50.132,-0.445,0.918,0.199
50.142,-0.445,0.922,0.205
50.152,-0.445,0.920,0.201
50.162,-0.455,0.918,0.193
50.172,-0.449,0.922,0.195
50.182,-0.439,0.926,0.199
50.192,-0.434,0.936,0.201
50.202,-0.428,0.939,0.201
50.212,-0.412,0.938,0.201
50.222,-0.412,0.939,0.203
50.232,-0.404,0.938,0.199
50.242,-0.402,0.936,0.195
50.251,-0.393,0.938,0.195
50.261,-0.387,0.936,0.193
50.271,-0.379,0.939,0.195
50.281,-0.373,0.941,0.193
50.291,-0.365,0.941,0.195
50.301,-0.363,0.943,0.188
50.311,-0.359,0.941,0.186
50.321,-0.350,0.951,0.182
50.331,-0.340,0.947,0.184
50.341,-0.340,0.949,0.182
50.351,-0.346,0.955,0.176
50.361,-0.344,0.951,0.174
50.371,-0.340,0.953,0.176
50.381,-0.338,0.957,0.178
50.391,-0.332,0.965,0.178
50.401,-0.328,0.965,0.176
50.410,-0.324,0.973,0.170
50.420,-0.320,0.971,0.168
50.430,-0.318,0.973,0.166
50.440,-0.312,0.975,0.156
