df_hash,22ZHK4.ZXX6DZ
device,HZ2X61
project_hash,29R7
project_name,istanbul_aydin_university
person_hash,29R7.JBFB
person_label,V65
date_time_start,2025-10-31_16-53-13.121000_+03
date_time_start_unix,1761915193.121
date_time_end,2025-10-31_17-01-29.357000_+03
length_difference_noticed,no

time,acc_x,acc_y,acc_z
4.481,-0.586,0.818,0.061
4.491,-0.586,0.820,0.057
4.501,-0.584,0.820,0.059
4.511,-0.586,0.822,0.061
4.521,-0.588,0.816,0.057
4.531,-0.586,0.818,0.061
4.541,-0.588,0.818,0.061
4.551,-0.586,0.822,0.057
4.561,-0.584,0.820,0.062
4.571,-0.582,0.824,0.057
4.581,-0.582,0.824,0.059
4.591,-0.582,0.820,0.057
4.601,-0.582,0.818,0.059
4.610,-0.582,0.820,0.053
4.620,-0.584,0.826,0.061
4.630,-0.582,0.826,0.057
4.640,-0.582,0.824,0.059
4.650,-0.582,0.816,0.055
4.660,-0.584,0.816,0.057
4.670,-0.584,0.824,0.055
4.680,-0.580,0.824,0.055
4.690,-0.582,0.824,0.061
4.700,-0.578,0.824,0.059
4.710,-0.580,0.824,0.059
4.720,-0.582,0.824,0.057
4.730,-0.580,0.826,0.059
4.740,-0.582,0.820,0.057
4.749,-0.580,0.820,0.057
4.759,-0.582,0.816,0.053
4.769,-0.582,0.816,0.053
4.779,-0.582,0.820,0.055
4.789,-0.582,0.820,0.059
4.799,-0.584,0.820,0.055
4.809,-0.582,0.822,0.057
4.819,-0.584,0.824,0.059
4.829,-0.586,0.822,0.057
4.839,-0.584,0.824,0.059
4.849,-0.580,0.822,0.053
4.859,-0.584,0.818,0.055
4.869,-0.584,0.816,0.055
4.879,-0.580,0.820,0.057
4.889,-0.582,0.822,0.055
4.898,-0.582,0.826,0.057
4.908,-0.580,0.826,0.053
4.918,-0.582,0.824,0.059
4.928,-0.582,0.824,0.055
4.938,-0.582,0.824,0.057
4.948,-0.584,0.826,0.055
4.958,-0.584,0.820,0.057
4.968,-0.584,0.822,0.059
4.978,-0.582,0.820,0.055
4.988,-0.582,0.820,0.055
4.998,-0.580,0.822,0.061
5.008,-0.586,0.822,0.059
5.018,-0.586,0.820,0.061
5.028,-0.582,0.818,0.062
5.037,-0.584,0.818,0.059
5.047,-0.590,0.820,0.059
5.057,-0.586,0.816,0.059
5.067,-0.590,0.818,0.061
5.077,-0.590,0.818,0.057
5.087,-0.588,0.818,0.059
5.097,-0.590,0.824,0.059
5.107,-0.588,0.822,0.061
5.117,-0.582,0.826,0.059
5.127,-0.582,0.824,0.061
5.137,-0.580,0.820,0.057
5.147,-0.582,0.820,0.059
5.157,-0.580,0.820,0.061
5.167,-0.580,0.820,0.062
5.177,-0.582,0.818,0.055
5.186,-0.582,0.820,0.059
5.196,-0.590,0.822,0.061
5.206,-0.590,0.818,0.059
5.216,-0.590,0.818,0.057
5.226,-0.590,0.820,0.059
5.236,-0.588,0.824,0.059
5.246,-0.590,0.820,0.057
5.256,-0.588,0.822,0.057
5.266,-0.584,0.822,0.062
5.276,-0.584,0.820,0.061
5.286,-0.582,0.818,0.057
5.296,-0.584,0.820,0.064
5.306,-0.584,0.824,0.061
5.316,-0.580,0.824,0.061
5.325,-0.578,0.816,0.057
5.335,-0.582,0.822,0.062
5.345,-0.582,0.822,0.059
5.355,-0.582,0.824,0.062
5.365,-0.584,0.822,0.059
5.375,-0.586,0.822,0.055
5.385,-0.590,0.824,0.059
5.395,-0.586,0.822,0.057
5.405,-0.588,0.824,0.057
5.415,-0.584,0.818,0.062
5.425,-0.586,0.822,0.061
5.435,-0.584,0.822,0.061
5.445,-0.582,0.818,0.059
5.455,-0.584,0.818,0.059
5.465,-0.582,0.816,0.059
5.474,-0.582,0.820,0.059
5.484,-0.582,0.820,0.057
5.494,-0.580,0.820,0.061
5.504,-0.580,0.820,0.062
5.514,-0.582,0.818,0.061
5.524,-0.582,0.822,0.057
5.534,-0.586,0.818,0.057
5.544,-0.586,0.820,0.059
5.554,-0.584,0.824,0.057
5.564,-0.586,0.822,0.059
5.574,-0.584,0.822,0.059
5.584,-0.584,0.824,0.057
5.594,-0.586,0.822,0.057
5.604,-0.586,0.822,0.059
5.613,-0.584,0.820,0.055
5.623,-0.582,0.824,0.062
5.633,-0.582,0.826,0.057
5.643,-0.580,0.822,0.059
5.653,-0.576,0.818,0.059
5.663,-0.576,0.816,0.055
5.673,-0.580,0.826,0.059
5.683,-0.584,0.828,0.061
5.693,-0.580,0.824,0.061
5.703,-0.580,0.824,0.057
5.713,-0.580,0.822,0.059
5.723,-0.580,0.820,0.057
5.733,-0.582,0.820,0.059
5.743,-0.582,0.826,0.059
5.753,-0.584,0.822,0.057
5.762,-0.584,0.822,0.061
5.772,-0.586,0.824,0.061
5.782,-0.582,0.818,0.059
5.792,-0.582,0.820,0.059
5.802,-0.582,0.818,0.057
5.812,-0.586,0.816,0.059
5.822,-0.582,0.822,0.059
5.832,-0.582,0.820,0.064
5.842,-0.582,0.822,0.062
5.852,-0.582,0.818,0.061
5.862,-0.584,0.816,0.059
5.872,-0.584,0.820,0.059
5.882,-0.584,0.816,0.059
5.892,-0.588,0.818,0.059
5.901,-0.584,0.824,0.057
5.911,-0.582,0.824,0.055
5.921,-0.582,0.822,0.057
5.931,-0.580,0.826,0.055
5.941,-0.580,0.826,0.057
5.951,-0.584,0.822,0.059
5.961,-0.580,0.824,0.059
5.971,-0.580,0.824,0.059
5.981,-0.580,0.822,0.059
5.991,-0.584,0.820,0.059
6.001,-0.580,0.822,0.059
6.011,-0.582,0.820,0.059
6.021,-0.584,0.820,0.059
6.031,-0.584,0.822,0.061
6.041,-0.584,0.826,0.059
6.050,-0.586,0.822,0.061
6.060,-0.588,0.820,0.062
6.070,-0.588,0.818,0.061
6.080,-0.584,0.818,0.057
6.090,-0.584,0.820,0.061
6.100,-0.582,0.822,0.059
6.110,-0.586,0.824,0.061
6.120,-0.582,0.822,0.062
6.130,-0.582,0.824,0.061
6.140,-0.582,0.822,0.062
6.150,-0.580,0.822,0.061
6.160,-0.578,0.824,0.062
6.170,-0.580,0.822,0.061
6.180,-0.582,0.822,0.061
6.189,-0.582,0.822,0.059
6.199,-0.584,0.820,0.061
6.209,-0.586,0.820,0.059
6.219,-0.588,0.822,0.059
6.229,-0.588,0.820,0.057
6.239,-0.586,0.822,0.057
6.249,-0.586,0.824,0.061
6.259,-0.584,0.822,0.062
6.269,-0.580,0.822,0.062
6.279,-0.580,0.816,0.061
6.289,-0.580,0.822,0.064
6.299,-0.584,0.824,0.062
6.309,-0.580,0.822,0.062
6.319,-0.576,0.820,0.061
6.329,-0.582,0.820,0.064
6.338,-0.584,0.822,0.068
6.348,-0.582,0.820,0.059
6.358,-0.582,0.818,0.061
6.368,-0.582,0.820,0.059
6.378,-0.588,0.824,0.062
6.388,-0.592,0.828,0.061
6.398,-0.586,0.826,0.064
6.408,-0.584,0.824,0.061
6.418,-0.584,0.822,0.062
6.428,-0.582,0.820,0.061
6.438,-0.582,0.816,0.062
6.448,-0.582,0.816,0.059
6.458,-0.578,0.818,0.059
6.468,-0.584,0.818,0.062
6.477,-0.578,0.822,0.061
6.487,-0.578,0.824,0.064
6.497,-0.580,0.826,0.062
6.507,-0.578,0.822,0.061
6.517,-0.586,0.816,0.059
6.527,-0.582,0.818,0.061
6.537,-0.582,0.820,0.057
6.547,-0.582,0.822,0.062
6.557,-0.584,0.824,0.059
6.567,-0.584,0.822,0.059
6.577,-0.584,0.826,0.061
6.587,-0.586,0.824,0.061
6.597,-0.584,0.824,0.061
6.607,-0.586,0.822,0.061
6.617,-0.582,0.820,0.055
6.626,-0.584,0.828,0.061
6.636,-0.574,0.824,0.059
6.646,-0.574,0.822,0.057
6.656,-0.578,0.818,0.057
6.666,-0.578,0.826,0.057
6.676,-0.580,0.828,0.066
6.686,-0.578,0.826,0.061
6.696,-0.578,0.824,0.057
6.706,-0.578,0.826,0.061
6.716,-0.580,0.828,0.057
6.726,-0.580,0.826,0.059
6.736,-0.578,0.822,0.059
6.746,-0.578,0.824,0.061
6.756,-0.582,0.822,0.059
6.765,-0.580,0.818,0.057
6.775,-0.582,0.824,0.059
6.785,-0.580,0.822,0.061
6.795,-0.582,0.822,0.059
6.805,-0.584,0.822,0.062
6.815,-0.584,0.824,0.061
6.825,-0.586,0.826,0.059
6.835,-0.582,0.824,0.062
6.845,-0.582,0.820,0.057
6.855,-0.582,0.820,0.057
6.865,-0.586,0.818,0.055
6.875,-0.580,0.814,0.057
6.885,-0.586,0.820,0.057
6.895,-0.584,0.824,0.059
6.905,-0.584,0.826,0.059
6.914,-0.580,0.824,0.057
6.924,-0.582,0.826,0.059
6.934,-0.582,0.820,0.057
6.944,-0.582,0.824,0.062
6.954,-0.584,0.820,0.057
6.964,-0.578,0.824,0.059
6.974,-0.580,0.822,0.059
6.984,-0.580,0.820,0.059
6.994,-0.584,0.822,0.062
7.004,-0.582,0.826,0.057
7.014,-0.580,0.824,0.057
7.024,-0.582,0.828,0.059
7.034,-0.582,0.826,0.059
7.044,-0.580,0.820,0.057
7.053,-0.576,0.820,0.061
7.063,-0.578,0.818,0.057
7.073,-0.578,0.824,0.061
7.083,-0.580,0.824,0.057
7.093,-0.580,0.824,0.061
7.103,-0.578,0.824,0.055
7.113,-0.578,0.822,0.061
7.123,-0.578,0.822,0.057
7.133,-0.578,0.822,0.053
7.143,-0.578,0.826,0.053
7.153,-0.578,0.824,0.057
7.163,-0.580,0.826,0.057
7.173,-0.578,0.828,0.057
7.183,-0.580,0.828,0.053
7.192,-0.582,0.826,0.053
7.202,-0.582,0.822,0.051
7.212,-0.584,0.828,0.055
7.222,-0.582,0.826,0.055
7.232,-0.582,0.824,0.055
7.242,-0.582,0.822,0.051
7.252,-0.578,0.820,0.055
7.262,-0.580,0.822,0.055
7.272,-0.576,0.826,0.057
7.282,-0.576,0.820,0.055
7.292,-0.580,0.820,0.055
7.302,-0.584,0.830,0.057
7.312,-0.584,0.830,0.057
7.322,-0.582,0.822,0.059
7.332,-0.586,0.818,0.051
7.341,-0.588,0.818,0.051
7.351,-0.588,0.824,0.051
7.361,-0.586,0.822,0.057
7.371,-0.584,0.822,0.055
7.381,-0.584,0.820,0.055
7.391,-0.582,0.822,0.057
7.401,-0.584,0.824,0.057
7.411,-0.580,0.818,0.055
7.421,-0.584,0.816,0.057
7.431,-0.584,0.814,0.055
7.441,-0.582,0.818,0.055
7.451,-0.586,0.818,0.055
7.461,-0.584,0.822,0.055
7.471,-0.584,0.822,0.053
7.480,-0.582,0.822,0.053
7.490,-0.584,0.822,0.057
7.500,-0.588,0.826,0.055
7.510,-0.590,0.824,0.051
7.520,-0.584,0.822,0.053
7.530,-0.584,0.820,0.051
7.540,-0.584,0.820,0.049
7.550,-0.586,0.824,0.049
7.560,-0.586,0.826,0.053
7.570,-0.584,0.820,0.053
7.580,-0.580,0.828,0.053
7.590,-0.582,0.826,0.057
7.600,-0.576,0.818,0.055
7.610,-0.580,0.812,0.053
7.620,-0.582,0.814,0.047
7.629,-0.582,0.822,0.051
7.639,-0.580,0.830,0.053
7.649,-0.580,0.830,0.059
7.659,-0.582,0.828,0.055
7.669,-0.582,0.826,0.051
7.679,-0.580,0.818,0.051
7.689,-0.582,0.820,0.053
7.699,-0.582,0.820,0.051
7.709,-0.582,0.822,0.051
7.719,-0.584,0.822,0.053
7.729,-0.582,0.822,0.055
7.739,-0.582,0.822,0.055
7.749,-0.584,0.820,0.049
7.759,-0.586,0.818,0.053
7.768,-0.586,0.818,0.055
7.778,-0.586,0.822,0.055
7.788,-0.584,0.820,0.053
7.798,-0.588,0.814,0.051
7.808,-0.586,0.818,0.051
7.818,-0.590,0.818,0.053
7.828,-0.588,0.818,0.049
7.838,-0.588,0.820,0.049
7.848,-0.588,0.818,0.051
7.858,-0.588,0.820,0.053
7.868,-0.586,0.822,0.049
7.878,-0.588,0.818,0.051
7.888,-0.588,0.822,0.053
7.898,-0.588,0.822,0.051
7.908,-0.586,0.818,0.053
7.917,-0.590,0.818,0.053
7.927,-0.586,0.818,0.049
7.937,-0.588,0.818,0.051
7.947,-0.586,0.820,0.053
7.957,-0.588,0.822,0.053
7.967,-0.588,0.818,0.057
7.977,-0.586,0.818,0.051
7.987,-0.588,0.824,0.051
7.997,-0.586,0.822,0.055
8.007,-0.588,0.820,0.057
8.017,-0.586,0.822,0.053
8.027,-0.586,0.818,0.051
8.037,-0.584,0.816,0.053
8.047,-0.586,0.816,0.055
8.056,-0.586,0.814,0.055
8.066,-0.588,0.822,0.053
8.076,-0.590,0.824,0.057
8.086,-0.586,0.826,0.053
8.096,-0.582,0.820,0.051
8.106,-0.584,0.818,0.053
8.116,-0.584,0.816,0.055
8.126,-0.580,0.807,0.055
8.136,-0.580,0.820,0.053
8.146,-0.582,0.824,0.055
8.156,-0.580,0.824,0.051
8.166,-0.580,0.828,0.053
8.176,-0.584,0.836,0.051
8.186,-0.580,0.830,0.049
8.196,-0.584,0.826,0.051
8.205,-0.588,0.818,0.053
8.215,-0.590,0.822,0.051
8.225,-0.588,0.826,0.055
8.235,-0.590,0.824,0.057
8.245,-0.588,0.820,0.053
8.255,-0.588,0.814,0.053
8.265,-0.586,0.814,0.051
8.275,-0.588,0.818,0.055
8.285,-0.592,0.818,0.055
8.295,-0.586,0.816,0.051
8.305,-0.586,0.820,0.055
8.315,-0.588,0.820,0.055
8.325,-0.586,0.822,0.055
8.335,-0.588,0.818,0.055
8.344,-0.584,0.816,0.057
8.354,-0.584,0.818,0.059
8.364,-0.586,0.816,0.057
8.374,-0.588,0.820,0.055
8.384,-0.590,0.824,0.059
8.394,-0.590,0.824,0.057
8.404,-0.590,0.822,0.055
8.414,-0.592,0.822,0.059
8.424,-0.592,0.818,0.057
8.434,-0.588,0.812,0.057
8.444,-0.584,0.814,0.059
8.454,-0.586,0.826,0.059
8.464,-0.588,0.818,0.059
8.474,-0.584,0.816,0.061
8.484,-0.584,0.816,0.053
8.493,-0.582,0.824,0.061
8.503,-0.586,0.820,0.057
8.513,-0.582,0.814,0.057
8.523,-0.586,0.822,0.057
8.533,-0.588,0.824,0.053
8.543,-0.588,0.828,0.055
8.553,-0.586,0.826,0.053
8.563,-0.586,0.822,0.055
8.573,-0.586,0.820,0.053
8.583,-0.588,0.816,0.053
8.593,-0.584,0.822,0.051
8.603,-0.582,0.822,0.055
8.613,-0.584,0.824,0.055
8.623,-0.584,0.818,0.055
8.632,-0.584,0.822,0.057
8.642,-0.586,0.822,0.055
8.652,-0.588,0.822,0.055
8.662,-0.588,0.818,0.057
8.672,-0.588,0.816,0.055
8.682,-0.588,0.814,0.057
8.692,-0.588,0.816,0.053
8.702,-0.590,0.820,0.055
8.712,-0.592,0.828,0.053
8.722,-0.588,0.824,0.059
8.732,-0.588,0.818,0.055
8.742,-0.588,0.818,0.059
8.752,-0.590,0.812,0.053
8.762,-0.594,0.816,0.053
8.772,-0.596,0.818,0.053
8.781,-0.594,0.822,0.055
8.791,-0.590,0.818,0.057
8.801,-0.590,0.820,0.057
8.811,-0.590,0.820,0.059
8.821,-0.592,0.818,0.059
8.831,-0.588,0.814,0.055
8.841,-0.588,0.814,0.055
8.851,-0.590,0.814,0.057
8.861,-0.588,0.811,0.057
8.871,-0.586,0.816,0.055
8.881,-0.588,0.820,0.055
8.891,-0.584,0.824,0.055
8.901,-0.586,0.820,0.055
8.911,-0.588,0.826,0.057
8.920,-0.588,0.824,0.057
8.930,-0.588,0.818,0.053
8.940,-0.586,0.814,0.051
8.950,-0.590,0.818,0.055
8.960,-0.592,0.828,0.057
8.970,-0.588,0.830,0.061
8.980,-0.584,0.824,0.062
8.990,-0.582,0.820,0.061
9.000,-0.580,0.811,0.057
9.010,-0.580,0.809,0.057
9.020,-0.584,0.812,0.061
9.030,-0.586,0.814,0.061
9.040,-0.588,0.822,0.059
9.050,-0.586,0.814,0.055
9.060,-0.582,0.816,0.059
9.069,-0.586,0.822,0.059
9.079,-0.586,0.818,0.057
9.089,-0.586,0.822,0.059
9.099,-0.582,0.820,0.053
9.109,-0.582,0.824,0.051
9.119,-0.584,0.824,0.059
9.129,-0.580,0.822,0.053
9.139,-0.584,0.828,0.057
9.149,-0.584,0.828,0.053
9.159,-0.586,0.832,0.053
9.169,-0.586,0.828,0.055
9.179,-0.580,0.822,0.057
9.189,-0.578,0.820,0.059
9.199,-0.580,0.828,0.055
9.208,-0.576,0.820,0.053
9.218,-0.580,0.816,0.049
9.228,-0.582,0.820,0.051
9.238,-0.582,0.830,0.051
9.248,-0.578,0.830,0.051
9.258,-0.574,0.830,0.055
9.268,-0.580,0.828,0.053
9.278,-0.576,0.826,0.049
9.288,-0.580,0.828,0.049
9.298,-0.580,0.820,0.047
9.308,-0.580,0.820,0.047
9.318,-0.582,0.818,0.045
9.328,-0.578,0.820,0.045
9.338,-0.578,0.824,0.047
9.348,-0.580,0.828,0.045
9.357,-0.578,0.826,0.045
9.367,-0.578,0.826,0.045
9.377,-0.578,0.824,0.047
9.387,-0.578,0.822,0.047
9.397,-0.580,0.818,0.049
9.407,-0.578,0.820,0.045
9.417,-0.578,0.822,0.047
9.427,-0.574,0.820,0.047
9.437,-0.578,0.820,0.047
9.447,-0.578,0.822,0.047
9.457,-0.578,0.828,0.049
9.467,-0.580,0.830,0.049
9.477,-0.582,0.824,0.049
9.487,-0.584,0.824,0.045
9.496,-0.586,0.824,0.045
9.506,-0.590,0.824,0.049
9.516,-0.586,0.824,0.049
9.526,-0.586,0.820,0.047
9.536,-0.580,0.820,0.043
9.546,-0.580,0.820,0.041
9.556,-0.580,0.824,0.043
9.566,-0.582,0.830,0.045
9.576,-0.576,0.828,0.047
9.586,-0.574,0.822,0.047
9.596,-0.574,0.830,0.043
9.606,-0.574,0.828,0.041
9.616,-0.578,0.826,0.041
9.626,-0.578,0.820,0.037
9.636,-0.578,0.828,0.041
9.645,-0.582,0.832,0.043
9.655,-0.578,0.832,0.041
9.665,-0.576,0.824,0.041
9.675,-0.574,0.822,0.039
9.685,-0.576,0.820,0.039
9.695,-0.576,0.820,0.039
9.705,-0.580,0.824,0.035
9.715,-0.580,0.824,0.039
9.725,-0.580,0.818,0.035
9.735,-0.582,0.826,0.039
9.745,-0.580,0.828,0.043
9.755,-0.578,0.826,0.041
9.765,-0.580,0.824,0.043
9.775,-0.582,0.820,0.041
9.784,-0.582,0.818,0.043
9.794,-0.584,0.820,0.039
9.804,-0.586,0.824,0.041
9.814,-0.586,0.828,0.041
9.824,-0.588,0.824,0.043
9.834,-0.590,0.826,0.041
9.844,-0.590,0.824,0.041
9.854,-0.590,0.820,0.041
9.864,-0.588,0.814,0.041
9.874,-0.582,0.816,0.039
9.884,-0.584,0.822,0.041
9.894,-0.582,0.820,0.039
9.904,-0.582,0.814,0.039
9.914,-0.584,0.820,0.039
9.924,-0.584,0.832,0.041
9.933,-0.586,0.828,0.037
9.943,-0.580,0.828,0.039
9.953,-0.580,0.824,0.039
9.963,-0.578,0.824,0.043
9.973,-0.578,0.826,0.039
9.983,-0.580,0.824,0.037
9.993,-0.580,0.824,0.043
10.003,-0.578,0.824,0.043
10.013,-0.580,0.822,0.041
10.023,-0.582,0.822,0.039
10.033,-0.586,0.822,0.041
10.043,-0.582,0.824,0.045
10.053,-0.582,0.820,0.045
10.063,-0.584,0.820,0.043
10.072,-0.586,0.818,0.043
10.082,-0.586,0.818,0.043
10.092,-0.588,0.814,0.039
10.102,-0.588,0.812,0.041
10.112,-0.588,0.816,0.037
10.122,-0.586,0.824,0.041
10.132,-0.586,0.824,0.041
10.142,-0.588,0.822,0.041
10.152,-0.586,0.820,0.039
10.162,-0.592,0.826,0.039
10.172,-0.588,0.824,0.039
10.182,-0.588,0.828,0.041
10.192,-0.588,0.822,0.043
10.202,-0.582,0.820,0.043
10.212,-0.586,0.824,0.043
10.221,-0.584,0.830,0.047
10.231,-0.580,0.828,0.045
10.241,-0.578,0.824,0.049
10.251,-0.574,0.826,0.051
10.261,-0.570,0.826,0.047
10.271,-0.572,0.826,0.045
10.281,-0.566,0.820,0.045
10.291,-0.568,0.820,0.047
10.301,-0.572,0.836,0.053
10.311,-0.576,0.832,0.045
10.321,-0.580,0.826,0.043
10.331,-0.588,0.822,0.045
10.341,-0.596,0.830,0.047
10.351,-0.592,0.832,0.053
10.360,-0.586,0.824,0.053
10.370,-0.584,0.824,0.055
10.380,-0.586,0.818,0.057
10.390,-0.584,0.812,0.057
10.400,-0.582,0.807,0.059
10.410,-0.584,0.807,0.055
10.420,-0.586,0.812,0.057
10.430,-0.586,0.814,0.057
10.440,-0.582,0.818,0.061
10.450,-0.584,0.816,0.057
10.460,-0.590,0.820,0.059
10.470,-0.590,0.824,0.061
10.480,-0.590,0.818,0.061
10.490,-0.590,0.818,0.062
10.500,-0.586,0.820,0.064
10.509,-0.580,0.820,0.066
10.519,-0.582,0.814,0.062
10.529,-0.586,0.820,0.064
10.539,-0.588,0.820,0.064
10.549,-0.588,0.820,0.062
10.559,-0.592,0.824,0.066
10.569,-0.590,0.816,0.068
10.579,-0.590,0.822,0.070
10.589,-0.592,0.824,0.068
10.599,-0.580,0.811,0.064
10.609,-0.586,0.803,0.059
10.619,-0.590,0.803,0.061
10.629,-0.596,0.816,0.062
10.639,-0.594,0.824,0.066
10.648,-0.590,0.826,0.064
10.658,-0.588,0.828,0.064
10.668,-0.586,0.820,0.064
10.678,-0.588,0.820,0.064
10.688,-0.582,0.812,0.062
10.698,-0.576,0.809,0.066
10.708,-0.576,0.809,0.066
10.718,-0.582,0.811,0.066
10.728,-0.586,0.816,0.066
10.738,-0.592,0.822,0.068
10.748,-0.592,0.822,0.066
10.758,-0.594,0.822,0.064
10.768,-0.594,0.820,0.062
10.778,-0.596,0.811,0.064
10.787,-0.598,0.811,0.064
10.797,-0.600,0.811,0.064
10.807,-0.596,0.809,0.061
10.817,-0.596,0.814,0.062
10.827,-0.596,0.811,0.059
10.837,-0.594,0.812,0.057
10.847,-0.590,0.816,0.059
10.857,-0.590,0.812,0.062
10.867,-0.592,0.816,0.059
10.877,-0.588,0.820,0.057
10.887,-0.586,0.818,0.055
10.897,-0.588,0.816,0.059
10.907,-0.590,0.820,0.059
10.917,-0.590,0.820,0.057
10.927,-0.588,0.820,0.055
10.936,-0.592,0.818,0.053
10.946,-0.592,0.820,0.053
10.956,-0.594,0.820,0.051
10.966,-0.592,0.826,0.051
10.976,-0.596,0.820,0.057
10.986,-0.594,0.822,0.057
10.996,-0.590,0.816,0.055
11.006,-0.596,0.811,0.061
11.016,-0.594,0.818,0.055
11.026,-0.598,0.818,0.055
11.036,-0.598,0.818,0.055
11.046,-0.598,0.818,0.055
11.056,-0.596,0.812,0.053
11.066,-0.600,0.814,0.055
11.075,-0.596,0.812,0.055
11.085,-0.596,0.816,0.055
11.095,-0.596,0.814,0.053
11.105,-0.596,0.816,0.055
11.115,-0.596,0.814,0.055
11.125,-0.592,0.814,0.055
11.135,-0.596,0.816,0.057
11.145,-0.592,0.818,0.055
11.155,-0.592,0.816,0.059
11.165,-0.594,0.814,0.055
11.175,-0.590,0.814,0.057
11.185,-0.590,0.814,0.055
11.195,-0.590,0.814,0.053
11.205,-0.596,0.812,0.057
11.215,-0.598,0.814,0.055
11.224,-0.600,0.811,0.053
11.234,-0.598,0.818,0.057
11.244,-0.598,0.818,0.051
11.254,-0.598,0.818,0.053
11.264,-0.596,0.814,0.051
11.274,-0.594,0.814,0.055
11.284,-0.594,0.811,0.049
11.294,-0.594,0.807,0.051
11.304,-0.596,0.818,0.051
11.314,-0.592,0.814,0.051
11.324,-0.588,0.816,0.053
11.334,-0.590,0.820,0.053
11.344,-0.586,0.822,0.053
11.354,-0.590,0.814,0.051
11.363,-0.594,0.814,0.049
11.373,-0.600,0.822,0.051
11.383,-0.594,0.818,0.049
11.393,-0.594,0.820,0.047
11.403,-0.596,0.814,0.045
11.413,-0.594,0.818,0.049
11.423,-0.596,0.816,0.051
11.433,-0.596,0.812,0.053
11.443,-0.596,0.811,0.047
11.453,-0.594,0.807,0.047
11.463,-0.594,0.811,0.047
11.473,-0.594,0.812,0.051
11.483,-0.596,0.816,0.051
11.493,-0.596,0.816,0.047
11.503,-0.594,0.816,0.051
11.512,-0.596,0.816,0.047
11.522,-0.594,0.811,0.049
11.532,-0.596,0.814,0.045
11.542,-0.594,0.816,0.047
11.552,-0.596,0.822,0.045
11.562,-0.594,0.822,0.047
11.572,-0.596,0.820,0.041
11.582,-0.598,0.818,0.043
11.592,-0.596,0.824,0.045
11.602,-0.594,0.818,0.039
11.612,-0.590,0.816,0.043
11.622,-0.590,0.822,0.045
11.632,-0.586,0.822,0.049
11.642,-0.582,0.816,0.045
11.651,-0.584,0.811,0.043
11.661,-0.586,0.816,0.049
11.671,-0.590,0.828,0.043
11.681,-0.592,0.824,0.045
11.691,-0.588,0.822,0.045
11.701,-0.588,0.826,0.043
11.711,-0.586,0.820,0.047
11.721,-0.586,0.822,0.045
11.731,-0.584,0.820,0.045
11.741,-0.584,0.824,0.045
11.751,-0.582,0.824,0.043
11.761,-0.580,0.820,0.043
11.771,-0.580,0.820,0.039
11.781,-0.578,0.822,0.043
11.791,-0.582,0.824,0.043
11.800,-0.582,0.828,0.039
11.810,-0.580,0.828,0.043
11.820,-0.582,0.826,0.041
11.830,-0.580,0.824,0.043
11.840,-0.580,0.822,0.039
11.850,-0.584,0.818,0.039
11.860,-0.582,0.824,0.045
11.870,-0.580,0.824,0.043
11.880,-0.580,0.826,0.041
11.890,-0.578,0.822,0.039
11.900,-0.578,0.822,0.039
11.910,-0.582,0.824,0.041
11.920,-0.578,0.824,0.041
11.930,-0.582,0.824,0.039
11.939,-0.582,0.826,0.043
11.949,-0.584,0.826,0.043
11.959,-0.582,0.828,0.041
11.969,-0.580,0.824,0.043
11.979,-0.584,0.822,0.041
11.989,-0.586,0.824,0.041
11.999,-0.586,0.820,0.041
12.009,-0.584,0.820,0.043
12.019,-0.582,0.822,0.041
12.029,-0.584,0.822,0.043
12.039,-0.584,0.824,0.047
12.049,-0.586,0.822,0.041
12.059,-0.582,0.826,0.043
12.069,-0.582,0.822,0.041
12.079,-0.582,0.820,0.043
12.088,-0.580,0.820,0.043
12.098,-0.578,0.820,0.039
12.108,-0.582,0.824,0.039
12.118,-0.578,0.826,0.045
12.128,-0.576,0.826,0.047
12.138,-0.576,0.828,0.043
12.148,-0.580,0.826,0.045
12.158,-0.582,0.820,0.045
12.168,-0.586,0.824,0.041
12.178,-0.586,0.822,0.043
12.188,-0.588,0.822,0.045
12.198,-0.588,0.820,0.041
12.208,-0.586,0.816,0.041
12.218,-0.584,0.820,0.041
12.227,-0.586,0.824,0.043
12.237,-0.584,0.824,0.041
12.247,-0.584,0.826,0.045
12.257,-0.582,0.822,0.045
12.267,-0.584,0.824,0.043
12.277,-0.582,0.820,0.043
12.287,-0.578,0.816,0.043
12.297,-0.582,0.820,0.045
12.307,-0.582,0.822,0.049
12.317,-0.580,0.824,0.047
12.327,-0.580,0.824,0.045
12.337,-0.582,0.824,0.047
12.347,-0.580,0.820,0.045
12.357,-0.584,0.816,0.041
12.367,-0.586,0.818,0.041
12.376,-0.590,0.820,0.045
12.386,-0.586,0.828,0.045
12.396,-0.588,0.828,0.047
12.406,-0.586,0.824,0.043
12.416,-0.582,0.818,0.043
12.426,-0.582,0.820,0.045
12.436,-0.582,0.826,0.043
12.446,-0.584,0.822,0.041
12.456,-0.588,0.818,0.043
12.466,-0.586,0.818,0.045
12.476,-0.584,0.822,0.045
12.486,-0.586,0.826,0.049
12.496,-0.586,0.822,0.049
12.506,-0.586,0.820,0.049
12.515,-0.588,0.818,0.049
12.525,-0.590,0.814,0.049
12.535,-0.590,0.816,0.047
12.545,-0.592,0.820,0.047
12.555,-0.592,0.818,0.049
12.565,-0.590,0.822,0.047
12.575,-0.584,0.820,0.049
12.585,-0.590,0.822,0.051
12.595,-0.588,0.822,0.045
12.605,-0.588,0.818,0.049
12.615,-0.586,0.818,0.049
12.625,-0.584,0.826,0.049
12.635,-0.578,0.822,0.053
12.645,-0.580,0.816,0.049
12.655,-0.578,0.812,0.051
12.664,-0.582,0.820,0.051
12.674,-0.584,0.824,0.053
12.684,-0.584,0.824,0.051
12.694,-0.586,0.824,0.047
12.704,-0.586,0.826,0.047
12.714,-0.584,0.824,0.045
12.724,-0.586,0.822,0.045
12.734,-0.586,0.820,0.043
12.744,-0.582,0.822,0.047
12.754,-0.580,0.818,0.045
12.764,-0.582,0.816,0.049
12.774,-0.588,0.818,0.047
12.784,-0.590,0.818,0.045
12.794,-0.588,0.818,0.045
12.803,-0.590,0.824,0.045
12.813,-0.584,0.824,0.045
12.823,-0.588,0.820,0.045
12.833,-0.586,0.822,0.047
12.843,-0.586,0.812,0.047
12.853,-0.584,0.820,0.047
12.863,-0.588,0.818,0.045
12.873,-0.588,0.816,0.045
12.883,-0.588,0.822,0.045
12.893,-0.586,0.826,0.049
12.903,-0.586,0.820,0.049
12.913,-0.586,0.820,0.047
12.923,-0.586,0.820,0.047
12.933,-0.586,0.816,0.047
12.943,-0.588,0.818,0.047
12.952,-0.586,0.820,0.049
12.962,-0.586,0.822,0.047
12.972,-0.588,0.818,0.049
12.982,-0.588,0.820,0.045
12.992,-0.588,0.818,0.049
13.002,-0.588,0.822,0.047
13.012,-0.590,0.820,0.049
13.022,-0.590,0.818,0.045
13.032,-0.586,0.820,0.045
13.042,-0.586,0.814,0.045
13.052,-0.590,0.822,0.045
13.062,-0.590,0.822,0.047
13.072,-0.590,0.820,0.045
13.082,-0.592,0.818,0.045
13.091,-0.590,0.822,0.045
13.101,-0.586,0.820,0.041
13.111,-0.588,0.822,0.045
13.121,-0.588,0.818,0.045
13.131,-0.584,0.822,0.045
13.141,-0.586,0.822,0.045
13.151,-0.584,0.822,0.047
13.161,-0.584,0.822,0.045
13.171,-0.584,0.820,0.045
13.181,-0.586,0.822,0.043
13.191,-0.578,0.822,0.045
13.201,-0.580,0.822,0.043
13.211,-0.582,0.822,0.043
13.221,-0.578,0.824,0.043
13.231,-0.584,0.824,0.043
13.240,-0.586,0.822,0.045
13.250,-0.588,0.824,0.047
13.260,-0.586,0.820,0.045
13.270,-0.586,0.818,0.043
13.280,-0.588,0.820,0.045
13.290,-0.588,0.824,0.043
13.300,-0.584,0.824,0.043
13.310,-0.586,0.822,0.043
13.320,-0.586,0.816,0.047
13.330,-0.588,0.820,0.049
13.340,-0.586,0.824,0.045
13.350,-0.584,0.820,0.047
13.360,-0.582,0.824,0.043
13.370,-0.584,0.822,0.049
13.379,-0.578,0.822,0.043
13.389,-0.582,0.820,0.045
13.399,-0.582,0.816,0.043
13.409,-0.586,0.820,0.045
13.419,-0.584,0.826,0.045
13.429,-0.584,0.828,0.043
13.439,-0.586,0.824,0.045
13.449,-0.588,0.820,0.043
13.459,-0.586,0.820,0.047
13.469,-0.588,0.814,0.043
13.479,-0.588,0.814,0.043
13.489,-0.588,0.814,0.043
13.499,-0.588,0.818,0.045
13.509,-0.592,0.820,0.043
13.519,-0.588,0.820,0.047
13.528,-0.586,0.820,0.045
13.538,-0.586,0.818,0.043
13.548,-0.586,0.820,0.047
13.558,-0.586,0.818,0.049
13.568,-0.586,0.820,0.043
13.578,-0.586,0.820,0.045
13.588,-0.590,0.822,0.047
13.598,-0.588,0.818,0.047
13.608,-0.590,0.820,0.043
13.618,-0.588,0.818,0.045
13.628,-0.596,0.816,0.045
13.638,-0.596,0.820,0.043
13.648,-0.594,0.818,0.045
13.658,-0.590,0.818,0.047
13.667,-0.590,0.824,0.047
13.677,-0.584,0.818,0.043
13.687,-0.582,0.812,0.043
13.697,-0.584,0.816,0.043
13.707,-0.584,0.822,0.051
13.717,-0.586,0.824,0.043
13.727,-0.584,0.822,0.045
13.737,-0.584,0.824,0.041
13.747,-0.580,0.828,0.047
13.757,-0.584,0.826,0.045
13.767,-0.580,0.826,0.045
13.777,-0.582,0.824,0.043
13.787,-0.582,0.820,0.043
13.797,-0.582,0.816,0.045
13.807,-0.590,0.818,0.041
13.816,-0.586,0.818,0.043
13.826,-0.588,0.818,0.037
13.836,-0.590,0.820,0.039
13.846,-0.592,0.820,0.045
13.856,-0.590,0.824,0.041
13.866,-0.592,0.820,0.045
13.876,-0.588,0.818,0.043
13.886,-0.588,0.818,0.043
13.896,-0.588,0.816,0.045
13.906,-0.588,0.816,0.043
13.916,-0.592,0.818,0.043
13.926,-0.586,0.818,0.045
13.936,-0.588,0.820,0.045
13.946,-0.590,0.820,0.041
13.955,-0.590,0.824,0.039
13.965,-0.590,0.820,0.043
13.975,-0.592,0.824,0.043
13.985,-0.590,0.824,0.043
13.995,-0.586,0.818,0.045
14.005,-0.588,0.820,0.045
14.015,-0.588,0.818,0.047
14.025,-0.586,0.816,0.041
14.035,-0.586,0.816,0.045
14.045,-0.590,0.816,0.041
14.055,-0.590,0.818,0.043
14.065,-0.590,0.818,0.043
14.075,-0.592,0.818,0.043
14.085,-0.594,0.818,0.043
14.095,-0.590,0.820,0.045
14.104,-0.592,0.818,0.043
14.114,-0.588,0.816,0.043
14.124,-0.588,0.816,0.045
14.134,-0.588,0.816,0.045
14.144,-0.586,0.820,0.043
14.154,-0.588,0.820,0.047
14.164,-0.590,0.826,0.047
14.174,-0.586,0.826,0.047
14.184,-0.586,0.822,0.043
14.194,-0.588,0.820,0.047
14.204,-0.584,0.818,0.045
14.214,-0.588,0.816,0.045
14.224,-0.586,0.822,0.047
14.234,-0.586,0.816,0.047
14.243,-0.588,0.818,0.047
14.253,-0.588,0.822,0.045
14.263,-0.588,0.822,0.045
14.273,-0.590,0.820,0.045
14.283,-0.590,0.818,0.043
14.293,-0.590,0.822,0.045
14.303,-0.584,0.822,0.043
14.313,-0.586,0.818,0.041
14.323,-0.580,0.818,0.047
14.333,-0.586,0.824,0.045
14.343,-0.584,0.824,0.047
14.353,-0.584,0.822,0.049
14.363,-0.586,0.818,0.049
14.373,-0.588,0.822,0.043
14.383,-0.584,0.824,0.049
14.392,-0.586,0.818,0.045
14.402,-0.590,0.818,0.043
14.412,-0.596,0.822,0.045
14.422,-0.594,0.824,0.047
14.432,-0.594,0.820,0.043
14.442,-0.590,0.816,0.047
14.452,-0.592,0.814,0.047
14.462,-0.592,0.814,0.047
14.472,-0.590,0.812,0.051
14.482,-0.588,0.814,0.049
14.492,-0.588,0.814,0.047
14.502,-0.590,0.814,0.045
14.512,-0.586,0.818,0.049
14.522,-0.582,0.818,0.049
14.531,-0.584,0.820,0.049
14.541,-0.586,0.820,0.047
14.551,-0.586,0.820,0.049
14.561,-0.590,0.820,0.047
14.571,-0.588,0.816,0.047
14.581,-0.590,0.816,0.045
14.591,-0.588,0.820,0.043
14.601,-0.590,0.820,0.047
14.611,-0.590,0.820,0.043
14.621,-0.592,0.818,0.049
14.631,-0.594,0.822,0.047
14.641,-0.592,0.818,0.045
14.651,-0.588,0.818,0.045
14.661,-0.586,0.826,0.045
14.670,-0.584,0.822,0.045
14.680,-0.576,0.816,0.045
14.690,-0.580,0.812,0.043
14.700,-0.580,0.818,0.047
14.710,-0.584,0.828,0.045
14.720,-0.584,0.828,0.049
14.730,-0.582,0.826,0.047
14.740,-0.584,0.822,0.043
14.750,-0.584,0.822,0.047
14.760,-0.584,0.816,0.045
14.770,-0.584,0.820,0.043
14.780,-0.584,0.820,0.049
14.790,-0.586,0.822,0.049
14.800,-0.584,0.822,0.047
14.810,-0.584,0.818,0.045
14.819,-0.588,0.820,0.045
14.829,-0.584,0.816,0.047
14.839,-0.588,0.818,0.047
14.849,-0.590,0.820,0.047
14.859,-0.588,0.820,0.049
14.869,-0.586,0.820,0.049
14.879,-0.588,0.820,0.045
14.889,-0.590,0.816,0.045
14.899,-0.588,0.818,0.045
14.909,-0.586,0.818,0.043
14.919,-0.590,0.818,0.045
14.929,-0.588,0.820,0.041
14.939,-0.588,0.820,0.045
14.949,-0.588,0.818,0.043
14.958,-0.588,0.822,0.045
14.968,-0.588,0.820,0.045
14.978,-0.588,0.822,0.045
14.988,-0.588,0.820,0.045
14.998,-0.586,0.820,0.045
15.008,-0.588,0.818,0.045
15.018,-0.590,0.818,0.049
15.028,-0.588,0.818,0.047
15.038,-0.588,0.818,0.045
15.048,-0.590,0.820,0.045
15.058,-0.586,0.822,0.047
15.068,-0.588,0.820,0.049
15.078,-0.586,0.820,0.047
15.088,-0.590,0.820,0.049
15.098,-0.588,0.822,0.051
15.107,-0.588,0.818,0.047
15.117,-0.586,0.820,0.051
15.127,-0.586,0.818,0.047
15.137,-0.588,0.818,0.047
15.147,-0.588,0.816,0.045
15.157,-0.588,0.818,0.047
15.167,-0.590,0.818,0.051
15.177,-0.586,0.820,0.043
15.187,-0.586,0.822,0.049
15.197,-0.584,0.822,0.043
15.207,-0.584,0.820,0.045
15.217,-0.586,0.818,0.043
15.227,-0.584,0.822,0.045
15.237,-0.586,0.824,0.045
15.246,-0.584,0.820,0.039
15.256,-0.586,0.824,0.045
15.266,-0.588,0.824,0.045
15.276,-0.586,0.822,0.047
15.286,-0.582,0.816,0.043
15.296,-0.582,0.818,0.043
15.306,-0.584,0.824,0.045
15.316,-0.588,0.826,0.047
15.326,-0.580,0.822,0.049
15.336,-0.580,0.820,0.047
15.346,-0.582,0.820,0.049
15.356,-0.582,0.822,0.047
15.366,-0.584,0.820,0.047
15.376,-0.586,0.822,0.041
15.386,-0.590,0.824,0.043
15.395,-0.592,0.824,0.045
15.405,-0.586,0.824,0.047
15.415,-0.588,0.822,0.047
15.425,-0.586,0.818,0.045
15.435,-0.586,0.818,0.049
15.445,-0.588,0.816,0.049
15.455,-0.590,0.814,0.045
15.465,-0.588,0.816,0.043
15.475,-0.588,0.816,0.043
15.485,-0.588,0.820,0.047
15.495,-0.588,0.822,0.047
15.505,-0.586,0.822,0.047
15.515,-0.584,0.822,0.047
15.525,-0.584,0.820,0.043
15.534,-0.586,0.822,0.043
15.544,-0.588,0.822,0.043
15.554,-0.590,0.820,0.045
15.564,-0.588,0.820,0.045
15.574,-0.590,0.820,0.045
15.584,-0.590,0.822,0.045
15.594,-0.590,0.822,0.045
15.604,-0.590,0.822,0.045
15.614,-0.586,0.822,0.041
15.624,-0.590,0.820,0.047
15.634,-0.586,0.828,0.047
15.644,-0.584,0.826,0.047
15.654,-0.576,0.820,0.049
15.664,-0.578,0.811,0.047
15.674,-0.580,0.811,0.043
15.683,-0.584,0.820,0.047
15.693,-0.588,0.822,0.049
15.703,-0.584,0.828,0.047
15.713,-0.586,0.824,0.045
15.723,-0.584,0.826,0.047
15.733,-0.586,0.826,0.049
15.743,-0.588,0.824,0.047
15.753,-0.586,0.822,0.045
15.763,-0.584,0.818,0.047
15.773,-0.586,0.822,0.047
15.783,-0.584,0.820,0.047
15.793,-0.588,0.818,0.045
15.803,-0.584,0.816,0.047
15.813,-0.588,0.818,0.043
15.822,-0.588,0.822,0.045
15.832,-0.590,0.826,0.045
15.842,-0.588,0.822,0.047
15.852,-0.590,0.820,0.045
15.862,-0.590,0.820,0.039
15.872,-0.588,0.818,0.043
15.882,-0.584,0.816,0.045
15.892,-0.586,0.816,0.043
15.902,-0.586,0.822,0.045
15.912,-0.590,0.820,0.045
15.922,-0.588,0.822,0.047
15.932,-0.592,0.820,0.047
15.942,-0.592,0.820,0.047
15.952,-0.592,0.818,0.047
15.962,-0.588,0.816,0.041
15.971,-0.590,0.816,0.043
15.981,-0.594,0.818,0.045
15.991,-0.592,0.814,0.045
16.001,-0.588,0.816,0.049
16.011,-0.590,0.816,0.049
16.021,-0.590,0.816,0.047
16.031,-0.590,0.816,0.047
16.041,-0.592,0.818,0.049
16.051,-0.590,0.818,0.049
16.061,-0.590,0.818,0.051
16.071,-0.586,0.820,0.049
16.081,-0.588,0.820,0.053
16.091,-0.586,0.818,0.047
16.101,-0.586,0.824,0.045
16.110,-0.590,0.822,0.047
16.120,-0.590,0.820,0.045
16.130,-0.590,0.820,0.047
16.140,-0.592,0.820,0.045
16.150,-0.590,0.818,0.045
16.160,-0.590,0.818,0.047
16.170,-0.586,0.820,0.045
16.180,-0.592,0.820,0.047
16.190,-0.586,0.818,0.043
16.200,-0.592,0.818,0.045
16.210,-0.590,0.822,0.043
16.220,-0.592,0.820,0.043
16.230,-0.592,0.820,0.045
16.240,-0.590,0.820,0.045
16.250,-0.588,0.822,0.045
16.259,-0.586,0.816,0.043
16.269,-0.584,0.812,0.047
16.279,-0.584,0.822,0.049
16.289,-0.584,0.826,0.047
16.299,-0.586,0.822,0.043
16.309,-0.584,0.818,0.045
16.319,-0.582,0.822,0.049
16.329,-0.584,0.824,0.047
16.339,-0.582,0.816,0.047
16.349,-0.588,0.816,0.047
16.359,-0.588,0.820,0.047
16.369,-0.590,0.824,0.049
16.379,-0.590,0.822,0.043
16.389,-0.590,0.818,0.045
16.398,-0.590,0.820,0.043
16.408,-0.586,0.818,0.045
16.418,-0.588,0.818,0.045
16.428,-0.590,0.818,0.043
16.438,-0.588,0.818,0.045
16.448,-0.586,0.818,0.045
16.458,-0.588,0.820,0.045
16.468,-0.584,0.820,0.045
16.478,-0.586,0.824,0.049
16.488,-0.582,0.824,0.047
16.498,-0.584,0.822,0.047
16.508,-0.590,0.820,0.047
16.518,-0.588,0.820,0.045
16.528,-0.588,0.814,0.049
16.538,-0.588,0.818,0.047
16.547,-0.590,0.820,0.045
16.557,-0.590,0.824,0.049
16.567,-0.592,0.820,0.047
16.577,-0.590,0.820,0.047
16.587,-0.588,0.816,0.049
16.597,-0.584,0.824,0.051
16.607,-0.588,0.826,0.053
16.617,-0.576,0.818,0.051
16.627,-0.578,0.816,0.053
16.637,-0.580,0.811,0.049
16.647,-0.580,0.818,0.053
16.657,-0.586,0.824,0.053
16.667,-0.584,0.826,0.053
16.677,-0.586,0.822,0.051
16.686,-0.586,0.824,0.051
16.696,-0.586,0.824,0.049
16.706,-0.588,0.820,0.051
16.716,-0.586,0.824,0.049
16.726,-0.588,0.818,0.055
16.736,-0.588,0.816,0.049
16.746,-0.586,0.820,0.053
16.756,-0.588,0.816,0.049
16.766,-0.586,0.818,0.047
16.776,-0.588,0.816,0.051
16.786,-0.590,0.816,0.049
16.796,-0.588,0.820,0.049
16.806,-0.590,0.820,0.053
16.816,-0.588,0.822,0.051
16.826,-0.590,0.818,0.051
16.835,-0.592,0.816,0.047
16.845,-0.590,0.816,0.047
16.855,-0.588,0.818,0.047
16.865,-0.586,0.818,0.051
16.875,-0.588,0.822,0.049
16.885,-0.588,0.820,0.049
16.895,-0.584,0.824,0.047
16.905,-0.590,0.822,0.051
16.915,-0.588,0.820,0.051
16.925,-0.592,0.818,0.049
16.935,-0.590,0.818,0.047
16.945,-0.590,0.820,0.051
16.955,-0.588,0.818,0.049
16.965,-0.586,0.820,0.049
16.974,-0.590,0.820,0.051
16.984,-0.588,0.818,0.049
16.994,-0.590,0.820,0.051
17.004,-0.590,0.820,0.049
17.014,-0.588,0.822,0.053
17.024,-0.590,0.822,0.051
17.034,-0.586,0.822,0.049
17.044,-0.588,0.820,0.053
17.054,-0.586,0.820,0.055
17.064,-0.588,0.816,0.049
17.074,-0.584,0.818,0.051
17.084,-0.588,0.820,0.049
17.094,-0.588,0.822,0.051
17.104,-0.590,0.820,0.049
17.114,-0.586,0.820,0.049
17.123,-0.592,0.822,0.051
17.133,-0.590,0.822,0.047
17.143,-0.586,0.820,0.047
17.153,-0.588,0.818,0.049
17.163,-0.590,0.822,0.049
17.173,-0.588,0.820,0.051
17.183,-0.588,0.824,0.049
17.193,-0.590,0.820,0.047
17.203,-0.588,0.822,0.051
17.213,-0.588,0.820,0.051
17.223,-0.588,0.822,0.049
17.233,-0.586,0.814,0.049
17.243,-0.588,0.816,0.049
17.253,-0.588,0.822,0.049
17.262,-0.584,0.822,0.049
17.272,-0.580,0.818,0.049
17.282,-0.586,0.822,0.049
17.292,-0.588,0.822,0.051
17.302,-0.588,0.816,0.051
17.312,-0.590,0.814,0.049
17.322,-0.594,0.822,0.047
17.332,-0.592,0.826,0.047
17.342,-0.590,0.826,0.051
17.352,-0.588,0.824,0.049
17.362,-0.586,0.818,0.047
17.372,-0.588,0.822,0.049
17.382,-0.588,0.820,0.047
17.392,-0.588,0.814,0.049
17.402,-0.592,0.812,0.051
17.411,-0.590,0.814,0.051
17.421,-0.590,0.814,0.047
17.431,-0.588,0.816,0.049
17.441,-0.584,0.822,0.047
17.451,-0.586,0.820,0.053
17.461,-0.584,0.822,0.049
17.471,-0.584,0.820,0.049
17.481,-0.590,0.820,0.051
17.491,-0.588,0.814,0.051
17.501,-0.592,0.820,0.053
17.511,-0.592,0.822,0.049
17.521,-0.586,0.822,0.047
17.531,-0.586,0.822,0.053
17.541,-0.588,0.826,0.051
17.550,-0.586,0.820,0.051
17.560,-0.580,0.818,0.049
17.570,-0.582,0.828,0.055
17.580,-0.578,0.822,0.051
17.590,-0.584,0.816,0.053
17.600,-0.580,0.812,0.049
17.610,-0.584,0.818,0.049
17.620,-0.582,0.824,0.053
17.630,-0.588,0.826,0.051
17.640,-0.584,0.826,0.051
17.650,-0.588,0.824,0.053
17.660,-0.584,0.822,0.049
17.670,-0.586,0.822,0.047
17.680,-0.590,0.818,0.049
17.690,-0.588,0.816,0.049
17.699,-0.588,0.816,0.047
17.709,-0.588,0.820,0.051
17.719,-0.588,0.822,0.047
17.729,-0.586,0.822,0.051
17.739,-0.584,0.822,0.047
17.749,-0.588,0.820,0.045
17.759,-0.586,0.820,0.049
17.769,-0.588,0.818,0.055
17.779,-0.590,0.818,0.051
17.789,-0.590,0.814,0.051
17.799,-0.592,0.816,0.047
17.809,-0.592,0.816,0.047
17.819,-0.594,0.816,0.047
17.829,-0.592,0.820,0.051
17.838,-0.592,0.822,0.053
17.848,-0.592,0.818,0.055
17.858,-0.590,0.818,0.047
17.868,-0.590,0.820,0.051
17.878,-0.592,0.818,0.053
17.888,-0.590,0.818,0.049
17.898,-0.590,0.820,0.047
17.908,-0.588,0.822,0.053
17.918,-0.588,0.822,0.045
17.928,-0.588,0.822,0.053
17.938,-0.592,0.818,0.049
17.948,-0.586,0.818,0.053
17.958,-0.592,0.818,0.053
17.968,-0.588,0.816,0.049
17.978,-0.588,0.822,0.049
17.987,-0.592,0.816,0.049
17.997,-0.590,0.818,0.051
18.007,-0.586,0.820,0.053
18.017,-0.588,0.824,0.051
18.027,-0.588,0.820,0.051
18.037,-0.588,0.822,0.049
18.047,-0.588,0.822,0.051
18.057,-0.586,0.816,0.053
18.067,-0.586,0.814,0.051
18.077,-0.586,0.820,0.047
18.087,-0.588,0.820,0.053
18.097,-0.586,0.822,0.049
18.107,-0.590,0.824,0.055
18.117,-0.586,0.820,0.053
18.126,-0.588,0.822,0.053
18.136,-0.590,0.816,0.047
18.146,-0.588,0.816,0.049
18.156,-0.588,0.816,0.049
18.166,-0.588,0.816,0.053
18.176,-0.590,0.814,0.051
18.186,-0.588,0.816,0.051
18.196,-0.590,0.824,0.051
18.206,-0.588,0.826,0.053
18.216,-0.582,0.824,0.053
18.226,-0.586,0.818,0.049
18.236,-0.588,0.824,0.055
18.246,-0.584,0.818,0.051
18.256,-0.588,0.816,0.045
18.266,-0.592,0.818,0.051
18.275,-0.596,0.824,0.047
18.285,-0.592,0.826,0.053
18.295,-0.592,0.824,0.053
18.305,-0.592,0.820,0.051
18.315,-0.592,0.816,0.051
18.325,-0.590,0.812,0.051
18.335,-0.592,0.811,0.051
18.345,-0.588,0.811,0.049
18.355,-0.592,0.811,0.049
18.365,-0.592,0.816,0.051
18.375,-0.594,0.820,0.053
18.385,-0.592,0.824,0.053
18.395,-0.590,0.820,0.051
18.405,-0.586,0.822,0.049
18.414,-0.590,0.816,0.049
18.424,-0.590,0.818,0.049
18.434,-0.590,0.820,0.049
18.444,-0.592,0.822,0.047
18.454,-0.592,0.820,0.049
18.464,-0.592,0.822,0.047
18.474,-0.590,0.820,0.047
18.484,-0.590,0.818,0.047
18.494,-0.592,0.814,0.051
18.504,-0.588,0.816,0.049
18.514,-0.588,0.830,0.051
18.524,-0.588,0.822,0.053
18.534,-0.580,0.818,0.051
18.544,-0.580,0.816,0.047
18.553,-0.580,0.816,0.051
18.563,-0.582,0.820,0.047
18.573,-0.586,0.824,0.047
18.583,-0.584,0.822,0.049
18.593,-0.584,0.820,0.051
18.603,-0.586,0.820,0.049
18.613,-0.584,0.824,0.049
18.623,-0.590,0.824,0.049
18.633,-0.586,0.820,0.049
18.643,-0.590,0.820,0.049
18.653,-0.586,0.818,0.051
18.663,-0.588,0.822,0.047
18.673,-0.588,0.822,0.045
18.683,-0.588,0.816,0.049
18.693,-0.588,0.818,0.051
18.702,-0.592,0.818,0.051
18.712,-0.590,0.818,0.053
18.722,-0.592,0.820,0.051
18.732,-0.592,0.818,0.051
18.742,-0.590,0.814,0.049
18.752,-0.592,0.814,0.047
18.762,-0.590,0.816,0.047
18.772,-0.592,0.818,0.051
18.782,-0.590,0.820,0.045
18.792,-0.592,0.822,0.047
18.802,-0.592,0.824,0.047
18.812,-0.592,0.820,0.049
18.822,-0.590,0.818,0.049
18.832,-0.590,0.818,0.049
18.841,-0.588,0.816,0.049
18.851,-0.588,0.818,0.047
18.861,-0.588,0.818,0.051
18.871,-0.588,0.820,0.051
18.881,-0.588,0.818,0.053
18.891,-0.588,0.822,0.051
18.901,-0.588,0.816,0.051
18.911,-0.592,0.816,0.049
18.921,-0.590,0.818,0.047
18.931,-0.594,0.814,0.051
18.941,-0.590,0.818,0.051
18.951,-0.592,0.820,0.045
18.961,-0.590,0.818,0.049
18.971,-0.588,0.818,0.053
18.981,-0.586,0.818,0.055
18.990,-0.584,0.822,0.051
19.000,-0.588,0.816,0.053
19.010,-0.588,0.818,0.051
19.020,-0.588,0.818,0.051
19.030,-0.590,0.820,0.049
19.040,-0.588,0.818,0.049
19.050,-0.592,0.818,0.047
19.060,-0.588,0.820,0.047
19.070,-0.588,0.824,0.053
19.080,-0.586,0.822,0.051
19.090,-0.588,0.822,0.053
19.100,-0.590,0.824,0.049
19.110,-0.586,0.818,0.051
19.120,-0.588,0.816,0.049
19.129,-0.588,0.812,0.049
19.139,-0.590,0.816,0.047
19.149,-0.586,0.820,0.049
19.159,-0.586,0.820,0.051
19.169,-0.588,0.822,0.049
19.179,-0.586,0.824,0.051
19.189,-0.590,0.820,0.045
19.199,-0.592,0.816,0.047
19.209,-0.596,0.814,0.047
19.219,-0.596,0.822,0.045
19.229,-0.594,0.822,0.051
19.239,-0.592,0.822,0.047
19.249,-0.590,0.820,0.049
19.259,-0.590,0.818,0.049
19.269,-0.588,0.812,0.051
19.278,-0.594,0.812,0.049
19.288,-0.596,0.812,0.047
19.298,-0.594,0.811,0.047
19.308,-0.596,0.816,0.051
19.318,-0.594,0.816,0.045
19.328,-0.590,0.820,0.051
19.338,-0.588,0.818,0.049
19.348,-0.588,0.822,0.051
19.358,-0.588,0.818,0.049
19.368,-0.594,0.814,0.047
19.378,-0.592,0.812,0.047
19.388,-0.594,0.816,0.049
19.398,-0.592,0.820,0.045
19.408,-0.594,0.820,0.049
19.417,-0.592,0.824,0.047
19.427,-0.588,0.826,0.045
19.437,-0.592,0.822,0.047
19.447,-0.584,0.818,0.049
19.457,-0.588,0.830,0.051
19.467,-0.584,0.822,0.049
19.477,-0.582,0.814,0.047
19.487,-0.582,0.812,0.045
19.497,-0.586,0.812,0.047
19.507,-0.586,0.822,0.049
19.517,-0.586,0.824,0.045
19.527,-0.586,0.826,0.047
19.537,-0.586,0.828,0.047
19.547,-0.590,0.824,0.049
19.557,-0.588,0.816,0.051
19.566,-0.588,0.820,0.049
19.576,-0.586,0.818,0.047
19.586,-0.586,0.818,0.049
19.596,-0.586,0.820,0.047
19.606,-0.588,0.818,0.051
19.616,-0.588,0.818,0.045
19.626,-0.588,0.818,0.047
19.636,-0.588,0.818,0.049
19.646,-0.590,0.818,0.049
19.656,-0.590,0.818,0.047
19.666,-0.588,0.818,0.047
19.676,-0.592,0.820,0.043
19.686,-0.592,0.818,0.049
19.696,-0.594,0.820,0.047
19.705,-0.592,0.816,0.047
19.715,-0.592,0.818,0.045
19.725,-0.592,0.814,0.047
19.735,-0.590,0.816,0.049
19.745,-0.592,0.818,0.049
19.755,-0.592,0.818,0.049
19.765,-0.596,0.816,0.049
19.775,-0.594,0.818,0.049
19.785,-0.594,0.816,0.045
19.795,-0.596,0.818,0.051
19.805,-0.594,0.820,0.053
19.815,-0.594,0.818,0.051
19.825,-0.596,0.816,0.053
19.835,-0.592,0.818,0.053
19.845,-0.592,0.814,0.051
19.854,-0.590,0.820,0.051
19.864,-0.588,0.818,0.049
19.874,-0.588,0.820,0.053
19.884,-0.586,0.820,0.051
19.894,-0.588,0.820,0.051
19.904,-0.588,0.820,0.051
19.914,-0.592,0.816,0.053
19.924,-0.592,0.818,0.051
19.934,-0.590,0.818,0.053
19.944,-0.590,0.818,0.053
19.954,-0.590,0.816,0.053
19.964,-0.592,0.816,0.053
19.974,-0.592,0.814,0.051
19.984,-0.592,0.818,0.049
19.993,-0.592,0.820,0.051
20.003,-0.592,0.822,0.049
20.013,-0.588,0.820,0.049
20.023,-0.586,0.820,0.053
20.033,-0.588,0.820,0.051
20.043,-0.586,0.818,0.049
20.053,-0.586,0.812,0.045
20.063,-0.588,0.820,0.051
20.073,-0.594,0.824,0.049
20.083,-0.584,0.822,0.047
20.093,-0.586,0.822,0.051
20.103,-0.584,0.822,0.049
20.113,-0.588,0.824,0.051
20.123,-0.588,0.820,0.051
20.133,-0.590,0.816,0.051
20.142,-0.594,0.816,0.049
20.152,-0.592,0.820,0.051
20.162,-0.594,0.824,0.051
20.172,-0.592,0.820,0.049
20.182,-0.588,0.820,0.049
20.192,-0.592,0.820,0.051
20.202,-0.592,0.816,0.049
20.212,-0.590,0.812,0.051
20.222,-0.590,0.811,0.049
20.232,-0.590,0.816,0.045
20.242,-0.594,0.814,0.049
20.252,-0.590,0.816,0.047
20.262,-0.592,0.820,0.049
20.272,-0.590,0.824,0.049
20.281,-0.586,0.824,0.047
20.291,-0.586,0.820,0.047
20.301,-0.588,0.822,0.047
20.311,-0.588,0.820,0.051
20.321,-0.590,0.820,0.047
20.331,-0.586,0.822,0.051
20.341,-0.586,0.826,0.049
20.351,-0.582,0.826,0.045
20.361,-0.586,0.820,0.047
20.371,-0.578,0.822,0.049
20.381,-0.584,0.826,0.051
20.391,-0.584,0.826,0.049
20.401,-0.574,0.822,0.047
20.411,-0.576,0.822,0.045
20.421,-0.576,0.818,0.047
20.430,-0.576,0.820,0.045
20.440,-0.572,0.822,0.049
20.450,-0.576,0.828,0.049
20.460,-0.574,0.832,0.045
20.470,-0.572,0.832,0.049
20.480,-0.572,0.828,0.049
20.490,-0.574,0.830,0.051
20.500,-0.578,0.830,0.049
20.510,-0.576,0.830,0.051
20.520,-0.574,0.830,0.051
20.530,-0.572,0.832,0.051
20.540,-0.568,0.828,0.045
20.550,-0.568,0.828,0.049
20.560,-0.568,0.828,0.045
20.569,-0.574,0.832,0.049
20.579,-0.570,0.836,0.047
20.589,-0.566,0.838,0.049
20.599,-0.566,0.838,0.049
20.609,-0.561,0.830,0.051
20.619,-0.561,0.836,0.047
20.629,-0.557,0.834,0.049
20.639,-0.557,0.840,0.045
20.649,-0.557,0.838,0.043
20.659,-0.557,0.844,0.041
20.669,-0.551,0.846,0.043
20.679,-0.547,0.842,0.041
20.689,-0.539,0.844,0.041
20.699,-0.539,0.846,0.039
20.709,-0.539,0.848,0.037
20.718,-0.539,0.852,0.043
20.728,-0.537,0.857,0.041
20.738,-0.535,0.857,0.039
20.748,-0.525,0.857,0.041
20.758,-0.520,0.854,0.043
20.768,-0.512,0.857,0.041
20.778,-0.512,0.859,0.047
20.788,-0.512,0.865,0.045
20.798,-0.504,0.863,0.043
20.808,-0.506,0.859,0.043
20.818,-0.510,0.863,0.043
20.828,-0.514,0.867,0.037
20.838,-0.510,0.865,0.035
20.848,-0.508,0.867,0.035
20.857,-0.508,0.867,0.033
20.867,-0.504,0.867,0.033
20.877,-0.500,0.865,0.035
20.887,-0.498,0.865,0.027
20.897,-0.498,0.867,0.033
20.907,-0.498,0.873,0.033
20.917,-0.496,0.871,0.033
20.927,-0.500,0.877,0.031
20.937,-0.500,0.877,0.029
20.947,-0.496,0.875,0.029
20.957,-0.496,0.875,0.025
20.967,-0.498,0.873,0.023
20.977,-0.498,0.879,0.021
20.987,-0.498,0.879,0.027
20.997,-0.490,0.877,0.027
21.006,-0.490,0.875,0.025
21.016,-0.490,0.875,0.027
21.026,-0.488,0.883,0.027
21.036,-0.486,0.881,0.027
21.046,-0.486,0.885,0.025
21.056,-0.488,0.885,0.025
21.066,-0.488,0.881,0.027
21.076,-0.486,0.883,0.027
21.086,-0.479,0.877,0.023
21.096,-0.475,0.861,0.023
21.106,-0.475,0.857,0.020
21.116,-0.484,0.859,0.023
21.126,-0.488,0.865,0.023
21.136,-0.494,0.875,0.023
21.145,-0.498,0.877,0.023
21.155,-0.498,0.881,0.021
21.165,-0.494,0.871,0.023
21.175,-0.492,0.873,0.020
21.185,-0.488,0.873,0.023
21.195,-0.492,0.875,0.023
21.205,-0.496,0.867,0.021
21.215,-0.496,0.865,0.014
21.225,-0.498,0.873,0.018
21.235,-0.496,0.873,0.023
21.245,-0.490,0.877,0.021
21.255,-0.484,0.877,0.025
21.265,-0.480,0.875,0.025
21.275,-0.484,0.873,0.025
21.285,-0.480,0.873,0.025
21.294,-0.488,0.881,0.023
21.304,-0.486,0.885,0.023
21.314,-0.486,0.875,0.023
21.324,-0.496,0.873,0.018
21.334,-0.496,0.869,0.021
21.344,-0.492,0.867,0.016
21.354,-0.486,0.865,0.016
21.364,-0.486,0.875,0.021
21.374,-0.488,0.877,0.020
21.384,-0.490,0.875,0.021
21.394,-0.492,0.875,0.021
21.404,-0.492,0.875,0.020
21.414,-0.492,0.875,0.018
21.424,-0.494,0.875,0.018
21.433,-0.490,0.871,0.020
21.443,-0.486,0.871,0.020
21.453,-0.484,0.871,0.021
21.463,-0.486,0.865,0.023
21.473,-0.486,0.863,0.020
21.483,-0.490,0.871,0.020
21.493,-0.490,0.873,0.020
21.503,-0.492,0.873,0.018
21.513,-0.492,0.875,0.018
21.523,-0.492,0.873,0.014
21.533,-0.488,0.873,0.016
21.543,-0.488,0.875,0.016
21.553,-0.498,0.873,0.014
21.563,-0.492,0.879,0.012
21.573,-0.492,0.881,0.018
21.582,-0.490,0.885,0.014
21.592,-0.490,0.879,0.012
21.602,-0.492,0.875,0.012
21.612,-0.488,0.873,0.012
21.622,-0.488,0.875,0.016
21.632,-0.490,0.877,0.018
21.642,-0.488,0.877,0.014
21.652,-0.488,0.877,0.016
21.662,-0.486,0.879,0.018
21.672,-0.488,0.875,0.018
21.682,-0.486,0.873,0.018
21.692,-0.490,0.873,0.016
21.702,-0.486,0.873,0.020
21.712,-0.492,0.871,0.020
21.721,-0.492,0.869,0.021
21.731,-0.494,0.869,0.020
21.741,-0.500,0.869,0.018
21.751,-0.498,0.869,0.020
21.761,-0.496,0.869,0.020
21.771,-0.500,0.871,0.016
21.781,-0.498,0.871,0.020
21.791,-0.492,0.871,0.020
21.801,-0.492,0.871,0.020
21.811,-0.484,0.871,0.020
21.821,-0.490,0.869,0.020
21.831,-0.494,0.869,0.018
21.841,-0.496,0.871,0.021
21.851,-0.492,0.875,0.016
21.861,-0.494,0.877,0.014
21.870,-0.490,0.875,0.020
21.880,-0.488,0.871,0.016
21.890,-0.490,0.871,0.016
21.900,-0.486,0.869,0.016
21.910,-0.486,0.871,0.014
21.920,-0.484,0.877,0.014
21.930,-0.482,0.877,0.016
21.940,-0.484,0.877,0.014
21.950,-0.486,0.881,0.018
21.960,-0.484,0.879,0.016
21.970,-0.486,0.871,0.014
21.980,-0.492,0.871,0.010
21.990,-0.490,0.877,0.012
22.000,-0.488,0.875,0.012
22.009,-0.488,0.873,0.010
22.019,-0.492,0.873,0.010
22.029,-0.492,0.877,0.010
22.039,-0.486,0.883,0.010
22.049,-0.482,0.889,0.012
22.059,-0.480,0.885,0.016
22.069,-0.479,0.881,0.014
22.079,-0.477,0.875,0.014
22.089,-0.477,0.873,0.012
22.099,-0.479,0.873,0.010
22.109,-0.482,0.875,0.010
22.119,-0.479,0.871,0.014
22.129,-0.480,0.873,0.010
22.139,-0.477,0.877,0.012
22.148,-0.482,0.885,0.012
22.158,-0.479,0.879,0.016
22.168,-0.475,0.871,0.012
22.178,-0.475,0.873,0.012
22.188,-0.479,0.869,0.012
22.198,-0.480,0.873,0.012
22.208,-0.482,0.883,0.014
22.218,-0.482,0.879,0.012
22.228,-0.480,0.881,0.012
22.238,-0.484,0.879,0.008
22.248,-0.484,0.877,0.008
22.258,-0.488,0.875,0.014
22.268,-0.490,0.875,0.010
22.278,-0.488,0.871,0.008
22.288,-0.484,0.871,0.012
22.297,-0.490,0.873,0.014
22.307,-0.488,0.875,0.012
22.317,-0.488,0.875,0.012
22.327,-0.486,0.877,0.014
22.337,-0.490,0.875,0.014
22.347,-0.490,0.877,0.012
22.357,-0.490,0.873,0.012
22.367,-0.488,0.873,0.012
22.377,-0.490,0.869,0.012
22.387,-0.488,0.867,0.012
22.397,-0.490,0.869,0.014
22.407,-0.492,0.873,0.008
22.417,-0.492,0.875,0.014
22.427,-0.490,0.877,0.014
22.436,-0.494,0.875,0.012
22.446,-0.492,0.875,0.014
22.456,-0.494,0.869,0.012
22.466,-0.492,0.871,0.010
22.476,-0.496,0.869,0.012
22.486,-0.502,0.871,0.012
22.496,-0.498,0.875,0.014
22.506,-0.502,0.875,0.012
22.516,-0.496,0.871,0.012
22.526,-0.492,0.873,0.016
22.536,-0.490,0.869,0.014
22.546,-0.494,0.869,0.018
22.556,-0.498,0.869,0.012
22.566,-0.500,0.871,0.018
22.576,-0.500,0.869,0.020
22.585,-0.498,0.867,0.020
22.595,-0.502,0.875,0.020
22.605,-0.500,0.879,0.020
22.615,-0.494,0.875,0.021
22.625,-0.494,0.871,0.018
22.635,-0.496,0.867,0.014
22.645,-0.502,0.867,0.014
22.655,-0.500,0.869,0.018
22.665,-0.506,0.869,0.016
22.675,-0.506,0.869,0.014
22.685,-0.504,0.871,0.018
22.695,-0.500,0.869,0.020
22.705,-0.500,0.863,0.020
22.715,-0.502,0.861,0.020
22.724,-0.502,0.859,0.020
22.734,-0.506,0.859,0.018
22.744,-0.502,0.861,0.021
22.754,-0.502,0.867,0.018
22.764,-0.508,0.867,0.023
22.774,-0.506,0.869,0.020
22.784,-0.510,0.867,0.020
22.794,-0.512,0.863,0.025
22.804,-0.512,0.863,0.021
22.814,-0.514,0.859,0.018
22.824,-0.518,0.859,0.020
22.834,-0.518,0.857,0.018
22.844,-0.518,0.859,0.018
22.854,-0.514,0.855,0.018
22.864,-0.512,0.865,0.018
22.873,-0.521,0.867,0.020
22.883,-0.514,0.863,0.023
22.893,-0.514,0.861,0.023
22.903,-0.516,0.855,0.020
22.913,-0.520,0.855,0.016
22.923,-0.525,0.854,0.018
22.933,-0.525,0.859,0.020
22.943,-0.527,0.857,0.020
22.953,-0.529,0.861,0.020
22.963,-0.523,0.861,0.018
22.973,-0.529,0.861,0.018
22.983,-0.529,0.859,0.018
22.993,-0.527,0.855,0.021
23.003,-0.525,0.848,0.016
23.012,-0.527,0.850,0.020
23.022,-0.529,0.848,0.020
23.032,-0.529,0.852,0.018
23.042,-0.527,0.852,0.023
23.052,-0.529,0.857,0.021
23.062,-0.529,0.857,0.025
23.072,-0.531,0.854,0.023
23.082,-0.527,0.854,0.021
23.092,-0.527,0.852,0.021
23.102,-0.527,0.850,0.018
23.112,-0.527,0.848,0.018
23.122,-0.527,0.846,0.020
23.132,-0.527,0.850,0.023
23.142,-0.531,0.854,0.025
23.152,-0.529,0.855,0.023
23.161,-0.533,0.855,0.023
23.171,-0.537,0.854,0.021
23.181,-0.539,0.852,0.021
23.191,-0.545,0.850,0.023
23.201,-0.543,0.852,0.021
23.211,-0.547,0.852,0.021
23.221,-0.543,0.850,0.021
23.231,-0.541,0.852,0.023
23.241,-0.543,0.852,0.029
23.251,-0.539,0.852,0.027
23.261,-0.535,0.850,0.025
23.271,-0.537,0.848,0.027
23.281,-0.541,0.848,0.023
23.291,-0.539,0.854,0.029
23.300,-0.537,0.852,0.029
23.310,-0.535,0.850,0.023
23.320,-0.539,0.854,0.029
23.330,-0.537,0.850,0.029
23.340,-0.537,0.854,0.027
23.350,-0.537,0.844,0.027
23.360,-0.537,0.850,0.027
23.370,-0.539,0.852,0.027
23.380,-0.539,0.852,0.025
23.390,-0.541,0.850,0.027
23.400,-0.541,0.848,0.029
23.410,-0.541,0.850,0.029
23.420,-0.541,0.848,0.027
23.430,-0.543,0.848,0.031
23.440,-0.547,0.844,0.031
23.449,-0.545,0.848,0.033
23.459,-0.545,0.846,0.029
23.469,-0.543,0.844,0.033
23.479,-0.539,0.850,0.027
23.489,-0.541,0.850,0.035
23.499,-0.547,0.846,0.037
23.509,-0.545,0.846,0.033
23.519,-0.541,0.844,0.035
23.529,-0.547,0.844,0.037
23.539,-0.547,0.838,0.035
23.549,-0.547,0.838,0.033
23.559,-0.551,0.840,0.037
23.569,-0.547,0.844,0.037
23.579,-0.547,0.842,0.037
23.588,-0.555,0.850,0.037
23.598,-0.549,0.848,0.041
23.608,-0.545,0.840,0.035
23.618,-0.547,0.836,0.033
23.628,-0.545,0.836,0.033
23.638,-0.547,0.840,0.033
23.648,-0.549,0.846,0.035
23.658,-0.545,0.848,0.035
23.668,-0.543,0.848,0.035
23.678,-0.545,0.848,0.033
23.688,-0.545,0.848,0.035
23.698,-0.547,0.848,0.037
23.708,-0.549,0.844,0.035
23.718,-0.549,0.842,0.035
23.728,-0.547,0.840,0.035
23.737,-0.547,0.842,0.035
23.747,-0.549,0.842,0.035
23.757,-0.549,0.842,0.033
23.767,-0.547,0.842,0.035
23.777,-0.551,0.842,0.033
23.787,-0.553,0.842,0.033
23.797,-0.553,0.840,0.033
23.807,-0.553,0.844,0.029
23.817,-0.551,0.842,0.031
23.827,-0.553,0.848,0.027
23.837,-0.553,0.846,0.029
23.847,-0.551,0.844,0.029
23.857,-0.549,0.844,0.027
23.867,-0.549,0.846,0.027
23.876,-0.549,0.846,0.031
23.886,-0.547,0.848,0.031
23.896,-0.545,0.848,0.031
23.906,-0.547,0.848,0.031
23.916,-0.545,0.844,0.029
23.926,-0.545,0.844,0.031
23.936,-0.545,0.848,0.031
23.946,-0.547,0.846,0.031
23.956,-0.547,0.844,0.033
23.966,-0.545,0.844,0.027
23.976,-0.545,0.844,0.033
23.986,-0.547,0.846,0.031
23.996,-0.551,0.844,0.031
24.006,-0.551,0.842,0.029
24.016,-0.551,0.844,0.031
24.025,-0.551,0.844,0.031
24.035,-0.549,0.842,0.031
24.045,-0.547,0.848,0.033
24.055,-0.549,0.848,0.035
24.065,-0.543,0.846,0.035
24.075,-0.545,0.848,0.035
24.085,-0.543,0.840,0.031
24.095,-0.543,0.842,0.031
24.105,-0.545,0.848,0.033
24.115,-0.541,0.850,0.035
24.125,-0.537,0.846,0.029
24.135,-0.539,0.850,0.035
24.145,-0.537,0.850,0.037
24.155,-0.539,0.846,0.029
24.164,-0.541,0.846,0.033
24.174,-0.545,0.846,0.031
24.184,-0.547,0.846,0.031
24.194,-0.549,0.846,0.031
24.204,-0.547,0.846,0.033
24.214,-0.547,0.844,0.033
24.224,-0.547,0.846,0.029
24.234,-0.543,0.840,0.033
24.244,-0.545,0.840,0.031
24.254,-0.547,0.842,0.031
24.264,-0.547,0.846,0.033
24.274,-0.545,0.850,0.031
24.284,-0.541,0.846,0.029
24.294,-0.543,0.854,0.033
24.304,-0.539,0.848,0.031
24.313,-0.541,0.850,0.033
24.323,-0.541,0.850,0.033
24.333,-0.541,0.850,0.029
24.343,-0.541,0.850,0.031
24.353,-0.539,0.846,0.029
24.363,-0.545,0.850,0.029
24.373,-0.547,0.850,0.031
24.383,-0.545,0.852,0.029
24.393,-0.549,0.846,0.029
24.403,-0.549,0.848,0.029
24.413,-0.547,0.848,0.029
24.423,-0.543,0.844,0.033
24.433,-0.543,0.844,0.027
24.443,-0.539,0.840,0.025
24.452,-0.543,0.842,0.029
24.462,-0.545,0.844,0.027
24.472,-0.545,0.848,0.029
24.482,-0.541,0.850,0.029
24.492,-0.541,0.844,0.027
24.502,-0.541,0.848,0.029
24.512,-0.541,0.846,0.027
24.522,-0.541,0.844,0.031
24.532,-0.547,0.846,0.031
24.542,-0.545,0.844,0.029
24.552,-0.545,0.844,0.023
24.562,-0.547,0.844,0.025
24.572,-0.547,0.846,0.021
24.582,-0.549,0.846,0.025
24.592,-0.549,0.848,0.021
24.601,-0.547,0.850,0.023
24.611,-0.545,0.848,0.025
24.621,-0.543,0.848,0.023
24.631,-0.545,0.848,0.025
24.641,-0.541,0.846,0.023
24.651,-0.545,0.846,0.021
24.661,-0.543,0.844,0.023
24.671,-0.545,0.848,0.023
24.681,-0.545,0.850,0.023
24.691,-0.541,0.846,0.021
24.701,-0.545,0.850,0.025
24.711,-0.543,0.848,0.025
24.721,-0.543,0.848,0.025
24.731,-0.545,0.846,0.027
24.740,-0.547,0.848,0.023
24.750,-0.549,0.844,0.027
24.760,-0.549,0.846,0.025
24.770,-0.545,0.846,0.023
24.780,-0.549,0.844,0.023
24.790,-0.547,0.848,0.027
24.800,-0.545,0.846,0.027
24.810,-0.547,0.844,0.027
24.820,-0.547,0.842,0.025
24.830,-0.547,0.844,0.023
24.840,-0.545,0.846,0.029
24.850,-0.545,0.848,0.029
24.860,-0.543,0.844,0.029
24.870,-0.549,0.842,0.027
24.880,-0.545,0.842,0.027
24.889,-0.545,0.848,0.029
24.899,-0.545,0.848,0.027
24.909,-0.549,0.846,0.029
24.919,-0.545,0.846,0.023
24.929,-0.549,0.846,0.027
24.939,-0.547,0.844,0.025
24.949,-0.547,0.846,0.027
24.959,-0.549,0.844,0.027
24.969,-0.547,0.846,0.025
24.979,-0.545,0.848,0.025
24.989,-0.545,0.842,0.029
24.999,-0.547,0.844,0.027
25.009,-0.549,0.850,0.025
25.019,-0.545,0.848,0.029
25.028,-0.545,0.848,0.031
25.038,-0.541,0.842,0.029
25.048,-0.545,0.848,0.029
25.058,-0.541,0.846,0.029
25.068,-0.545,0.842,0.027
25.078,-0.547,0.840,0.023
25.088,-0.553,0.850,0.029
25.098,-0.553,0.848,0.031
25.108,-0.551,0.848,0.027
25.118,-0.547,0.846,0.025
25.128,-0.549,0.846,0.027
25.138,-0.549,0.842,0.029
25.148,-0.549,0.840,0.027
25.158,-0.549,0.840,0.025
25.168,-0.551,0.842,0.027
25.177,-0.549,0.842,0.027
25.187,-0.547,0.846,0.029
25.197,-0.543,0.848,0.031
25.207,-0.543,0.848,0.029
25.217,-0.545,0.844,0.027
25.227,-0.545,0.846,0.029
25.237,-0.547,0.844,0.029
25.247,-0.549,0.846,0.027
25.257,-0.547,0.846,0.025
25.267,-0.549,0.846,0.025
25.277,-0.547,0.846,0.029
25.287,-0.553,0.846,0.029
25.297,-0.553,0.842,0.023
25.307,-0.551,0.842,0.025
25.316,-0.551,0.848,0.029
25.326,-0.549,0.850,0.031
25.336,-0.545,0.844,0.029
25.346,-0.543,0.842,0.027
25.356,-0.543,0.840,0.023
25.366,-0.543,0.842,0.027
25.376,-0.545,0.848,0.029
25.386,-0.541,0.846,0.025
25.396,-0.543,0.848,0.029
25.406,-0.547,0.850,0.025
25.416,-0.547,0.846,0.025
25.426,-0.543,0.846,0.029
25.436,-0.543,0.840,0.027
25.446,-0.547,0.840,0.025
25.456,-0.547,0.840,0.029
25.465,-0.549,0.840,0.029
25.475,-0.547,0.844,0.025
25.485,-0.555,0.844,0.027
25.495,-0.553,0.844,0.027
25.505,-0.557,0.842,0.025
25.515,-0.551,0.848,0.023
25.525,-0.553,0.844,0.031
25.535,-0.551,0.846,0.025
25.545,-0.545,0.844,0.027
25.555,-0.543,0.842,0.027
25.565,-0.545,0.846,0.031
25.575,-0.545,0.842,0.027
25.585,-0.543,0.844,0.027
25.595,-0.545,0.846,0.027
25.604,-0.545,0.848,0.031
25.614,-0.545,0.844,0.027
25.624,-0.545,0.846,0.029
25.634,-0.551,0.844,0.029
25.644,-0.549,0.846,0.029
25.654,-0.549,0.846,0.029
25.664,-0.551,0.844,0.029
25.674,-0.549,0.848,0.029
25.684,-0.551,0.844,0.029
25.694,-0.551,0.842,0.031
25.704,-0.551,0.846,0.031
25.714,-0.547,0.844,0.031
25.724,-0.549,0.844,0.033
25.734,-0.547,0.844,0.029
25.744,-0.543,0.842,0.031
25.753,-0.547,0.846,0.035
25.763,-0.549,0.846,0.033
25.773,-0.547,0.846,0.035
25.783,-0.547,0.844,0.033
25.793,-0.545,0.846,0.033
25.803,-0.545,0.844,0.035
25.813,-0.541,0.844,0.033
25.823,-0.547,0.842,0.035
25.833,-0.545,0.846,0.037
25.843,-0.549,0.842,0.033
25.853,-0.553,0.840,0.033
25.863,-0.555,0.842,0.035
25.873,-0.551,0.842,0.035
25.883,-0.551,0.842,0.033
25.892,-0.551,0.846,0.035
25.902,-0.555,0.844,0.035
25.912,-0.551,0.844,0.033
25.922,-0.553,0.846,0.029
25.932,-0.549,0.842,0.031
25.942,-0.549,0.842,0.031
25.952,-0.549,0.838,0.031
25.962,-0.553,0.840,0.031
25.972,-0.553,0.848,0.031
25.982,-0.551,0.850,0.035
25.992,-0.549,0.844,0.033
26.002,-0.547,0.844,0.035
26.012,-0.549,0.848,0.035
26.022,-0.547,0.842,0.039
26.031,-0.545,0.838,0.031
26.041,-0.551,0.840,0.033
26.051,-0.555,0.848,0.033
26.061,-0.553,0.848,0.037
26.071,-0.553,0.846,0.033
26.081,-0.551,0.844,0.031
26.091,-0.551,0.838,0.031
26.101,-0.555,0.836,0.031
26.111,-0.553,0.834,0.031
26.121,-0.557,0.832,0.029
26.131,-0.555,0.838,0.033
26.141,-0.553,0.842,0.033
26.151,-0.549,0.848,0.031
26.161,-0.547,0.850,0.035
26.171,-0.547,0.846,0.035
26.180,-0.547,0.846,0.031
26.190,-0.547,0.844,0.035
26.200,-0.547,0.842,0.033
26.210,-0.547,0.842,0.033
26.220,-0.551,0.844,0.031
26.230,-0.549,0.842,0.031
26.240,-0.553,0.842,0.031
26.250,-0.551,0.846,0.031
26.260,-0.551,0.846,0.027
26.270,-0.555,0.842,0.031
26.280,-0.549,0.854,0.035
26.290,-0.549,0.850,0.035
26.300,-0.541,0.844,0.035
26.310,-0.545,0.834,0.031
26.319,-0.545,0.834,0.031
26.329,-0.547,0.842,0.033
26.339,-0.553,0.844,0.035
26.349,-0.547,0.848,0.041
26.359,-0.545,0.848,0.037
26.369,-0.545,0.846,0.037
26.379,-0.551,0.846,0.039
26.389,-0.551,0.838,0.039
26.399,-0.551,0.840,0.039
26.409,-0.551,0.844,0.037
26.419,-0.553,0.838,0.037
26.429,-0.553,0.840,0.031
26.439,-0.551,0.840,0.035
26.449,-0.551,0.842,0.035
26.459,-0.549,0.842,0.033
26.468,-0.555,0.846,0.033
26.478,-0.555,0.848,0.037
26.488,-0.551,0.848,0.033
26.498,-0.553,0.846,0.035
26.508,-0.553,0.846,0.033
26.518,-0.549,0.844,0.035
26.528,-0.551,0.840,0.033
26.538,-0.547,0.838,0.035
26.548,-0.549,0.842,0.031
26.558,-0.553,0.846,0.033
26.568,-0.553,0.844,0.031
26.578,-0.553,0.844,0.035
26.588,-0.553,0.842,0.035
26.598,-0.549,0.844,0.033
26.607,-0.551,0.844,0.035
26.617,-0.549,0.842,0.033
26.627,-0.551,0.838,0.037
26.637,-0.551,0.840,0.035
26.647,-0.551,0.836,0.033
26.657,-0.553,0.840,0.033
26.667,-0.551,0.842,0.031
26.677,-0.553,0.844,0.037
26.687,-0.553,0.844,0.037
26.697,-0.553,0.846,0.033
26.707,-0.549,0.846,0.037
26.717,-0.547,0.844,0.039
26.727,-0.547,0.842,0.033
26.737,-0.549,0.842,0.035
26.747,-0.549,0.840,0.033
26.756,-0.547,0.844,0.033
26.766,-0.549,0.846,0.031
26.776,-0.547,0.842,0.031
26.786,-0.547,0.846,0.031
26.796,-0.549,0.848,0.031
26.806,-0.551,0.844,0.031
26.816,-0.549,0.848,0.033
26.826,-0.547,0.844,0.031
26.836,-0.547,0.842,0.031
26.846,-0.549,0.842,0.029
26.856,-0.549,0.848,0.035
26.866,-0.547,0.844,0.033
26.876,-0.547,0.846,0.035
26.886,-0.545,0.844,0.033
26.895,-0.551,0.844,0.031
26.905,-0.551,0.840,0.031
26.915,-0.553,0.840,0.031
26.925,-0.549,0.844,0.035
26.935,-0.549,0.844,0.029
26.945,-0.547,0.844,0.029
26.955,-0.551,0.848,0.029
26.965,-0.545,0.848,0.035
26.975,-0.547,0.842,0.031
26.985,-0.551,0.842,0.029
26.995,-0.553,0.842,0.029
27.005,-0.557,0.848,0.033
27.015,-0.555,0.846,0.033
27.025,-0.557,0.840,0.029
27.035,-0.557,0.840,0.033
27.044,-0.557,0.840,0.033
27.054,-0.557,0.834,0.031
27.064,-0.553,0.836,0.033
27.074,-0.555,0.836,0.033
27.084,-0.551,0.834,0.037
27.094,-0.555,0.840,0.033
27.104,-0.551,0.842,0.037
27.114,-0.553,0.844,0.035
27.124,-0.547,0.844,0.035
27.134,-0.549,0.844,0.037
27.144,-0.549,0.840,0.037
27.154,-0.551,0.838,0.037
27.164,-0.551,0.840,0.035
27.174,-0.555,0.844,0.037
27.183,-0.553,0.846,0.039
27.193,-0.551,0.846,0.035
27.203,-0.557,0.842,0.035
27.213,-0.555,0.842,0.039
27.223,-0.551,0.840,0.037
27.233,-0.549,0.850,0.039
27.243,-0.549,0.844,0.041
27.253,-0.543,0.840,0.037
27.263,-0.547,0.834,0.031
27.273,-0.547,0.840,0.037
27.283,-0.551,0.846,0.037
27.293,-0.551,0.850,0.037
27.303,-0.549,0.848,0.037
27.313,-0.547,0.850,0.037
27.323,-0.549,0.850,0.035
27.332,-0.547,0.846,0.037
27.342,-0.549,0.844,0.041
27.352,-0.549,0.846,0.041
27.362,-0.551,0.838,0.037
27.372,-0.551,0.840,0.037
27.382,-0.551,0.838,0.039
27.392,-0.549,0.838,0.041
27.402,-0.553,0.840,0.041
27.412,-0.557,0.844,0.041
27.422,-0.553,0.844,0.037
27.432,-0.553,0.842,0.041
27.442,-0.555,0.840,0.041
27.452,-0.555,0.840,0.039
27.462,-0.555,0.836,0.035
27.471,-0.551,0.834,0.039
27.481,-0.555,0.840,0.041
27.491,-0.555,0.840,0.037
27.501,-0.553,0.842,0.041
27.511,-0.555,0.842,0.041
27.521,-0.551,0.846,0.043
27.531,-0.553,0.842,0.037
27.541,-0.555,0.840,0.039
27.551,-0.555,0.840,0.035
27.561,-0.557,0.840,0.035
27.571,-0.553,0.842,0.037
27.581,-0.553,0.840,0.039
27.591,-0.557,0.842,0.041
27.601,-0.557,0.840,0.037
27.611,-0.553,0.842,0.039
27.620,-0.555,0.842,0.039
27.630,-0.555,0.840,0.039
27.640,-0.555,0.844,0.037
27.650,-0.557,0.842,0.037
27.660,-0.555,0.840,0.037
27.670,-0.555,0.836,0.039
27.680,-0.553,0.840,0.035
27.690,-0.555,0.842,0.035
27.700,-0.553,0.848,0.039
27.710,-0.557,0.844,0.039
27.720,-0.557,0.844,0.037
27.730,-0.553,0.840,0.037
27.740,-0.557,0.842,0.035
27.750,-0.553,0.838,0.033
27.759,-0.555,0.840,0.037
27.769,-0.553,0.838,0.035
27.779,-0.555,0.844,0.035
27.789,-0.553,0.844,0.033
27.799,-0.553,0.844,0.039
27.809,-0.551,0.840,0.033
27.819,-0.551,0.838,0.035
27.829,-0.551,0.846,0.035
27.839,-0.549,0.846,0.035
27.849,-0.549,0.840,0.033
27.859,-0.547,0.842,0.033
27.869,-0.549,0.848,0.041
27.879,-0.547,0.846,0.035
27.889,-0.549,0.844,0.033
27.899,-0.553,0.840,0.033
27.908,-0.557,0.842,0.035
27.918,-0.555,0.842,0.037
27.928,-0.557,0.842,0.033
27.938,-0.559,0.840,0.035
27.948,-0.559,0.840,0.039
27.958,-0.557,0.842,0.035
27.968,-0.561,0.840,0.035
27.978,-0.555,0.838,0.033
27.988,-0.557,0.840,0.039
27.998,-0.555,0.838,0.037
28.008,-0.551,0.838,0.035
28.018,-0.553,0.840,0.037
28.028,-0.553,0.844,0.039
28.038,-0.555,0.842,0.035
28.047,-0.555,0.842,0.037
28.057,-0.555,0.844,0.037
28.067,-0.553,0.842,0.035
28.077,-0.557,0.838,0.035
28.087,-0.557,0.840,0.033
28.097,-0.561,0.840,0.031
28.107,-0.557,0.836,0.035
28.117,-0.559,0.842,0.033
28.127,-0.557,0.838,0.035
28.137,-0.555,0.852,0.039
28.147,-0.553,0.846,0.033
28.157,-0.549,0.842,0.035
28.167,-0.549,0.836,0.035
28.177,-0.547,0.836,0.037
28.187,-0.551,0.842,0.035
28.196,-0.551,0.842,0.033
28.206,-0.553,0.844,0.037
28.216,-0.551,0.846,0.035
28.226,-0.551,0.846,0.037
28.236,-0.553,0.842,0.033
28.246,-0.551,0.840,0.033
28.256,-0.555,0.836,0.033
28.266,-0.555,0.840,0.033
28.276,-0.553,0.840,0.033
28.286,-0.555,0.838,0.033
28.296,-0.555,0.842,0.037
28.306,-0.557,0.840,0.037
28.316,-0.555,0.840,0.035
28.326,-0.557,0.842,0.035
28.335,-0.555,0.842,0.037
28.345,-0.555,0.842,0.037
28.355,-0.555,0.840,0.037
28.365,-0.557,0.840,0.035
28.375,-0.557,0.838,0.035
28.385,-0.559,0.838,0.035
28.395,-0.555,0.838,0.035
28.405,-0.559,0.840,0.035
28.415,-0.559,0.838,0.037
28.425,-0.557,0.838,0.033
28.435,-0.557,0.840,0.035
28.445,-0.557,0.838,0.039
28.455,-0.557,0.842,0.035
28.465,-0.555,0.840,0.037
28.475,-0.555,0.840,0.037
28.484,-0.557,0.840,0.035
28.494,-0.555,0.842,0.039
28.504,-0.559,0.840,0.041
28.514,-0.555,0.840,0.039
28.524,-0.557,0.836,0.039
28.534,-0.561,0.834,0.039
28.544,-0.559,0.836,0.037
28.554,-0.559,0.840,0.037
28.564,-0.559,0.840,0.037
28.574,-0.559,0.840,0.037
28.584,-0.559,0.838,0.043
28.594,-0.557,0.838,0.037
28.604,-0.559,0.836,0.039
28.614,-0.559,0.836,0.039
28.623,-0.559,0.836,0.039
28.633,-0.559,0.838,0.041
28.643,-0.557,0.838,0.041
28.653,-0.559,0.838,0.043
28.663,-0.559,0.842,0.039
28.673,-0.559,0.838,0.039
28.683,-0.557,0.836,0.039
28.693,-0.559,0.840,0.039
28.703,-0.559,0.834,0.037
28.713,-0.559,0.836,0.035
28.723,-0.561,0.844,0.039
28.733,-0.553,0.842,0.039
28.743,-0.553,0.836,0.037
28.753,-0.555,0.838,0.039
28.763,-0.555,0.846,0.039
28.772,-0.555,0.838,0.037
28.782,-0.557,0.840,0.039
28.792,-0.562,0.838,0.035
28.802,-0.562,0.842,0.037
28.812,-0.562,0.844,0.039
28.822,-0.561,0.840,0.039
28.832,-0.559,0.836,0.041
28.842,-0.557,0.836,0.039
28.852,-0.557,0.836,0.045
28.862,-0.557,0.838,0.041
28.872,-0.561,0.836,0.041
28.882,-0.561,0.836,0.039
28.892,-0.561,0.836,0.041
28.902,-0.559,0.840,0.041
28.911,-0.557,0.838,0.039
28.921,-0.557,0.838,0.043
28.931,-0.557,0.836,0.037
28.941,-0.561,0.834,0.037
28.951,-0.561,0.838,0.039
28.961,-0.561,0.838,0.039
28.971,-0.562,0.838,0.037
28.981,-0.562,0.840,0.037
28.991,-0.561,0.840,0.035
29.001,-0.562,0.836,0.039
29.011,-0.561,0.838,0.035
29.021,-0.559,0.838,0.037
29.031,-0.555,0.838,0.039
29.041,-0.557,0.840,0.041
29.051,-0.555,0.836,0.039
29.060,-0.553,0.830,0.033
29.070,-0.557,0.830,0.035
29.080,-0.557,0.840,0.039
29.090,-0.564,0.844,0.035
29.100,-0.559,0.842,0.039
29.110,-0.559,0.838,0.035
29.120,-0.555,0.834,0.039
29.130,-0.559,0.840,0.041
29.140,-0.562,0.842,0.041
29.150,-0.562,0.836,0.039
29.160,-0.564,0.834,0.039
29.170,-0.562,0.828,0.035
29.180,-0.562,0.830,0.037
29.190,-0.564,0.834,0.039
29.199,-0.562,0.836,0.039
29.209,-0.562,0.836,0.035
29.219,-0.561,0.836,0.035
29.229,-0.562,0.838,0.031
29.239,-0.561,0.840,0.037
29.249,-0.559,0.836,0.031
29.259,-0.561,0.836,0.033
29.269,-0.562,0.838,0.031
29.279,-0.559,0.838,0.035
29.289,-0.561,0.836,0.035
29.299,-0.559,0.838,0.033
29.309,-0.559,0.838,0.033
29.319,-0.557,0.838,0.031
29.329,-0.562,0.840,0.031
29.339,-0.566,0.840,0.033
29.348,-0.564,0.840,0.031
29.358,-0.566,0.840,0.031
29.368,-0.566,0.836,0.033
29.378,-0.564,0.834,0.031
29.388,-0.566,0.836,0.031
29.398,-0.561,0.838,0.031
29.408,-0.561,0.838,0.037
29.418,-0.559,0.840,0.035
29.428,-0.557,0.840,0.039
29.438,-0.557,0.834,0.039
29.448,-0.561,0.834,0.037
29.458,-0.562,0.832,0.039
29.468,-0.564,0.836,0.041
29.478,-0.561,0.834,0.035
29.487,-0.566,0.836,0.041
29.497,-0.564,0.832,0.039
29.507,-0.564,0.834,0.039
29.517,-0.561,0.832,0.039
29.527,-0.562,0.830,0.039
29.537,-0.564,0.830,0.037
29.547,-0.564,0.834,0.035
29.557,-0.564,0.840,0.037
29.567,-0.562,0.840,0.035
29.577,-0.561,0.840,0.037
29.587,-0.566,0.838,0.037
29.597,-0.559,0.840,0.041
29.607,-0.561,0.838,0.039
29.617,-0.557,0.838,0.041
29.626,-0.559,0.840,0.039
29.636,-0.559,0.832,0.035
29.646,-0.559,0.832,0.037
29.656,-0.562,0.840,0.037
29.666,-0.559,0.838,0.039
29.676,-0.559,0.836,0.039
29.686,-0.555,0.840,0.041
29.696,-0.559,0.844,0.041
29.706,-0.562,0.838,0.039
29.716,-0.566,0.834,0.037
29.726,-0.566,0.832,0.039
29.736,-0.568,0.840,0.037
29.746,-0.568,0.836,0.041
29.756,-0.566,0.834,0.035
29.766,-0.564,0.832,0.037
29.775,-0.564,0.832,0.039
29.785,-0.566,0.832,0.043
29.795,-0.566,0.828,0.043
29.805,-0.568,0.830,0.041
29.815,-0.566,0.830,0.039
29.825,-0.564,0.832,0.039
29.835,-0.566,0.834,0.043
29.845,-0.566,0.834,0.045
29.855,-0.566,0.832,0.041
29.865,-0.566,0.832,0.043
29.875,-0.570,0.834,0.041
29.885,-0.570,0.830,0.039
29.895,-0.568,0.834,0.041
29.905,-0.572,0.832,0.041
29.914,-0.572,0.834,0.041
29.924,-0.574,0.832,0.035
29.934,-0.572,0.832,0.039
29.944,-0.572,0.832,0.039
29.954,-0.570,0.828,0.037
29.964,-0.568,0.830,0.041
29.974,-0.572,0.838,0.037
29.984,-0.564,0.834,0.039
29.994,-0.561,0.830,0.039
30.004,-0.562,0.824,0.037
30.014,-0.564,0.832,0.037
30.024,-0.568,0.836,0.039
30.034,-0.568,0.836,0.039
30.044,-0.570,0.836,0.039
30.054,-0.568,0.836,0.037
30.063,-0.566,0.836,0.037
30.073,-0.568,0.836,0.037
30.083,-0.566,0.834,0.037
30.093,-0.568,0.834,0.037
30.103,-0.568,0.830,0.037
30.113,-0.568,0.834,0.037
30.123,-0.566,0.832,0.039
30.133,-0.570,0.830,0.039
30.143,-0.572,0.830,0.039
30.153,-0.568,0.830,0.037
30.163,-0.568,0.832,0.037
30.173,-0.570,0.834,0.037
30.183,-0.570,0.832,0.033
30.193,-0.572,0.832,0.043
30.202,-0.570,0.830,0.037
30.212,-0.574,0.830,0.035
30.222,-0.572,0.828,0.033
30.232,-0.570,0.828,0.037
30.242,-0.570,0.828,0.035
30.252,-0.572,0.832,0.033
30.262,-0.574,0.832,0.035
30.272,-0.570,0.832,0.037
30.282,-0.574,0.832,0.033
30.292,-0.568,0.830,0.037
30.302,-0.570,0.834,0.039
30.312,-0.570,0.826,0.035
30.322,-0.572,0.830,0.035
30.332,-0.572,0.836,0.037
30.342,-0.570,0.832,0.035
30.351,-0.570,0.832,0.035
30.361,-0.568,0.834,0.037
30.371,-0.570,0.832,0.035
30.381,-0.572,0.834,0.035
30.391,-0.572,0.830,0.035
30.401,-0.566,0.832,0.035
30.411,-0.568,0.830,0.037
30.421,-0.566,0.830,0.033
30.431,-0.568,0.830,0.037
30.441,-0.566,0.836,0.035
30.451,-0.566,0.830,0.033
30.461,-0.568,0.832,0.033
30.471,-0.570,0.832,0.035
30.481,-0.568,0.836,0.033
30.490,-0.568,0.834,0.037
30.500,-0.566,0.832,0.033
30.510,-0.568,0.834,0.035
30.520,-0.564,0.836,0.031
30.530,-0.564,0.832,0.035
30.540,-0.561,0.828,0.033
30.550,-0.564,0.838,0.035
30.560,-0.566,0.840,0.035
30.570,-0.564,0.838,0.031
30.580,-0.564,0.834,0.035
30.590,-0.566,0.840,0.037
30.600,-0.566,0.836,0.039
30.610,-0.568,0.828,0.031
30.620,-0.572,0.832,0.033
30.630,-0.576,0.838,0.037
30.639,-0.574,0.838,0.035
30.649,-0.570,0.834,0.035
30.659,-0.570,0.832,0.035
30.669,-0.570,0.830,0.039
30.679,-0.568,0.830,0.037
30.689,-0.570,0.826,0.035
30.699,-0.570,0.826,0.039
30.709,-0.570,0.828,0.039
30.719,-0.570,0.828,0.037
30.729,-0.570,0.830,0.039
30.739,-0.570,0.832,0.041
30.749,-0.572,0.832,0.039
30.759,-0.570,0.832,0.037
30.769,-0.572,0.832,0.033
30.778,-0.574,0.832,0.039
30.788,-0.572,0.834,0.037
30.798,-0.572,0.832,0.035
30.808,-0.568,0.832,0.035
30.818,-0.570,0.832,0.035
30.828,-0.574,0.832,0.037
30.838,-0.574,0.834,0.033
30.848,-0.574,0.830,0.035
30.858,-0.572,0.824,0.035
30.868,-0.570,0.836,0.035
30.878,-0.568,0.832,0.039
30.888,-0.564,0.824,0.035
30.898,-0.562,0.824,0.033
30.908,-0.564,0.824,0.035
30.918,-0.564,0.832,0.033
30.927,-0.564,0.838,0.035
30.937,-0.564,0.838,0.037
30.947,-0.564,0.838,0.037
30.957,-0.562,0.840,0.039
30.967,-0.562,0.840,0.035
30.977,-0.562,0.836,0.037
30.987,-0.568,0.832,0.035
30.997,-0.568,0.832,0.035
31.007,-0.568,0.830,0.035
31.017,-0.570,0.834,0.037
31.027,-0.568,0.832,0.041
31.037,-0.572,0.832,0.039
31.047,-0.572,0.830,0.039
31.057,-0.572,0.832,0.039
31.066,-0.570,0.830,0.037
31.076,-0.572,0.826,0.037
31.086,-0.570,0.826,0.039
31.096,-0.572,0.828,0.039
31.106,-0.572,0.830,0.043
31.116,-0.570,0.830,0.041
31.126,-0.568,0.832,0.039
31.136,-0.570,0.836,0.041
31.146,-0.566,0.832,0.041
31.156,-0.568,0.834,0.041
31.166,-0.568,0.832,0.041
31.176,-0.570,0.832,0.039
31.186,-0.566,0.832,0.037
31.196,-0.570,0.832,0.037
31.206,-0.570,0.834,0.035
31.215,-0.570,0.832,0.039
31.225,-0.572,0.832,0.037
31.235,-0.570,0.834,0.041
31.245,-0.570,0.834,0.039
31.255,-0.574,0.830,0.039
31.265,-0.574,0.828,0.037
31.275,-0.574,0.826,0.037
31.285,-0.574,0.830,0.041
31.295,-0.572,0.824,0.039
31.305,-0.572,0.826,0.037
31.315,-0.574,0.828,0.039
31.325,-0.572,0.830,0.039
31.335,-0.572,0.832,0.043
31.345,-0.572,0.834,0.039
31.354,-0.572,0.836,0.041
31.364,-0.570,0.830,0.041
31.374,-0.570,0.828,0.039
31.384,-0.568,0.830,0.037
31.394,-0.568,0.832,0.041
31.404,-0.568,0.832,0.041
31.414,-0.562,0.832,0.039
31.424,-0.564,0.830,0.037
31.434,-0.566,0.834,0.037
31.444,-0.568,0.840,0.035
31.454,-0.566,0.836,0.039
31.464,-0.564,0.834,0.039
31.474,-0.570,0.838,0.041
31.484,-0.568,0.834,0.041
31.494,-0.568,0.828,0.041
31.503,-0.572,0.828,0.035
31.513,-0.574,0.834,0.039
31.523,-0.570,0.840,0.043
31.533,-0.572,0.836,0.043
31.543,-0.570,0.830,0.041
31.553,-0.570,0.824,0.041
31.563,-0.570,0.826,0.041
31.573,-0.572,0.826,0.039
31.583,-0.570,0.822,0.041
31.593,-0.572,0.824,0.041
31.603,-0.572,0.830,0.043
31.613,-0.574,0.832,0.039
31.623,-0.572,0.832,0.039
31.633,-0.572,0.832,0.037
31.642,-0.572,0.832,0.039
31.652,-0.570,0.828,0.039
31.662,-0.572,0.832,0.039
31.672,-0.568,0.832,0.041
31.682,-0.570,0.832,0.039
31.692,-0.572,0.836,0.037
31.702,-0.574,0.832,0.039
31.712,-0.572,0.834,0.037
31.722,-0.576,0.830,0.041
31.732,-0.578,0.828,0.035
31.742,-0.572,0.826,0.039
31.752,-0.570,0.828,0.041
31.762,-0.568,0.836,0.043
31.772,-0.564,0.828,0.043
31.782,-0.562,0.824,0.043
31.791,-0.564,0.816,0.037
31.801,-0.574,0.828,0.043
31.811,-0.574,0.838,0.041
31.821,-0.576,0.838,0.039
31.831,-0.574,0.834,0.039
31.841,-0.572,0.834,0.041
31.851,-0.570,0.834,0.041
31.861,-0.570,0.832,0.039
31.871,-0.572,0.830,0.039
31.881,-0.570,0.822,0.037
31.891,-0.572,0.826,0.039
31.901,-0.572,0.828,0.041
31.911,-0.570,0.830,0.039
31.921,-0.570,0.832,0.043
31.930,-0.566,0.832,0.043
31.940,-0.568,0.832,0.043
31.950,-0.572,0.834,0.039
31.960,-0.568,0.828,0.043
31.970,-0.568,0.828,0.039
31.980,-0.570,0.826,0.037
31.990,-0.576,0.828,0.035
32.000,-0.576,0.830,0.035
32.010,-0.576,0.836,0.037
32.020,-0.570,0.836,0.037
32.030,-0.574,0.836,0.039
32.040,-0.570,0.832,0.039
32.050,-0.570,0.832,0.041
32.060,-0.570,0.832,0.039
32.070,-0.570,0.830,0.039
32.079,-0.568,0.828,0.043
32.089,-0.570,0.830,0.041
32.099,-0.572,0.830,0.039
32.109,-0.574,0.830,0.037
32.119,-0.574,0.832,0.043
32.129,-0.576,0.830,0.043
32.139,-0.574,0.830,0.041
32.149,-0.574,0.830,0.039
32.159,-0.580,0.826,0.041
32.169,-0.578,0.830,0.041
32.179,-0.576,0.828,0.041
32.189,-0.576,0.828,0.043
32.199,-0.574,0.826,0.039
32.209,-0.576,0.824,0.041
32.218,-0.574,0.828,0.041
32.228,-0.570,0.828,0.041
32.238,-0.572,0.826,0.037
32.248,-0.572,0.826,0.037
32.258,-0.572,0.832,0.037
32.268,-0.570,0.832,0.039
32.278,-0.572,0.832,0.041
32.288,-0.572,0.832,0.039
32.298,-0.570,0.832,0.039
32.308,-0.574,0.828,0.037
32.318,-0.572,0.830,0.037
32.328,-0.572,0.828,0.037
32.338,-0.570,0.832,0.041
32.348,-0.572,0.832,0.039
32.358,-0.570,0.824,0.035
32.367,-0.572,0.832,0.041
32.377,-0.576,0.836,0.039
32.387,-0.570,0.834,0.039
32.397,-0.568,0.828,0.035
32.407,-0.564,0.834,0.043
32.417,-0.568,0.836,0.043
32.427,-0.566,0.828,0.039
32.437,-0.572,0.826,0.035
32.447,-0.576,0.834,0.043
32.457,-0.576,0.836,0.045
32.467,-0.576,0.832,0.043
32.477,-0.576,0.826,0.039
32.487,-0.576,0.826,0.039
32.497,-0.580,0.826,0.043
32.506,-0.580,0.826,0.041
32.516,-0.578,0.822,0.041
32.526,-0.578,0.826,0.041
32.536,-0.574,0.824,0.043
32.546,-0.574,0.826,0.045
32.556,-0.572,0.830,0.047
32.566,-0.570,0.826,0.043
32.576,-0.572,0.832,0.043
32.586,-0.574,0.828,0.041
32.596,-0.570,0.828,0.043
32.606,-0.574,0.830,0.041
32.616,-0.572,0.834,0.039
32.626,-0.572,0.830,0.039
32.636,-0.574,0.830,0.039
32.646,-0.576,0.830,0.039
32.655,-0.572,0.832,0.037
32.665,-0.576,0.832,0.043
32.675,-0.572,0.828,0.037
32.685,-0.572,0.828,0.043
32.695,-0.572,0.840,0.045
32.705,-0.566,0.832,0.043
32.715,-0.566,0.824,0.041
32.725,-0.572,0.816,0.037
32.735,-0.572,0.822,0.039
32.745,-0.576,0.832,0.043
32.755,-0.574,0.836,0.039
32.765,-0.574,0.832,0.039
32.775,-0.574,0.832,0.037
32.785,-0.572,0.834,0.045
32.794,-0.576,0.834,0.043
32.804,-0.572,0.828,0.043
32.814,-0.576,0.824,0.039
32.824,-0.576,0.824,0.037
32.834,-0.578,0.824,0.039
32.844,-0.572,0.828,0.039
32.854,-0.574,0.830,0.037
32.864,-0.574,0.828,0.039
32.874,-0.578,0.832,0.037
32.884,-0.576,0.832,0.041
32.894,-0.574,0.826,0.039
32.904,-0.576,0.826,0.037
32.914,-0.576,0.824,0.039
32.924,-0.578,0.824,0.037
32.934,-0.574,0.826,0.037
32.943,-0.572,0.828,0.037
32.953,-0.572,0.830,0.037
32.963,-0.574,0.834,0.039
32.973,-0.574,0.834,0.035
32.983,-0.572,0.830,0.039
32.993,-0.574,0.832,0.033
33.003,-0.574,0.830,0.037
33.013,-0.572,0.830,0.033
33.023,-0.574,0.832,0.039
33.033,-0.574,0.832,0.037
33.043,-0.572,0.830,0.039
33.053,-0.568,0.832,0.039
33.063,-0.570,0.832,0.039
33.073,-0.568,0.830,0.039
33.082,-0.570,0.830,0.039
33.092,-0.574,0.826,0.039
33.102,-0.576,0.826,0.037
33.112,-0.576,0.830,0.041
33.122,-0.578,0.826,0.039
33.132,-0.576,0.828,0.039
33.142,-0.570,0.830,0.041
33.152,-0.574,0.828,0.041
33.162,-0.576,0.828,0.035
33.172,-0.576,0.828,0.041
33.182,-0.574,0.830,0.041
33.192,-0.576,0.830,0.043
33.202,-0.572,0.830,0.043
33.212,-0.574,0.828,0.041
33.221,-0.572,0.826,0.039
33.231,-0.572,0.826,0.039
33.241,-0.574,0.828,0.039
33.251,-0.570,0.826,0.041
33.261,-0.568,0.832,0.039
33.271,-0.570,0.832,0.043
33.281,-0.572,0.830,0.037
33.291,-0.574,0.834,0.043
33.301,-0.576,0.830,0.039
33.311,-0.576,0.834,0.039
33.321,-0.572,0.830,0.043
33.331,-0.572,0.828,0.037
33.341,-0.568,0.830,0.043
33.351,-0.568,0.830,0.043
33.361,-0.574,0.834,0.043
33.370,-0.572,0.824,0.041
33.380,-0.570,0.826,0.039
33.390,-0.576,0.832,0.045
33.400,-0.570,0.832,0.037
33.410,-0.568,0.828,0.039
33.420,-0.570,0.834,0.041
33.430,-0.570,0.834,0.043
33.440,-0.572,0.828,0.039
33.450,-0.574,0.828,0.037
33.460,-0.574,0.834,0.043
33.470,-0.574,0.836,0.043
33.480,-0.574,0.834,0.041
33.490,-0.576,0.826,0.041
33.500,-0.578,0.826,0.043
33.509,-0.576,0.824,0.041
33.519,-0.572,0.824,0.043
33.529,-0.572,0.826,0.039
33.539,-0.576,0.830,0.043
33.549,-0.574,0.828,0.039
33.559,-0.574,0.830,0.041
33.569,-0.572,0.832,0.041
33.579,-0.570,0.828,0.043
33.589,-0.568,0.828,0.041
33.599,-0.570,0.826,0.039
33.609,-0.572,0.830,0.041
33.619,-0.572,0.830,0.041
33.629,-0.574,0.830,0.043
33.639,-0.572,0.832,0.037
33.649,-0.574,0.832,0.041
33.658,-0.576,0.836,0.035
33.668,-0.574,0.832,0.041
33.678,-0.576,0.830,0.037
33.688,-0.574,0.830,0.039
33.698,-0.570,0.824,0.039
33.708,-0.570,0.834,0.041
33.718,-0.566,0.832,0.043
33.728,-0.559,0.828,0.041
33.738,-0.564,0.824,0.039
33.748,-0.566,0.824,0.037
33.758,-0.568,0.838,0.039
33.768,-0.570,0.840,0.041
33.778,-0.570,0.834,0.041
33.788,-0.564,0.834,0.041
33.797,-0.570,0.834,0.039
33.807,-0.568,0.830,0.035
33.817,-0.570,0.832,0.043
33.827,-0.570,0.832,0.041
33.837,-0.572,0.830,0.037
33.847,-0.572,0.826,0.037
33.857,-0.572,0.828,0.037
33.867,-0.572,0.830,0.035
33.877,-0.570,0.830,0.035
33.887,-0.572,0.828,0.041
33.897,-0.570,0.828,0.037
33.907,-0.572,0.834,0.039
33.917,-0.572,0.832,0.039
33.927,-0.572,0.828,0.039
33.937,-0.572,0.826,0.035
33.946,-0.570,0.828,0.035
33.956,-0.574,0.828,0.035
33.966,-0.574,0.832,0.033
33.976,-0.572,0.832,0.031
33.986,-0.574,0.832,0.035
33.996,-0.574,0.830,0.035
34.006,-0.574,0.832,0.039
34.016,-0.572,0.834,0.037
34.026,-0.572,0.834,0.039
34.036,-0.576,0.830,0.039
34.046,-0.574,0.830,0.039
34.056,-0.574,0.828,0.039
34.066,-0.576,0.828,0.037
34.076,-0.576,0.826,0.041
34.085,-0.578,0.826,0.039
34.095,-0.578,0.828,0.039
34.105,-0.578,0.828,0.043
34.115,-0.580,0.826,0.045
34.125,-0.576,0.826,0.041
34.135,-0.578,0.828,0.043
34.145,-0.574,0.826,0.043
34.155,-0.576,0.830,0.041
34.165,-0.574,0.822,0.041
34.175,-0.576,0.828,0.041
34.185,-0.576,0.828,0.043
34.195,-0.572,0.830,0.041
34.205,-0.570,0.830,0.041
34.215,-0.572,0.828,0.041
34.225,-0.574,0.830,0.043
34.234,-0.576,0.830,0.043
34.244,-0.572,0.828,0.039
34.254,-0.574,0.828,0.043
34.264,-0.576,0.830,0.041
34.274,-0.578,0.828,0.041
34.284,-0.578,0.832,0.039
34.294,-0.574,0.834,0.039
34.304,-0.574,0.834,0.043
34.314,-0.574,0.830,0.039
34.324,-0.572,0.830,0.039
34.334,-0.574,0.826,0.041
34.344,-0.570,0.824,0.041
34.354,-0.570,0.824,0.043
34.364,-0.572,0.830,0.045
34.373,-0.572,0.832,0.047
34.383,-0.572,0.830,0.039
34.393,-0.570,0.834,0.041
34.403,-0.574,0.836,0.043
34.413,-0.576,0.830,0.039
34.423,-0.578,0.824,0.035
34.433,-0.582,0.830,0.039
34.443,-0.582,0.836,0.043
34.453,-0.576,0.834,0.041
34.463,-0.576,0.832,0.047
34.473,-0.580,0.828,0.043
34.483,-0.576,0.826,0.047
34.493,-0.576,0.822,0.043
34.503,-0.574,0.820,0.041
34.513,-0.576,0.822,0.039
34.522,-0.574,0.824,0.045
34.532,-0.572,0.824,0.043
34.542,-0.572,0.832,0.047
34.552,-0.570,0.832,0.045
34.562,-0.572,0.834,0.041
34.572,-0.574,0.828,0.045
34.582,-0.574,0.826,0.039
34.592,-0.576,0.826,0.041
34.602,-0.578,0.828,0.043
34.612,-0.576,0.828,0.039
34.622,-0.578,0.830,0.037
34.632,-0.578,0.832,0.041
34.642,-0.574,0.836,0.039
34.652,-0.576,0.834,0.043
34.661,-0.576,0.830,0.045
34.671,-0.576,0.826,0.043
34.681,-0.572,0.828,0.045
34.691,-0.572,0.836,0.047
34.701,-0.568,0.824,0.045
34.711,-0.566,0.824,0.045
34.721,-0.568,0.822,0.037
34.731,-0.572,0.830,0.045
34.741,-0.572,0.832,0.045
34.751,-0.570,0.834,0.041
34.761,-0.574,0.834,0.041
34.771,-0.574,0.830,0.041
34.781,-0.576,0.832,0.039
34.791,-0.572,0.832,0.041
34.801,-0.572,0.828,0.043
34.810,-0.570,0.828,0.041
34.820,-0.574,0.826,0.043
34.830,-0.570,0.828,0.045
34.840,-0.572,0.826,0.045
34.850,-0.578,0.830,0.041
34.860,-0.574,0.828,0.041
34.870,-0.574,0.830,0.043
34.880,-0.576,0.828,0.039
34.890,-0.574,0.830,0.041
34.900,-0.574,0.828,0.041
34.910,-0.572,0.826,0.043
34.920,-0.576,0.824,0.041
34.930,-0.578,0.824,0.039
34.940,-0.576,0.828,0.039
34.949,-0.576,0.828,0.041
34.959,-0.576,0.830,0.041
34.969,-0.576,0.826,0.041
34.979,-0.578,0.828,0.041
34.989,-0.578,0.830,0.041
34.999,-0.578,0.826,0.041
35.009,-0.576,0.828,0.039
35.019,-0.578,0.828,0.039
35.029,-0.576,0.830,0.041
35.039,-0.580,0.830,0.041
35.049,-0.574,0.828,0.039
35.059,-0.580,0.828,0.041
35.069,-0.578,0.826,0.043
35.079,-0.576,0.828,0.041
35.089,-0.574,0.828,0.039
35.098,-0.576,0.830,0.041
35.108,-0.576,0.830,0.043
35.118,-0.574,0.830,0.043
35.128,-0.576,0.828,0.041
35.138,-0.572,0.828,0.045
35.148,-0.572,0.828,0.039
35.158,-0.574,0.826,0.043
35.168,-0.574,0.828,0.039
35.178,-0.574,0.828,0.039
35.188,-0.576,0.828,0.043
35.198,-0.574,0.832,0.041
35.208,-0.576,0.832,0.037
35.218,-0.578,0.832,0.041
35.228,-0.574,0.830,0.043
35.237,-0.578,0.830,0.039
35.247,-0.576,0.826,0.041
35.257,-0.576,0.830,0.043
35.267,-0.572,0.824,0.043
35.277,-0.574,0.828,0.043
35.287,-0.576,0.828,0.041
35.297,-0.572,0.826,0.043
35.307,-0.572,0.826,0.043
35.317,-0.572,0.832,0.043
35.327,-0.570,0.828,0.045
35.337,-0.568,0.826,0.043
35.347,-0.574,0.832,0.041
35.357,-0.572,0.834,0.043
35.367,-0.574,0.830,0.045
35.377,-0.578,0.824,0.037
35.386,-0.584,0.830,0.043
35.396,-0.582,0.838,0.045
35.406,-0.578,0.834,0.045
35.416,-0.576,0.830,0.043
35.426,-0.574,0.824,0.045
35.436,-0.574,0.826,0.043
35.446,-0.572,0.822,0.045
35.456,-0.576,0.818,0.045
35.466,-0.574,0.822,0.041
35.476,-0.578,0.822,0.041
35.486,-0.578,0.826,0.045
35.496,-0.578,0.828,0.047
35.506,-0.576,0.832,0.043
35.516,-0.576,0.830,0.045
35.525,-0.578,0.826,0.045
35.535,-0.576,0.828,0.045
35.545,-0.582,0.826,0.043
35.555,-0.578,0.828,0.043
35.565,-0.578,0.826,0.045
35.575,-0.580,0.828,0.043
35.585,-0.578,0.830,0.041
35.595,-0.576,0.830,0.041
35.605,-0.578,0.834,0.041
35.615,-0.578,0.830,0.043
35.625,-0.576,0.824,0.045
35.635,-0.572,0.836,0.047
35.645,-0.568,0.830,0.047
35.655,-0.566,0.820,0.047
35.665,-0.568,0.822,0.041
35.674,-0.572,0.830,0.043
35.684,-0.572,0.836,0.043
35.694,-0.574,0.834,0.043
35.704,-0.570,0.836,0.045
35.714,-0.572,0.832,0.043
35.724,-0.572,0.830,0.045
35.734,-0.574,0.828,0.045
35.744,-0.574,0.822,0.045
35.754,-0.572,0.826,0.045
35.764,-0.574,0.828,0.041
35.774,-0.572,0.828,0.047
35.784,-0.576,0.832,0.047
35.794,-0.576,0.834,0.041
35.804,-0.576,0.830,0.047
35.813,-0.574,0.832,0.045
35.823,-0.578,0.826,0.043
35.833,-0.578,0.828,0.045
35.843,-0.574,0.824,0.043
35.853,-0.576,0.824,0.045
35.863,-0.578,0.826,0.043
35.873,-0.576,0.828,0.041
35.883,-0.578,0.828,0.041
35.893,-0.578,0.828,0.041
35.903,-0.580,0.826,0.043
35.913,-0.580,0.826,0.043
35.923,-0.576,0.824,0.043
35.933,-0.578,0.830,0.041
35.943,-0.576,0.828,0.041
35.953,-0.574,0.828,0.045
35.962,-0.574,0.826,0.043
35.972,-0.578,0.830,0.043
35.982,-0.576,0.826,0.045
35.992,-0.580,0.830,0.043
36.002,-0.576,0.830,0.043
36.012,-0.578,0.830,0.041
36.022,-0.578,0.828,0.043
36.032,-0.574,0.828,0.043
36.042,-0.576,0.826,0.047
36.052,-0.578,0.824,0.043
36.062,-0.574,0.828,0.043
36.072,-0.576,0.830,0.047
36.082,-0.578,0.828,0.049
36.092,-0.576,0.826,0.047
36.101,-0.574,0.826,0.049
36.111,-0.578,0.824,0.045
36.121,-0.578,0.826,0.047
36.131,-0.576,0.828,0.047
36.141,-0.576,0.824,0.045
36.151,-0.578,0.826,0.045
36.161,-0.576,0.830,0.045
36.171,-0.578,0.828,0.047
36.181,-0.576,0.832,0.043
36.191,-0.578,0.832,0.047
36.201,-0.572,0.830,0.049
36.211,-0.576,0.826,0.043
36.221,-0.574,0.822,0.045
36.231,-0.570,0.826,0.045
36.241,-0.574,0.832,0.045
36.250,-0.570,0.832,0.049
36.260,-0.568,0.826,0.047
36.270,-0.568,0.830,0.051
36.280,-0.576,0.836,0.049
36.290,-0.578,0.828,0.045
36.300,-0.578,0.826,0.043
36.310,-0.580,0.828,0.043
36.320,-0.580,0.830,0.045
36.330,-0.578,0.832,0.047
36.340,-0.578,0.828,0.047
36.350,-0.576,0.826,0.045
36.360,-0.580,0.826,0.047
36.370,-0.578,0.826,0.045
36.380,-0.576,0.820,0.051
36.389,-0.580,0.816,0.049
36.399,-0.580,0.820,0.045
36.409,-0.582,0.822,0.047
36.419,-0.582,0.826,0.047
36.429,-0.580,0.824,0.045
36.439,-0.580,0.830,0.049
36.449,-0.576,0.830,0.047
36.459,-0.576,0.828,0.049
36.469,-0.576,0.826,0.045
36.479,-0.578,0.828,0.043
36.489,-0.580,0.824,0.045
36.499,-0.580,0.826,0.047
36.509,-0.580,0.826,0.045
36.519,-0.580,0.826,0.047
36.529,-0.576,0.830,0.047
36.538,-0.578,0.826,0.047
36.548,-0.580,0.826,0.049
36.558,-0.572,0.832,0.047
36.568,-0.572,0.832,0.051
36.578,-0.568,0.824,0.045
36.588,-0.574,0.816,0.047
36.598,-0.572,0.818,0.041
36.608,-0.576,0.830,0.049
36.618,-0.574,0.834,0.049
36.628,-0.576,0.834,0.049
36.638,-0.574,0.830,0.047
36.648,-0.574,0.830,0.045
36.658,-0.576,0.832,0.045
36.668,-0.574,0.828,0.047
36.677,-0.572,0.822,0.045
36.687,-0.574,0.824,0.045
36.697,-0.574,0.824,0.045
36.707,-0.576,0.826,0.045
36.717,-0.576,0.828,0.047
36.727,-0.582,0.828,0.043
36.737,-0.582,0.828,0.047
36.747,-0.580,0.828,0.047
36.757,-0.580,0.828,0.043
36.767,-0.578,0.824,0.045
36.777,-0.578,0.822,0.045
36.787,-0.580,0.822,0.047
36.797,-0.576,0.824,0.051
36.807,-0.578,0.828,0.047
36.817,-0.578,0.828,0.047
36.826,-0.580,0.826,0.049
36.836,-0.580,0.824,0.045
36.846,-0.582,0.826,0.043
36.856,-0.586,0.822,0.045
36.866,-0.588,0.820,0.045
36.876,-0.584,0.824,0.043
36.886,-0.584,0.824,0.045
36.896,-0.580,0.826,0.051
36.906,-0.582,0.828,0.047
36.916,-0.582,0.824,0.047
36.926,-0.582,0.826,0.049
36.936,-0.584,0.824,0.049
36.946,-0.582,0.824,0.047
36.956,-0.580,0.824,0.047
36.965,-0.582,0.824,0.051
36.975,-0.582,0.822,0.047
36.985,-0.576,0.822,0.049
36.995,-0.580,0.824,0.045
37.005,-0.578,0.824,0.051
37.015,-0.578,0.830,0.051
37.025,-0.576,0.828,0.047
37.035,-0.576,0.820,0.049
37.045,-0.578,0.826,0.051
37.055,-0.580,0.826,0.045
37.065,-0.580,0.826,0.047
37.075,-0.582,0.826,0.047
37.085,-0.578,0.824,0.045
37.095,-0.582,0.828,0.045
37.104,-0.580,0.826,0.047
37.114,-0.580,0.826,0.047
37.124,-0.580,0.828,0.049
37.134,-0.580,0.826,0.045
37.144,-0.576,0.830,0.049
37.154,-0.574,0.830,0.049
37.164,-0.576,0.828,0.051
37.174,-0.576,0.822,0.045
37.184,-0.574,0.826,0.045
37.194,-0.576,0.830,0.049
37.204,-0.576,0.826,0.049
37.214,-0.576,0.826,0.045
37.224,-0.574,0.830,0.049
37.234,-0.578,0.832,0.047
37.244,-0.574,0.826,0.047
37.253,-0.580,0.824,0.043
37.263,-0.580,0.824,0.045
37.273,-0.582,0.832,0.047
37.283,-0.582,0.834,0.045
37.293,-0.580,0.822,0.043
37.303,-0.582,0.824,0.051
37.313,-0.578,0.826,0.049
37.323,-0.580,0.824,0.047
37.333,-0.580,0.818,0.047
37.343,-0.582,0.816,0.047
37.353,-0.582,0.816,0.043
37.363,-0.582,0.820,0.047
37.373,-0.582,0.828,0.049
37.383,-0.578,0.828,0.045
37.392,-0.578,0.826,0.049
37.402,-0.582,0.826,0.045
37.412,-0.582,0.824,0.045
37.422,-0.584,0.824,0.047
37.432,-0.582,0.824,0.045
37.442,-0.586,0.822,0.043
37.452,-0.584,0.828,0.041
37.462,-0.584,0.828,0.049
37.472,-0.580,0.828,0.047
37.482,-0.580,0.828,0.047
37.492,-0.580,0.824,0.047
37.502,-0.576,0.824,0.049
37.512,-0.578,0.828,0.043
37.522,-0.576,0.828,0.049
37.532,-0.570,0.828,0.049
37.541,-0.574,0.822,0.045
37.551,-0.576,0.818,0.045
37.561,-0.578,0.828,0.047
37.571,-0.580,0.834,0.051
37.581,-0.580,0.828,0.047
37.591,-0.580,0.828,0.047
37.601,-0.584,0.824,0.045
37.611,-0.582,0.826,0.045
37.621,-0.586,0.826,0.047
37.631,-0.586,0.824,0.047
37.641,-0.584,0.822,0.045
37.651,-0.586,0.824,0.047
37.661,-0.584,0.826,0.047
37.671,-0.582,0.826,0.045
37.680,-0.584,0.826,0.047
37.690,-0.576,0.828,0.045
37.700,-0.574,0.826,0.047
37.710,-0.572,0.828,0.047
37.720,-0.574,0.828,0.047
37.730,-0.578,0.826,0.045
37.740,-0.580,0.824,0.045
37.750,-0.580,0.824,0.047
37.760,-0.582,0.818,0.043
37.770,-0.584,0.820,0.045
37.780,-0.586,0.824,0.047
37.790,-0.584,0.822,0.047
37.800,-0.584,0.822,0.047
37.810,-0.584,0.824,0.043
37.820,-0.588,0.828,0.045
37.829,-0.584,0.824,0.045
37.839,-0.584,0.824,0.047
37.849,-0.582,0.820,0.045
37.859,-0.584,0.822,0.047
37.869,-0.582,0.820,0.051
37.879,-0.582,0.818,0.047
37.889,-0.580,0.820,0.051
37.899,-0.582,0.826,0.049
37.909,-0.584,0.820,0.047
37.919,-0.580,0.822,0.049
37.929,-0.586,0.826,0.047
37.939,-0.584,0.822,0.045
37.949,-0.582,0.822,0.047
37.959,-0.582,0.822,0.047
37.968,-0.582,0.826,0.047
37.978,-0.582,0.830,0.047
37.988,-0.580,0.826,0.045
37.998,-0.582,0.828,0.047
38.008,-0.580,0.828,0.049
38.018,-0.582,0.826,0.043
38.028,-0.586,0.828,0.045
38.038,-0.584,0.822,0.043
38.048,-0.584,0.822,0.045
38.058,-0.584,0.826,0.043
38.068,-0.584,0.826,0.045
38.078,-0.586,0.822,0.049
38.088,-0.588,0.822,0.045
38.098,-0.586,0.822,0.049
38.108,-0.586,0.820,0.045
38.117,-0.584,0.824,0.053
38.127,-0.588,0.824,0.051
38.137,-0.584,0.822,0.049
38.147,-0.582,0.820,0.053
38.157,-0.584,0.818,0.049
38.167,-0.584,0.822,0.055
38.177,-0.580,0.826,0.055
38.187,-0.580,0.816,0.051
38.197,-0.580,0.818,0.049
38.207,-0.586,0.828,0.055
38.217,-0.584,0.826,0.055
38.227,-0.592,0.820,0.051
38.237,-0.594,0.822,0.053
38.247,-0.594,0.826,0.053
38.256,-0.592,0.826,0.057
38.266,-0.594,0.828,0.057
38.276,-0.594,0.830,0.055
38.286,-0.588,0.824,0.055
38.296,-0.588,0.820,0.059
38.306,-0.588,0.814,0.057
38.316,-0.588,0.812,0.055
38.326,-0.588,0.811,0.057
38.336,-0.588,0.812,0.053
38.346,-0.586,0.818,0.053
38.356,-0.588,0.820,0.057
38.366,-0.588,0.826,0.057
38.376,-0.584,0.830,0.059
38.386,-0.582,0.820,0.057
38.396,-0.584,0.824,0.055
38.405,-0.580,0.818,0.057
38.415,-0.578,0.820,0.055
38.425,-0.580,0.820,0.057
38.435,-0.578,0.826,0.053
38.445,-0.578,0.828,0.053
38.455,-0.574,0.832,0.053
38.465,-0.576,0.828,0.055
38.475,-0.574,0.826,0.053
38.485,-0.576,0.828,0.055
38.495,-0.576,0.834,0.055
38.505,-0.572,0.828,0.053
38.515,-0.568,0.824,0.053
38.525,-0.570,0.816,0.047
38.535,-0.574,0.824,0.053
38.544,-0.576,0.830,0.053
38.554,-0.570,0.832,0.055
38.564,-0.572,0.834,0.053
38.574,-0.574,0.836,0.051
38.584,-0.574,0.830,0.049
38.594,-0.572,0.828,0.051
38.604,-0.576,0.830,0.053
38.614,-0.576,0.824,0.049
38.624,-0.578,0.826,0.055
38.634,-0.580,0.828,0.051
38.644,-0.578,0.826,0.047
38.654,-0.576,0.826,0.051
38.664,-0.578,0.828,0.049
38.674,-0.576,0.826,0.051
38.684,-0.582,0.828,0.045
38.693,-0.580,0.824,0.047
38.703,-0.580,0.826,0.047
38.713,-0.580,0.824,0.047
38.723,-0.582,0.824,0.047
38.733,-0.582,0.822,0.047
38.743,-0.584,0.822,0.049
38.753,-0.584,0.824,0.047
38.763,-0.580,0.826,0.047
38.773,-0.582,0.828,0.047
38.783,-0.584,0.826,0.049
38.793,-0.584,0.826,0.049
38.803,-0.584,0.824,0.049
38.813,-0.588,0.824,0.049
38.823,-0.586,0.822,0.049
38.832,-0.588,0.820,0.047
38.842,-0.582,0.818,0.051
38.852,-0.586,0.822,0.051
38.862,-0.584,0.824,0.053
38.872,-0.586,0.826,0.053
38.882,-0.584,0.824,0.053
38.892,-0.586,0.824,0.051
38.902,-0.586,0.820,0.055
38.912,-0.586,0.820,0.049
38.922,-0.584,0.824,0.051
38.932,-0.584,0.822,0.051
38.942,-0.580,0.822,0.053
38.952,-0.578,0.822,0.053
38.962,-0.580,0.824,0.051
38.972,-0.580,0.826,0.047
38.981,-0.578,0.824,0.049
38.991,-0.580,0.828,0.051
39.001,-0.580,0.828,0.051
39.011,-0.576,0.830,0.051
39.021,-0.578,0.832,0.051
39.031,-0.580,0.828,0.049
39.041,-0.580,0.824,0.047
39.051,-0.578,0.826,0.047
39.061,-0.584,0.828,0.045
39.071,-0.582,0.834,0.047
39.081,-0.582,0.830,0.045
39.091,-0.584,0.834,0.047
39.101,-0.580,0.832,0.047
39.111,-0.578,0.830,0.049
39.120,-0.576,0.820,0.049
39.130,-0.578,0.826,0.051
39.140,-0.576,0.828,0.051
39.150,-0.576,0.828,0.055
39.160,-0.570,0.826,0.057
39.170,-0.576,0.824,0.057
39.180,-0.574,0.828,0.062
39.190,-0.572,0.824,0.061
39.200,-0.576,0.822,0.057
39.210,-0.580,0.820,0.059
39.220,-0.586,0.822,0.057
39.230,-0.590,0.826,0.061
39.240,-0.588,0.822,0.059
39.250,-0.586,0.822,0.055
39.260,-0.586,0.824,0.057
39.269,-0.588,0.824,0.057
39.279,-0.586,0.820,0.059
39.289,-0.584,0.822,0.059
39.299,-0.588,0.820,0.059
39.309,-0.584,0.818,0.053
39.319,-0.584,0.820,0.057
39.329,-0.582,0.824,0.057
39.339,-0.580,0.828,0.055
39.349,-0.582,0.828,0.059
39.359,-0.584,0.826,0.053
39.369,-0.584,0.826,0.057
39.379,-0.584,0.824,0.053
39.389,-0.584,0.818,0.053
39.399,-0.586,0.818,0.053
39.408,-0.586,0.818,0.053
39.418,-0.586,0.826,0.053
39.428,-0.588,0.830,0.053
39.438,-0.586,0.830,0.055
39.448,-0.588,0.824,0.055
39.458,-0.580,0.824,0.059
39.468,-0.584,0.828,0.057
39.478,-0.582,0.822,0.059
39.488,-0.578,0.818,0.055
39.498,-0.582,0.812,0.051
39.508,-0.580,0.816,0.055
39.518,-0.582,0.818,0.057
39.528,-0.580,0.830,0.055
39.538,-0.584,0.828,0.053
39.548,-0.582,0.834,0.055
39.557,-0.584,0.832,0.055
39.567,-0.580,0.830,0.057
39.577,-0.582,0.826,0.053
39.587,-0.578,0.820,0.053
39.597,-0.582,0.824,0.049
39.607,-0.580,0.822,0.053
39.617,-0.582,0.828,0.051
39.627,-0.582,0.832,0.055
39.637,-0.576,0.830,0.057
39.647,-0.578,0.824,0.053
39.657,-0.576,0.824,0.055
39.667,-0.582,0.826,0.053
39.677,-0.580,0.820,0.051
39.687,-0.586,0.820,0.051
39.696,-0.586,0.822,0.051
39.706,-0.584,0.822,0.049
39.716,-0.582,0.824,0.047
39.726,-0.582,0.830,0.051
39.736,-0.580,0.830,0.053
39.746,-0.582,0.834,0.049
39.756,-0.584,0.832,0.047
39.766,-0.580,0.830,0.051
39.776,-0.582,0.828,0.051
39.786,-0.580,0.832,0.051
39.796,-0.578,0.824,0.053
39.806,-0.580,0.826,0.055
39.816,-0.580,0.828,0.057
39.826,-0.578,0.826,0.057
39.836,-0.582,0.820,0.059
39.845,-0.582,0.822,0.059
39.855,-0.584,0.820,0.061
39.865,-0.586,0.822,0.061
39.875,-0.588,0.820,0.064
39.885,-0.586,0.820,0.064
39.895,-0.580,0.820,0.057
39.905,-0.586,0.818,0.062
39.915,-0.586,0.814,0.064
39.925,-0.586,0.818,0.062
39.935,-0.586,0.828,0.064
39.945,-0.582,0.824,0.061
39.955,-0.582,0.826,0.062
39.965,-0.582,0.822,0.059
39.975,-0.576,0.820,0.061
39.984,-0.580,0.822,0.061
39.994,-0.576,0.826,0.064
40.004,-0.576,0.828,0.061
40.014,-0.576,0.832,0.066
40.024,-0.576,0.830,0.064
40.034,-0.576,0.830,0.061
40.044,-0.576,0.826,0.062
40.054,-0.578,0.822,0.059
40.064,-0.576,0.822,0.059
40.074,-0.580,0.826,0.061
40.084,-0.584,0.824,0.059
40.094,-0.582,0.826,0.059
40.104,-0.582,0.828,0.059
40.114,-0.582,0.830,0.061
40.124,-0.580,0.828,0.061
40.133,-0.578,0.828,0.062
40.143,-0.580,0.822,0.062
40.153,-0.578,0.820,0.061
40.163,-0.580,0.820,0.061
40.173,-0.578,0.824,0.061
40.183,-0.576,0.830,0.062
40.193,-0.574,0.828,0.061
40.203,-0.574,0.826,0.066
40.213,-0.574,0.830,0.062
40.223,-0.574,0.828,0.062
40.233,-0.578,0.820,0.059
40.243,-0.582,0.820,0.059
40.253,-0.586,0.826,0.057
40.263,-0.586,0.826,0.066
40.272,-0.584,0.824,0.057
40.282,-0.582,0.822,0.059
40.292,-0.584,0.824,0.057
40.302,-0.584,0.826,0.057
40.312,-0.582,0.824,0.057
40.322,-0.588,0.818,0.055
40.332,-0.586,0.820,0.053
40.342,-0.584,0.816,0.053
40.352,-0.584,0.828,0.053
40.362,-0.580,0.834,0.057
40.372,-0.580,0.832,0.055
40.382,-0.578,0.828,0.057
40.392,-0.580,0.828,0.059
40.402,-0.580,0.826,0.059
40.412,-0.578,0.826,0.061
40.421,-0.578,0.826,0.057
40.431,-0.582,0.826,0.059
40.441,-0.582,0.822,0.059
40.451,-0.582,0.822,0.061
40.461,-0.586,0.822,0.057
40.471,-0.588,0.820,0.057
40.481,-0.586,0.820,0.061
40.491,-0.582,0.826,0.061
40.501,-0.586,0.828,0.064
40.511,-0.584,0.820,0.059
40.521,-0.578,0.818,0.061
40.531,-0.578,0.818,0.059
40.541,-0.578,0.822,0.062
40.551,-0.582,0.832,0.062
40.560,-0.578,0.826,0.062
40.570,-0.572,0.820,0.059
40.580,-0.578,0.828,0.062
40.590,-0.578,0.828,0.064
40.600,-0.576,0.830,0.061
40.610,-0.578,0.826,0.061
40.620,-0.580,0.826,0.061
40.630,-0.582,0.824,0.064
40.640,-0.580,0.822,0.059
40.650,-0.582,0.822,0.061
40.660,-0.582,0.824,0.061
40.670,-0.582,0.824,0.066
40.680,-0.582,0.822,0.064
40.690,-0.582,0.820,0.064
40.700,-0.586,0.818,0.064
40.709,-0.586,0.818,0.062
40.719,-0.584,0.814,0.061
40.729,-0.588,0.820,0.061
40.739,-0.588,0.820,0.061
40.749,-0.588,0.822,0.061
40.759,-0.586,0.826,0.062
40.769,-0.590,0.826,0.059
40.779,-0.586,0.822,0.061
40.789,-0.584,0.822,0.061
40.799,-0.586,0.820,0.059
40.809,-0.590,0.820,0.059
40.819,-0.590,0.818,0.059
40.829,-0.590,0.816,0.059
40.839,-0.590,0.818,0.057
40.848,-0.588,0.816,0.059
40.858,-0.592,0.816,0.059
40.868,-0.592,0.820,0.059
40.878,-0.590,0.818,0.057
40.888,-0.590,0.818,0.057
40.898,-0.590,0.818,0.057
40.908,-0.588,0.820,0.055
40.918,-0.590,0.822,0.059
40.928,-0.590,0.824,0.055
40.938,-0.588,0.822,0.053
40.948,-0.588,0.822,0.053
40.958,-0.586,0.820,0.053
40.968,-0.586,0.818,0.053
40.978,-0.586,0.818,0.051
40.987,-0.590,0.816,0.049
40.997,-0.592,0.816,0.049
41.007,-0.592,0.820,0.049
41.017,-0.592,0.822,0.047
41.027,-0.590,0.826,0.051
41.037,-0.586,0.822,0.049
41.047,-0.590,0.820,0.047
41.057,-0.588,0.822,0.049
41.067,-0.584,0.822,0.047
41.077,-0.582,0.824,0.049
41.087,-0.588,0.822,0.043
41.097,-0.592,0.822,0.047
41.107,-0.590,0.822,0.049
41.117,-0.588,0.822,0.049
41.127,-0.584,0.820,0.045
41.136,-0.590,0.816,0.043
41.146,-0.598,0.818,0.043
41.156,-0.592,0.822,0.045
41.166,-0.594,0.822,0.047
41.176,-0.590,0.820,0.043
41.186,-0.592,0.822,0.051
41.196,-0.590,0.826,0.049
41.206,-0.590,0.818,0.047
41.216,-0.592,0.816,0.045
41.226,-0.596,0.820,0.047
41.236,-0.592,0.824,0.049
41.246,-0.590,0.822,0.051
41.256,-0.592,0.818,0.049
41.266,-0.594,0.811,0.047
41.275,-0.590,0.811,0.047
41.285,-0.586,0.807,0.047
41.295,-0.590,0.812,0.049
41.305,-0.590,0.816,0.049
41.315,-0.592,0.818,0.051
41.325,-0.592,0.822,0.051
41.335,-0.594,0.826,0.049
41.345,-0.596,0.826,0.053
41.355,-0.596,0.822,0.051
41.365,-0.594,0.820,0.049
41.375,-0.594,0.820,0.051
41.385,-0.592,0.816,0.047
41.395,-0.590,0.814,0.045
41.405,-0.588,0.822,0.051
41.415,-0.592,0.826,0.051
41.424,-0.588,0.822,0.053
41.434,-0.588,0.820,0.051
41.444,-0.590,0.822,0.049
41.454,-0.590,0.818,0.051
41.464,-0.590,0.822,0.051
41.474,-0.588,0.824,0.051
41.484,-0.584,0.820,0.049
41.494,-0.584,0.818,0.051
41.504,-0.586,0.816,0.047
41.514,-0.584,0.818,0.051
41.524,-0.590,0.820,0.051
41.534,-0.588,0.824,0.047
41.544,-0.588,0.824,0.051
41.554,-0.588,0.824,0.053
41.563,-0.586,0.822,0.049
41.573,-0.586,0.822,0.049
41.583,-0.586,0.820,0.049
41.593,-0.588,0.818,0.049
41.603,-0.588,0.814,0.051
41.613,-0.586,0.820,0.053
41.623,-0.588,0.814,0.047
41.633,-0.588,0.818,0.047
41.643,-0.588,0.820,0.051
41.653,-0.590,0.822,0.051
41.663,-0.590,0.818,0.047
41.673,-0.594,0.824,0.049
41.683,-0.592,0.820,0.049
41.693,-0.592,0.820,0.049
41.703,-0.590,0.818,0.047
41.712,-0.590,0.820,0.045
41.722,-0.592,0.818,0.049
41.732,-0.590,0.820,0.049
41.742,-0.590,0.820,0.049
41.752,-0.588,0.822,0.047
41.762,-0.590,0.822,0.049
41.772,-0.586,0.820,0.051
41.782,-0.586,0.818,0.049
41.792,-0.590,0.820,0.051
41.802,-0.590,0.822,0.049
41.812,-0.592,0.822,0.049
41.822,-0.588,0.820,0.053
41.832,-0.588,0.820,0.051
41.842,-0.592,0.818,0.049
41.851,-0.594,0.816,0.051
41.861,-0.598,0.814,0.051
41.871,-0.598,0.812,0.047
41.881,-0.594,0.814,0.049
41.891,-0.594,0.818,0.043
41.901,-0.594,0.822,0.045
41.911,-0.590,0.818,0.049
41.921,-0.592,0.818,0.047
41.931,-0.590,0.816,0.045
41.941,-0.594,0.814,0.047
41.951,-0.592,0.818,0.043
41.961,-0.592,0.824,0.045
41.971,-0.588,0.824,0.043
41.981,-0.588,0.824,0.045
41.991,-0.590,0.826,0.045
42.000,-0.588,0.826,0.047
42.010,-0.588,0.820,0.047
42.020,-0.584,0.812,0.041
42.030,-0.584,0.814,0.043
42.040,-0.588,0.820,0.045
42.050,-0.584,0.820,0.047
42.060,-0.580,0.816,0.045
42.070,-0.584,0.824,0.047
42.080,-0.586,0.830,0.047
42.090,-0.584,0.828,0.045
42.100,-0.588,0.820,0.039
42.110,-0.588,0.820,0.039
42.120,-0.590,0.822,0.045
42.130,-0.590,0.822,0.045
42.139,-0.588,0.820,0.043
42.149,-0.586,0.826,0.045
42.159,-0.586,0.824,0.045
42.169,-0.584,0.822,0.045
42.179,-0.582,0.822,0.045
42.189,-0.584,0.820,0.041
42.199,-0.588,0.818,0.041
42.209,-0.580,0.818,0.043
42.219,-0.582,0.824,0.041
42.229,-0.582,0.822,0.043
42.239,-0.582,0.824,0.045
42.249,-0.582,0.826,0.045
42.259,-0.582,0.830,0.041
42.269,-0.580,0.826,0.045
42.279,-0.584,0.824,0.039
42.288,-0.584,0.824,0.039
42.298,-0.584,0.822,0.041
42.308,-0.582,0.826,0.037
42.318,-0.584,0.828,0.037
42.328,-0.582,0.828,0.037
42.338,-0.578,0.828,0.041
42.348,-0.576,0.838,0.041
42.358,-0.576,0.834,0.039
42.368,-0.570,0.824,0.041
42.378,-0.574,0.818,0.037
42.388,-0.576,0.820,0.033
42.398,-0.576,0.828,0.037
42.408,-0.576,0.826,0.041
42.418,-0.574,0.830,0.043
42.427,-0.578,0.832,0.035
42.437,-0.576,0.834,0.041
42.447,-0.578,0.828,0.037
42.457,-0.576,0.830,0.039
42.467,-0.578,0.826,0.039
42.477,-0.576,0.826,0.037
42.487,-0.574,0.826,0.041
42.497,-0.572,0.826,0.037
42.507,-0.574,0.828,0.037
42.517,-0.574,0.828,0.041
42.527,-0.572,0.830,0.041
42.537,-0.572,0.830,0.039
42.547,-0.570,0.828,0.039
42.557,-0.574,0.830,0.037
42.567,-0.576,0.828,0.037
42.576,-0.574,0.826,0.037
42.586,-0.574,0.826,0.033
42.596,-0.572,0.830,0.033
42.606,-0.572,0.834,0.035
42.616,-0.570,0.834,0.037
42.626,-0.570,0.834,0.037
42.636,-0.568,0.830,0.033
42.646,-0.568,0.830,0.031
42.656,-0.568,0.830,0.033
42.666,-0.570,0.834,0.033
42.676,-0.568,0.830,0.033
42.686,-0.570,0.834,0.035
42.696,-0.572,0.836,0.033
42.706,-0.568,0.834,0.031
42.715,-0.566,0.836,0.031
42.725,-0.566,0.836,0.031
42.735,-0.568,0.834,0.033
42.745,-0.568,0.836,0.031
42.755,-0.564,0.834,0.033
42.765,-0.564,0.836,0.035
42.775,-0.559,0.832,0.033
42.785,-0.555,0.830,0.033
42.795,-0.557,0.834,0.029
42.805,-0.559,0.838,0.029
42.815,-0.559,0.838,0.031
42.825,-0.555,0.836,0.033
42.835,-0.557,0.842,0.029
42.845,-0.555,0.844,0.031
42.855,-0.555,0.840,0.029
42.864,-0.555,0.842,0.027
42.874,-0.553,0.836,0.029
42.884,-0.557,0.840,0.029
42.894,-0.559,0.842,0.029
42.904,-0.555,0.840,0.031
42.914,-0.559,0.842,0.029
42.924,-0.557,0.842,0.025
42.934,-0.555,0.838,0.029
42.944,-0.553,0.836,0.027
42.954,-0.555,0.840,0.027
42.964,-0.555,0.838,0.025
42.974,-0.549,0.842,0.025
42.984,-0.549,0.840,0.027
42.994,-0.549,0.844,0.027
43.003,-0.551,0.844,0.025
43.013,-0.549,0.846,0.023
43.023,-0.545,0.844,0.027
43.033,-0.547,0.846,0.025
43.043,-0.545,0.844,0.025
43.053,-0.545,0.846,0.023
43.063,-0.543,0.846,0.023
43.073,-0.545,0.848,0.023
43.083,-0.541,0.850,0.021
43.093,-0.543,0.854,0.021
43.103,-0.543,0.848,0.025
43.113,-0.541,0.854,0.023
43.123,-0.537,0.855,0.023
43.133,-0.529,0.848,0.025
43.143,-0.533,0.848,0.020
43.152,-0.531,0.842,0.018
43.162,-0.535,0.848,0.018
43.172,-0.533,0.855,0.020
43.182,-0.531,0.859,0.021
43.192,-0.529,0.855,0.018
43.202,-0.533,0.855,0.020
43.212,-0.527,0.857,0.020
43.222,-0.525,0.855,0.018
43.232,-0.523,0.855,0.020
43.242,-0.521,0.854,0.016
43.252,-0.521,0.857,0.014
43.262,-0.525,0.855,0.018
43.272,-0.520,0.857,0.018
43.282,-0.521,0.855,0.014
43.291,-0.514,0.857,0.014
43.301,-0.518,0.861,0.012
43.311,-0.518,0.857,0.014
43.321,-0.521,0.859,0.010
43.331,-0.520,0.861,0.012
43.341,-0.514,0.861,0.010
43.351,-0.512,0.863,0.010
43.361,-0.518,0.863,0.010
43.371,-0.516,0.863,0.008
43.381,-0.518,0.859,0.010
43.391,-0.518,0.865,0.008
43.401,-0.514,0.863,0.006
43.411,-0.510,0.867,0.010
43.421,-0.510,0.867,0.008
43.431,-0.510,0.867,0.008
43.440,-0.510,0.865,0.010
43.450,-0.510,0.863,0.010
43.460,-0.508,0.865,0.008
43.470,-0.512,0.867,0.008
43.480,-0.512,0.867,0.008
43.490,-0.512,0.869,0.010
43.500,-0.510,0.867,0.010
43.510,-0.504,0.865,0.008
43.520,-0.504,0.867,0.014
43.530,-0.506,0.871,0.012
43.540,-0.502,0.865,0.010
43.550,-0.498,0.865,0.010
43.560,-0.500,0.871,0.012
43.570,-0.506,0.873,0.012
43.579,-0.502,0.871,0.010
43.589,-0.506,0.863,0.008
43.599,-0.508,0.869,0.006
43.609,-0.506,0.873,0.008
43.619,-0.508,0.873,0.014
43.629,-0.504,0.871,0.008
43.639,-0.504,0.867,0.014
43.649,-0.500,0.865,0.008
43.659,-0.496,0.865,0.008
43.669,-0.498,0.863,0.010
43.679,-0.500,0.865,0.008
43.689,-0.496,0.863,0.008
43.699,-0.496,0.865,0.010
43.709,-0.498,0.865,0.008
43.719,-0.498,0.867,0.016
43.728,-0.500,0.867,0.010
43.738,-0.504,0.869,0.008
43.748,-0.504,0.867,0.010
43.758,-0.504,0.865,0.008
43.768,-0.504,0.869,0.006
43.778,-0.504,0.871,0.012
43.788,-0.506,0.869,0.008
43.798,-0.506,0.869,0.010
43.808,-0.504,0.869,0.012
43.818,-0.504,0.865,0.008
43.828,-0.506,0.861,0.014
43.838,-0.504,0.865,0.010
43.848,-0.506,0.869,0.012
43.858,-0.500,0.861,0.010
43.867,-0.504,0.855,0.002
43.877,-0.506,0.855,0.008
43.887,-0.510,0.865,0.008
43.897,-0.512,0.869,0.010
43.907,-0.508,0.867,0.008
43.917,-0.510,0.871,0.006
43.927,-0.510,0.871,0.008
43.937,-0.508,0.869,0.008
43.947,-0.506,0.867,0.010
43.957,-0.504,0.863,0.006
43.967,-0.506,0.863,0.002
43.977,-0.504,0.863,0.004
43.987,-0.504,0.865,0.002
43.997,-0.508,0.867,0.004
44.007,-0.508,0.865,0.008
44.016,-0.506,0.865,0.002
44.026,-0.506,0.863,0.006
44.036,-0.510,0.867,0.004
44.046,-0.510,0.863,0.004
44.056,-0.510,0.863,0.002
44.066,-0.512,0.861,0.004
44.076,-0.512,0.863,0.002
44.086,-0.512,0.861,0.002
44.096,-0.512,0.863,0.000
44.106,-0.516,0.867,0.000
44.116,-0.514,0.863,0.000
44.126,-0.512,0.863,0.002
44.136,-0.516,0.867,0.000
44.146,-0.516,0.865,-0.002
44.155,-0.516,0.865,0.000
44.165,-0.514,0.867,0.004
44.175,-0.514,0.863,0.002
44.185,-0.508,0.867,0.008
44.195,-0.508,0.865,0.002
44.205,-0.510,0.863,0.002
44.215,-0.510,0.861,0.002
44.225,-0.510,0.865,0.002
44.235,-0.510,0.863,-0.002
44.245,-0.510,0.863,0.004
44.255,-0.514,0.865,0.004
44.265,-0.514,0.863,0.002
44.275,-0.516,0.863,0.002
44.285,-0.512,0.863,0.004
44.295,-0.514,0.863,0.000
44.304,-0.510,0.861,0.002
44.314,-0.510,0.863,0.004
44.324,-0.510,0.861,0.006
44.334,-0.510,0.859,0.006
44.344,-0.510,0.861,0.002
44.354,-0.508,0.863,0.002
44.364,-0.508,0.863,0.002
44.374,-0.504,0.857,0.000
44.384,-0.502,0.861,0.002
44.394,-0.506,0.873,0.004
44.404,-0.508,0.871,0.002
44.414,-0.508,0.863,-0.002
44.424,-0.514,0.863,0.004
44.434,-0.514,0.869,0.006
44.443,-0.514,0.869,0.004
44.453,-0.512,0.865,0.006
44.463,-0.512,0.863,0.004
44.473,-0.514,0.861,0.004
44.483,-0.512,0.855,0.002
44.493,-0.512,0.854,0.006
44.503,-0.516,0.857,0.000
44.513,-0.516,0.859,0.002
44.523,-0.514,0.863,0.004
44.533,-0.512,0.861,0.006
44.543,-0.510,0.863,0.008
44.553,-0.512,0.867,0.004
44.563,-0.512,0.865,0.002
44.573,-0.514,0.863,0.002
44.582,-0.512,0.865,0.006
44.592,-0.516,0.863,0.004
44.602,-0.512,0.861,0.002
44.612,-0.516,0.863,0.004
44.622,-0.514,0.861,0.004
44.632,-0.514,0.863,0.002
44.642,-0.514,0.865,0.006
44.652,-0.516,0.863,0.002
44.662,-0.514,0.855,0.002
44.672,-0.510,0.869,0.006
44.682,-0.510,0.869,0.004
44.692,-0.502,0.861,0.006
44.702,-0.506,0.855,0.000
44.712,-0.510,0.855,0.002
44.722,-0.514,0.869,0.006
44.731,-0.510,0.871,0.002
44.741,-0.512,0.867,0.004
44.751,-0.510,0.865,0.000
44.761,-0.510,0.863,0.002
44.771,-0.512,0.861,0.002
44.781,-0.510,0.865,0.002
44.791,-0.510,0.863,0.000
44.801,-0.510,0.861,-0.002
44.811,-0.510,0.861,0.000
44.821,-0.512,0.861,0.000
44.831,-0.514,0.861,0.004
44.841,-0.512,0.861,0.004
44.851,-0.512,0.861,0.000
44.861,-0.512,0.861,0.002
44.870,-0.512,0.863,0.000
44.880,-0.512,0.861,0.002
44.890,-0.512,0.865,0.002
44.900,-0.512,0.863,0.004
44.910,-0.510,0.861,0.002
44.920,-0.510,0.861,0.004
44.930,-0.512,0.861,0.000
44.940,-0.512,0.863,0.000
44.950,-0.512,0.865,0.000
44.960,-0.512,0.865,0.000
44.970,-0.516,0.867,0.000
44.980,-0.512,0.865,0.004
44.990,-0.512,0.863,0.004
45.000,-0.510,0.865,0.000
45.010,-0.516,0.863,0.000
45.019,-0.516,0.857,-0.002
45.029,-0.514,0.861,0.002
45.039,-0.512,0.861,0.000
45.049,-0.514,0.859,0.004
45.059,-0.514,0.863,0.006
45.069,-0.516,0.863,0.002
45.079,-0.514,0.861,0.004
45.089,-0.514,0.863,0.006
45.099,-0.516,0.861,0.004
45.109,-0.514,0.857,0.004
45.119,-0.516,0.861,0.002
45.129,-0.516,0.863,0.002
45.139,-0.514,0.863,0.002
45.149,-0.514,0.861,0.006
45.158,-0.512,0.863,0.004
45.168,-0.514,0.859,0.006
45.178,-0.512,0.861,0.000
45.188,-0.512,0.859,0.002
45.198,-0.514,0.863,0.002
45.208,-0.518,0.861,0.002
45.218,-0.516,0.865,0.004
45.228,-0.516,0.865,0.002
45.238,-0.516,0.865,0.000
45.248,-0.516,0.865,0.000
45.258,-0.514,0.861,0.004
45.268,-0.516,0.859,0.002
45.278,-0.514,0.865,0.004
45.288,-0.514,0.863,0.002
45.298,-0.512,0.859,0.004
45.307,-0.516,0.861,0.004
45.317,-0.518,0.863,0.004
45.327,-0.516,0.861,0.004
45.337,-0.516,0.865,0.000
45.347,-0.516,0.861,0.004
45.357,-0.514,0.861,0.006
45.367,-0.514,0.861,0.004
45.377,-0.514,0.859,0.004
45.387,-0.516,0.859,0.004
45.397,-0.516,0.863,0.004
45.407,-0.516,0.865,0.006
45.417,-0.512,0.865,0.008
45.427,-0.514,0.861,0.006
45.437,-0.508,0.863,0.006
45.446,-0.510,0.859,0.010
45.456,-0.514,0.855,0.002
45.466,-0.518,0.859,0.000
45.476,-0.520,0.863,0.006
45.486,-0.520,0.867,0.008
45.496,-0.514,0.863,0.002
45.506,-0.516,0.857,0.004
45.516,-0.514,0.857,0.006
45.526,-0.518,0.859,0.008
45.536,-0.518,0.859,0.002
45.546,-0.518,0.859,0.006
45.556,-0.518,0.857,0.006
45.566,-0.514,0.861,0.008
45.576,-0.516,0.859,0.008
45.586,-0.516,0.859,0.008
45.595,-0.512,0.859,0.008
45.605,-0.514,0.863,0.008
45.615,-0.512,0.859,0.006
45.625,-0.514,0.861,0.002
45.635,-0.516,0.863,0.006
45.645,-0.514,0.863,0.006
45.655,-0.516,0.863,0.006
45.665,-0.518,0.865,0.010
45.675,-0.518,0.863,0.006
45.685,-0.514,0.863,0.006
45.695,-0.516,0.865,0.004
45.705,-0.521,0.857,0.010
45.715,-0.518,0.854,0.006
45.725,-0.516,0.861,0.010
45.734,-0.512,0.861,0.006
45.744,-0.512,0.859,0.012
45.754,-0.510,0.857,0.006
45.764,-0.512,0.863,0.012
45.774,-0.516,0.865,0.012
45.784,-0.512,0.865,0.010
45.794,-0.512,0.861,0.006
45.804,-0.512,0.863,0.008
45.814,-0.512,0.861,0.008
45.824,-0.512,0.861,0.010
45.834,-0.512,0.863,0.010
45.844,-0.514,0.861,0.008
45.854,-0.518,0.859,0.010
45.864,-0.518,0.859,0.012
45.874,-0.520,0.859,0.012
45.883,-0.520,0.857,0.012
45.893,-0.521,0.857,0.010
45.903,-0.525,0.857,0.008
45.913,-0.521,0.857,0.010
45.923,-0.520,0.859,0.016
45.933,-0.520,0.861,0.008
45.943,-0.520,0.859,0.010
45.953,-0.521,0.855,0.010
45.963,-0.520,0.854,0.012
45.973,-0.523,0.857,0.008
45.983,-0.520,0.861,0.012
45.993,-0.521,0.861,0.012
46.003,-0.520,0.859,0.016
46.013,-0.521,0.857,0.010
46.022,-0.521,0.857,0.014
46.032,-0.523,0.857,0.010
46.042,-0.521,0.857,0.012
46.052,-0.523,0.852,0.010
46.062,-0.525,0.859,0.016
46.072,-0.520,0.859,0.014
46.082,-0.520,0.861,0.012
46.092,-0.523,0.861,0.014
46.102,-0.520,0.859,0.016
46.112,-0.523,0.859,0.016
46.122,-0.525,0.861,0.014
46.132,-0.523,0.857,0.016
46.142,-0.525,0.855,0.016
46.152,-0.523,0.859,0.018
46.162,-0.521,0.859,0.016
46.171,-0.523,0.855,0.018
46.181,-0.521,0.855,0.014
46.191,-0.523,0.859,0.018
46.201,-0.521,0.861,0.018
46.211,-0.518,0.857,0.018
46.221,-0.521,0.855,0.014
46.231,-0.521,0.854,0.014
46.241,-0.521,0.855,0.016
46.251,-0.520,0.857,0.018
46.261,-0.523,0.859,0.016
46.271,-0.520,0.863,0.014
46.281,-0.523,0.861,0.018
46.291,-0.523,0.861,0.016
46.301,-0.520,0.859,0.016
46.310,-0.520,0.859,0.018
46.320,-0.523,0.863,0.014
46.330,-0.520,0.859,0.018
46.340,-0.520,0.857,0.018
46.350,-0.520,0.857,0.014
46.360,-0.523,0.854,0.016
46.370,-0.523,0.855,0.016
46.380,-0.523,0.857,0.016
46.390,-0.521,0.857,0.018
46.400,-0.523,0.855,0.014
46.410,-0.521,0.848,0.016
46.420,-0.525,0.852,0.018
46.430,-0.527,0.855,0.018
46.440,-0.523,0.859,0.014
46.450,-0.523,0.859,0.020
46.459,-0.521,0.857,0.016
46.469,-0.520,0.855,0.018
46.479,-0.523,0.852,0.010
46.489,-0.527,0.852,0.012
46.499,-0.529,0.854,0.016
46.509,-0.527,0.859,0.014
46.519,-0.525,0.861,0.014
46.529,-0.527,0.861,0.014
46.539,-0.529,0.855,0.016
46.549,-0.523,0.852,0.012
46.559,-0.523,0.854,0.014
46.569,-0.529,0.850,0.012
46.579,-0.525,0.852,0.014
46.589,-0.527,0.852,0.014
46.598,-0.527,0.855,0.010
46.608,-0.525,0.859,0.010
46.618,-0.527,0.859,0.010
46.628,-0.523,0.859,0.012
46.638,-0.527,0.859,0.014
46.648,-0.523,0.859,0.014
46.658,-0.525,0.855,0.008
46.668,-0.525,0.854,0.012
46.678,-0.525,0.854,0.012
46.688,-0.527,0.857,0.012
46.698,-0.527,0.857,0.012
46.708,-0.527,0.857,0.012
46.718,-0.529,0.859,0.012
46.728,-0.529,0.855,0.010
46.738,-0.529,0.852,0.012
46.747,-0.529,0.854,0.010
46.757,-0.529,0.854,0.012
46.767,-0.523,0.854,0.014
46.777,-0.525,0.850,0.010
46.787,-0.523,0.854,0.008
46.797,-0.527,0.861,0.012
46.807,-0.525,0.865,0.008
46.817,-0.521,0.861,0.010
46.827,-0.520,0.861,0.014
46.837,-0.521,0.861,0.012
46.847,-0.525,0.859,0.010
46.857,-0.523,0.859,0.014
46.867,-0.521,0.855,0.012
46.877,-0.525,0.857,0.014
46.886,-0.525,0.855,0.010
46.896,-0.525,0.855,0.012
46.906,-0.529,0.855,0.010
46.916,-0.531,0.854,0.010
46.926,-0.529,0.854,0.010
46.936,-0.529,0.854,0.008
46.946,-0.527,0.855,0.014
46.956,-0.531,0.859,0.014
46.966,-0.531,0.857,0.010
46.976,-0.529,0.859,0.012
46.986,-0.527,0.854,0.012
46.996,-0.527,0.854,0.014
47.006,-0.529,0.850,0.012
47.016,-0.529,0.854,0.014
47.026,-0.531,0.855,0.012
47.035,-0.531,0.854,0.012
47.045,-0.531,0.854,0.014
47.055,-0.529,0.854,0.012
47.065,-0.529,0.854,0.016
47.075,-0.531,0.852,0.014
47.085,-0.531,0.855,0.012
47.095,-0.531,0.854,0.014
47.105,-0.531,0.855,0.016
47.115,-0.533,0.855,0.014
47.125,-0.531,0.859,0.016
47.135,-0.531,0.859,0.016
47.145,-0.529,0.854,0.016
47.155,-0.529,0.854,0.018
47.165,-0.527,0.850,0.018
47.174,-0.529,0.855,0.018
47.184,-0.525,0.854,0.016
47.194,-0.527,0.855,0.020
47.204,-0.527,0.857,0.014
47.214,-0.529,0.855,0.016
47.224,-0.527,0.855,0.016
47.234,-0.527,0.855,0.016
47.244,-0.527,0.855,0.016
47.254,-0.531,0.852,0.014
47.264,-0.527,0.854,0.016
47.274,-0.527,0.854,0.016
47.284,-0.529,0.857,0.016
47.294,-0.527,0.857,0.016
47.304,-0.527,0.857,0.014
47.314,-0.525,0.855,0.014
47.323,-0.527,0.855,0.016
47.333,-0.529,0.850,0.014
47.343,-0.529,0.846,0.012
47.353,-0.529,0.850,0.016
47.363,-0.535,0.857,0.016
47.373,-0.535,0.859,0.016
47.383,-0.533,0.855,0.016
47.393,-0.533,0.857,0.016
47.403,-0.531,0.855,0.016
47.413,-0.529,0.852,0.016
47.423,-0.529,0.846,0.020
47.433,-0.535,0.850,0.016
47.443,-0.531,0.855,0.018
47.453,-0.529,0.854,0.018
47.462,-0.527,0.854,0.018
47.472,-0.527,0.854,0.018
47.482,-0.529,0.857,0.016
47.492,-0.531,0.857,0.016
47.502,-0.533,0.850,0.010
47.512,-0.537,0.848,0.010
47.522,-0.541,0.855,0.012
47.532,-0.537,0.854,0.008
47.542,-0.535,0.855,0.012
47.552,-0.531,0.855,0.012
47.562,-0.535,0.855,0.012
47.572,-0.527,0.854,0.012
47.582,-0.529,0.855,0.018
47.592,-0.527,0.854,0.016
47.602,-0.527,0.852,0.016
47.611,-0.525,0.852,0.016
47.621,-0.525,0.854,0.016
47.631,-0.527,0.854,0.016
47.641,-0.527,0.854,0.016
47.651,-0.531,0.855,0.014
47.661,-0.533,0.854,0.014
47.671,-0.535,0.852,0.014
47.681,-0.537,0.854,0.010
47.691,-0.537,0.857,0.016
47.701,-0.537,0.854,0.012
47.711,-0.535,0.852,0.016
47.721,-0.535,0.850,0.014
47.731,-0.535,0.855,0.010
47.741,-0.533,0.854,0.012
47.750,-0.533,0.850,0.014
47.760,-0.527,0.855,0.018
47.770,-0.531,0.861,0.018
47.780,-0.523,0.852,0.016
47.790,-0.523,0.848,0.018
47.800,-0.525,0.842,0.014
47.810,-0.531,0.852,0.018
47.820,-0.535,0.854,0.014
47.830,-0.533,0.854,0.016
47.840,-0.533,0.855,0.016
47.850,-0.531,0.854,0.014
47.860,-0.535,0.855,0.016
47.870,-0.535,0.855,0.012
47.880,-0.533,0.850,0.018
47.890,-0.533,0.850,0.012
47.899,-0.533,0.848,0.014
47.909,-0.535,0.846,0.018
47.919,-0.533,0.852,0.014
47.929,-0.535,0.854,0.014
47.939,-0.533,0.854,0.014
47.949,-0.537,0.852,0.016
47.959,-0.535,0.854,0.016
47.969,-0.535,0.854,0.014
47.979,-0.537,0.850,0.016
47.989,-0.535,0.846,0.018
47.999,-0.537,0.848,0.016
48.009,-0.539,0.850,0.012
48.019,-0.537,0.850,0.012
48.029,-0.537,0.852,0.016
48.038,-0.539,0.848,0.012
48.048,-0.535,0.852,0.010
48.058,-0.537,0.855,0.014
48.068,-0.537,0.854,0.010
48.078,-0.533,0.854,0.012
48.088,-0.533,0.850,0.016
48.098,-0.535,0.854,0.016
48.108,-0.531,0.854,0.014
48.118,-0.533,0.852,0.014
48.128,-0.535,0.855,0.014
48.138,-0.531,0.854,0.016
48.148,-0.535,0.855,0.014
48.158,-0.533,0.852,0.018
48.168,-0.537,0.852,0.018
48.178,-0.533,0.854,0.016
48.187,-0.533,0.848,0.014
48.197,-0.535,0.848,0.018
48.207,-0.535,0.850,0.016
48.217,-0.535,0.848,0.018
48.227,-0.535,0.852,0.018
48.237,-0.533,0.852,0.018
48.247,-0.535,0.852,0.018
48.257,-0.535,0.850,0.014
48.267,-0.535,0.848,0.018
48.277,-0.533,0.850,0.016
48.287,-0.535,0.850,0.018
48.297,-0.531,0.850,0.020
48.307,-0.531,0.850,0.018
48.317,-0.531,0.852,0.018
48.326,-0.529,0.852,0.014
48.336,-0.535,0.852,0.018
48.346,-0.535,0.854,0.014
48.356,-0.537,0.857,0.020
48.366,-0.535,0.852,0.018
48.376,-0.535,0.852,0.016
48.386,-0.531,0.852,0.014
48.396,-0.533,0.852,0.018
48.406,-0.535,0.848,0.016
48.416,-0.529,0.844,0.014
48.426,-0.533,0.852,0.018
48.436,-0.533,0.854,0.014
48.446,-0.531,0.857,0.016
48.456,-0.529,0.852,0.014
48.465,-0.535,0.857,0.020
48.475,-0.533,0.861,0.016
48.485,-0.531,0.855,0.016
48.495,-0.533,0.850,0.016
48.505,-0.535,0.854,0.018
48.515,-0.537,0.855,0.018
48.525,-0.537,0.852,0.014
48.535,-0.535,0.852,0.016
48.545,-0.537,0.852,0.016
48.555,-0.535,0.850,0.016
48.565,-0.533,0.850,0.018
48.575,-0.535,0.844,0.016
48.585,-0.537,0.850,0.018
48.595,-0.537,0.846,0.014
48.605,-0.537,0.848,0.020
48.614,-0.539,0.852,0.018
48.624,-0.539,0.854,0.020
48.634,-0.535,0.852,0.014
48.644,-0.537,0.854,0.016
48.654,-0.535,0.854,0.012
48.664,-0.541,0.855,0.012
48.674,-0.535,0.854,0.014
48.684,-0.537,0.852,0.016
48.694,-0.539,0.850,0.016
48.704,-0.537,0.855,0.018
48.714,-0.539,0.850,0.014
48.724,-0.539,0.855,0.012
48.734,-0.535,0.848,0.012
48.744,-0.533,0.850,0.016
48.753,-0.535,0.857,0.018
48.763,-0.533,0.852,0.014
48.773,-0.529,0.844,0.014
48.783,-0.531,0.848,0.010
48.793,-0.533,0.850,0.016
48.803,-0.533,0.855,0.012
48.813,-0.537,0.857,0.016
48.823,-0.533,0.854,0.016
48.833,-0.535,0.854,0.016
48.843,-0.535,0.852,0.018
48.853,-0.535,0.848,0.014
48.863,-0.533,0.852,0.018
48.873,-0.537,0.848,0.016
48.883,-0.537,0.848,0.016
48.893,-0.537,0.848,0.012
48.902,-0.537,0.854,0.016
48.912,-0.537,0.854,0.016
48.922,-0.537,0.852,0.016
48.932,-0.535,0.850,0.016
48.942,-0.535,0.850,0.018
48.952,-0.539,0.852,0.018
48.962,-0.537,0.848,0.012
48.972,-0.537,0.850,0.014
48.982,-0.537,0.852,0.018
48.992,-0.539,0.852,0.014
49.002,-0.537,0.852,0.016
49.012,-0.537,0.854,0.016
49.022,-0.537,0.852,0.014
49.032,-0.539,0.852,0.018
49.041,-0.537,0.848,0.016
49.051,-0.539,0.848,0.014
49.061,-0.539,0.846,0.018
49.071,-0.541,0.850,0.014
49.081,-0.541,0.850,0.020
49.091,-0.541,0.852,0.016
49.101,-0.539,0.852,0.018
49.111,-0.541,0.850,0.020
49.121,-0.541,0.852,0.018
49.131,-0.543,0.848,0.016
49.141,-0.539,0.846,0.018
49.151,-0.541,0.846,0.014
49.161,-0.543,0.848,0.018
49.171,-0.541,0.848,0.016
49.181,-0.543,0.848,0.016
49.190,-0.541,0.848,0.016
49.200,-0.539,0.850,0.016
49.210,-0.539,0.848,0.016
49.220,-0.537,0.848,0.018
49.230,-0.539,0.852,0.018
49.240,-0.537,0.848,0.018
49.250,-0.537,0.852,0.020
49.260,-0.537,0.850,0.018
49.270,-0.537,0.850,0.016
49.280,-0.539,0.848,0.020
49.290,-0.539,0.850,0.020
49.300,-0.537,0.848,0.020
49.310,-0.543,0.850,0.014
49.320,-0.535,0.844,0.018
49.329,-0.533,0.846,0.016
49.339,-0.537,0.850,0.018
49.349,-0.537,0.850,0.020
49.359,-0.531,0.844,0.018
49.369,-0.535,0.854,0.018
49.379,-0.539,0.855,0.016
49.389,-0.539,0.850,0.014
49.399,-0.543,0.848,0.014
49.409,-0.547,0.852,0.014
49.419,-0.549,0.859,0.020
49.429,-0.541,0.855,0.018
49.439,-0.541,0.848,0.018
49.449,-0.541,0.844,0.016
49.459,-0.541,0.844,0.016
49.469,-0.541,0.840,0.014
49.478,-0.545,0.840,0.016
49.488,-0.543,0.846,0.021
49.498,-0.543,0.842,0.020
49.508,-0.541,0.850,0.016
49.518,-0.541,0.850,0.020
49.528,-0.543,0.848,0.020
49.538,-0.549,0.848,0.016
49.548,-0.547,0.846,0.016
49.558,-0.547,0.846,0.016
49.568,-0.545,0.848,0.014
49.578,-0.549,0.846,0.016
49.588,-0.545,0.852,0.016
49.598,-0.543,0.850,0.014
49.608,-0.545,0.850,0.014
49.617,-0.545,0.852,0.016
49.627,-0.545,0.850,0.016
49.637,-0.545,0.844,0.012
49.647,-0.539,0.852,0.018
49.657,-0.535,0.854,0.018
49.667,-0.535,0.844,0.018
49.677,-0.537,0.840,0.012
49.687,-0.541,0.842,0.018
49.697,-0.543,0.848,0.018
49.707,-0.543,0.848,0.016
49.717,-0.543,0.850,0.018
49.727,-0.543,0.848,0.014
49.737,-0.541,0.848,0.014
49.747,-0.541,0.852,0.016
49.757,-0.541,0.846,0.016
49.766,-0.541,0.848,0.016
49.776,-0.537,0.846,0.014
49.786,-0.537,0.846,0.014
49.796,-0.537,0.846,0.014
49.806,-0.537,0.850,0.016
49.816,-0.543,0.848,0.014
49.826,-0.539,0.850,0.016
49.836,-0.541,0.852,0.016
49.846,-0.539,0.852,0.010
49.856,-0.543,0.848,0.014
49.866,-0.543,0.846,0.008
49.876,-0.543,0.844,0.014
49.886,-0.549,0.846,0.012
49.896,-0.541,0.848,0.014
49.905,-0.543,0.846,0.012
49.915,-0.545,0.850,0.012
49.925,-0.543,0.852,0.016
49.935,-0.543,0.850,0.014
49.945,-0.541,0.846,0.012
49.955,-0.541,0.848,0.014
49.965,-0.541,0.844,0.018
49.975,-0.541,0.846,0.016
49.985,-0.541,0.846,0.014
49.995,-0.545,0.848,0.014
50.005,-0.547,0.848,0.012
50.015,-0.545,0.848,0.016
50.025,-0.543,0.846,0.014
50.035,-0.541,0.846,0.012
50.045,-0.541,0.846,0.014
50.054,-0.541,0.846,0.014
50.064,-0.541,0.842,0.016
50.074,-0.543,0.844,0.016
50.084,-0.545,0.844,0.014
50.094,-0.543,0.844,0.012
50.104,-0.543,0.842,0.012
50.114,-0.545,0.850,0.014
50.124,-0.543,0.850,0.012
50.134,-0.545,0.848,0.014
50.144,-0.543,0.846,0.016
50.154,-0.541,0.848,0.010
50.164,-0.543,0.848,0.014
50.174,-0.541,0.852,0.012
50.184,-0.537,0.846,0.012
50.193,-0.537,0.848,0.012
50.203,-0.537,0.850,0.012
50.213,-0.533,0.852,0.012
50.223,-0.531,0.846,0.010
50.233,-0.535,0.852,0.016
50.243,-0.537,0.859,0.012
50.253,-0.543,0.854,0.012
50.263,-0.541,0.850,0.008
50.273,-0.545,0.850,0.008
50.283,-0.549,0.854,0.014
50.293,-0.545,0.855,0.014
50.303,-0.545,0.850,0.016
50.313,-0.543,0.846,0.016
50.323,-0.545,0.840,0.016
50.333,-0.545,0.842,0.012
50.342,-0.543,0.840,0.012
50.352,-0.545,0.840,0.014
50.362,-0.543,0.842,0.016
50.372,-0.547,0.848,0.014
50.382,-0.547,0.848,0.016
50.392,-0.545,0.848,0.014
