df_hash,22ZHK4.3SLRU5
device,HZ2X61
project_hash,29R7
project_name,istanbul_aydin_university
person_hash,29R7.ZGH0
person_label,v105
date_time_start,2026-03-02_13-21-59.790000_+03
date_time_start_unix,1772443319.79
date_time_end,2026-03-02_13-29-41.789000_+03
length_difference_noticed,no

time,acc_x,acc_y,acc_z
5.034,-0.334,0.877,-0.248
5.044,-0.332,0.877,-0.246
5.054,-0.330,0.879,-0.248
5.064,-0.332,0.881,-0.250
5.074,-0.334,0.879,-0.248
5.083,-0.336,0.877,-0.246
5.093,-0.336,0.877,-0.250
5.103,-0.336,0.879,-0.250
5.113,-0.336,0.877,-0.250
5.123,-0.336,0.879,-0.250
5.133,-0.332,0.879,-0.250
5.143,-0.332,0.881,-0.250
5.153,-0.332,0.879,-0.248
5.163,-0.332,0.877,-0.248
5.173,-0.334,0.879,-0.248
5.183,-0.330,0.879,-0.252
5.193,-0.330,0.877,-0.248
5.202,-0.330,0.879,-0.250
5.212,-0.332,0.879,-0.250
5.222,-0.330,0.881,-0.250
5.232,-0.328,0.881,-0.252
5.242,-0.330,0.877,-0.250
5.252,-0.332,0.879,-0.250
5.262,-0.336,0.877,-0.254
5.272,-0.336,0.873,-0.252
5.282,-0.334,0.875,-0.252
5.292,-0.336,0.871,-0.250
5.302,-0.336,0.879,-0.252
5.312,-0.334,0.879,-0.250
5.322,-0.334,0.879,-0.250
5.331,-0.334,0.877,-0.250
5.341,-0.332,0.877,-0.250
5.351,-0.334,0.879,-0.250
5.361,-0.332,0.879,-0.246
5.371,-0.332,0.879,-0.248
5.381,-0.330,0.877,-0.250
5.391,-0.334,0.875,-0.250
5.401,-0.336,0.877,-0.252
5.411,-0.330,0.877,-0.250
5.421,-0.334,0.875,-0.250
5.431,-0.336,0.879,-0.248
5.441,-0.336,0.877,-0.250
5.451,-0.336,0.879,-0.248
5.460,-0.336,0.875,-0.248
5.470,-0.336,0.877,-0.248
5.480,-0.330,0.875,-0.248
5.490,-0.332,0.881,-0.248
5.500,-0.330,0.879,-0.250
5.510,-0.332,0.881,-0.248
5.520,-0.334,0.877,-0.250
5.530,-0.334,0.877,-0.248
5.540,-0.334,0.881,-0.246
5.550,-0.334,0.879,-0.250
5.560,-0.334,0.877,-0.250
5.570,-0.332,0.877,-0.250
5.580,-0.336,0.879,-0.248
5.589,-0.334,0.875,-0.250
5.599,-0.332,0.877,-0.248
5.609,-0.334,0.877,-0.250
5.619,-0.334,0.879,-0.248
5.629,-0.332,0.879,-0.252
5.639,-0.330,0.877,-0.248
5.649,-0.336,0.879,-0.250
5.659,-0.330,0.877,-0.248
5.669,-0.336,0.877,-0.250
5.679,-0.332,0.875,-0.252
5.689,-0.336,0.877,-0.252
5.699,-0.334,0.879,-0.250
5.709,-0.334,0.877,-0.252
5.718,-0.334,0.877,-0.252
5.728,-0.334,0.875,-0.250
5.738,-0.336,0.877,-0.248
5.748,-0.336,0.877,-0.248
5.758,-0.336,0.879,-0.248
5.768,-0.336,0.877,-0.248
5.778,-0.336,0.877,-0.250
5.788,-0.338,0.877,-0.252
5.798,-0.336,0.877,-0.248
5.808,-0.340,0.879,-0.248
5.818,-0.338,0.877,-0.248
5.828,-0.338,0.879,-0.246
5.838,-0.342,0.879,-0.250
5.847,-0.338,0.877,-0.250
5.857,-0.338,0.877,-0.248
5.867,-0.342,0.877,-0.248
5.877,-0.340,0.879,-0.246
5.887,-0.340,0.877,-0.248
5.897,-0.338,0.875,-0.250
5.907,-0.338,0.879,-0.250
5.917,-0.336,0.881,-0.248
5.927,-0.336,0.875,-0.248
5.937,-0.338,0.879,-0.246
5.947,-0.340,0.875,-0.246
5.957,-0.338,0.873,-0.250
5.967,-0.338,0.871,-0.246
5.976,-0.334,0.877,-0.248
5.986,-0.338,0.879,-0.246
5.996,-0.338,0.881,-0.246
6.006,-0.336,0.879,-0.246
6.016,-0.338,0.881,-0.250
6.026,-0.334,0.881,-0.252
6.036,-0.338,0.877,-0.250
6.046,-0.338,0.873,-0.246
6.056,-0.340,0.875,-0.250
6.066,-0.338,0.871,-0.248
6.076,-0.338,0.871,-0.252
6.086,-0.334,0.875,-0.250
6.096,-0.334,0.875,-0.248
6.105,-0.336,0.877,-0.250
6.115,-0.334,0.879,-0.250
6.125,-0.334,0.877,-0.250
6.135,-0.334,0.875,-0.254
6.145,-0.334,0.875,-0.252
6.155,-0.334,0.875,-0.248
6.165,-0.334,0.875,-0.252
6.175,-0.332,0.875,-0.252
6.185,-0.336,0.875,-0.252
6.195,-0.336,0.875,-0.252
6.205,-0.338,0.879,-0.250
6.215,-0.342,0.877,-0.250
6.225,-0.336,0.873,-0.252
6.234,-0.336,0.873,-0.250
6.244,-0.338,0.875,-0.248
6.254,-0.336,0.879,-0.254
6.264,-0.334,0.881,-0.248
6.274,-0.334,0.881,-0.250
6.284,-0.336,0.879,-0.250
6.294,-0.334,0.879,-0.248
6.304,-0.338,0.877,-0.246
6.314,-0.336,0.879,-0.250
6.324,-0.336,0.877,-0.248
6.334,-0.336,0.877,-0.250
6.344,-0.334,0.875,-0.250
6.354,-0.340,0.873,-0.250
6.363,-0.338,0.875,-0.246
6.373,-0.340,0.877,-0.250
6.383,-0.334,0.879,-0.248
6.393,-0.336,0.875,-0.252
6.403,-0.338,0.879,-0.252
6.413,-0.338,0.877,-0.250
6.423,-0.338,0.875,-0.252
6.433,-0.338,0.875,-0.250
6.443,-0.338,0.873,-0.250
6.453,-0.340,0.875,-0.250
6.463,-0.336,0.875,-0.250
6.473,-0.336,0.875,-0.248
6.483,-0.338,0.877,-0.246
6.492,-0.338,0.875,-0.250
6.502,-0.338,0.875,-0.252
6.512,-0.338,0.875,-0.252
6.522,-0.336,0.879,-0.248
6.532,-0.338,0.879,-0.248
6.542,-0.342,0.877,-0.250
6.552,-0.342,0.877,-0.248
6.562,-0.340,0.875,-0.248
6.572,-0.340,0.877,-0.250
6.582,-0.344,0.875,-0.248
6.592,-0.344,0.875,-0.248
6.602,-0.342,0.873,-0.250
6.612,-0.340,0.877,-0.248
6.621,-0.342,0.877,-0.244
6.631,-0.342,0.875,-0.248
6.641,-0.340,0.877,-0.250
6.651,-0.340,0.879,-0.246
6.661,-0.340,0.877,-0.248
6.671,-0.344,0.873,-0.246
6.681,-0.340,0.875,-0.244
6.691,-0.342,0.871,-0.244
6.701,-0.340,0.877,-0.244
6.711,-0.340,0.877,-0.246
6.721,-0.336,0.877,-0.248
6.731,-0.340,0.879,-0.248
6.741,-0.340,0.879,-0.246
6.750,-0.344,0.879,-0.250
6.760,-0.342,0.875,-0.248
6.770,-0.344,0.875,-0.250
6.780,-0.346,0.869,-0.248
6.790,-0.350,0.867,-0.252
6.800,-0.348,0.867,-0.248
6.810,-0.342,0.871,-0.248
6.820,-0.342,0.873,-0.250
6.830,-0.342,0.877,-0.246
6.840,-0.340,0.877,-0.248
6.850,-0.340,0.879,-0.242
6.860,-0.332,0.881,-0.244
6.870,-0.334,0.883,-0.242
6.879,-0.334,0.877,-0.244
6.889,-0.330,0.879,-0.244
6.899,-0.336,0.879,-0.246
6.909,-0.338,0.885,-0.246
6.919,-0.332,0.883,-0.246
6.929,-0.334,0.883,-0.242
6.939,-0.336,0.881,-0.246
6.949,-0.338,0.877,-0.246
6.959,-0.338,0.873,-0.244
6.969,-0.342,0.879,-0.244
6.979,-0.340,0.879,-0.246
6.989,-0.340,0.879,-0.248
6.999,-0.342,0.881,-0.248
7.008,-0.346,0.881,-0.246
7.018,-0.346,0.881,-0.252
7.028,-0.348,0.879,-0.246
7.038,-0.346,0.877,-0.246
7.048,-0.346,0.875,-0.244
7.058,-0.344,0.877,-0.246
7.068,-0.346,0.875,-0.244
7.078,-0.344,0.875,-0.242
7.088,-0.346,0.873,-0.244
7.098,-0.344,0.877,-0.246
7.108,-0.342,0.879,-0.244
7.118,-0.340,0.877,-0.246
7.128,-0.340,0.879,-0.246
7.137,-0.338,0.877,-0.246
7.147,-0.340,0.877,-0.248
7.157,-0.338,0.873,-0.246
7.167,-0.340,0.879,-0.248
7.177,-0.338,0.875,-0.246
7.187,-0.340,0.875,-0.248
7.197,-0.342,0.875,-0.242
7.207,-0.340,0.873,-0.246
7.217,-0.342,0.875,-0.248
7.227,-0.342,0.875,-0.248
7.237,-0.344,0.875,-0.244
7.247,-0.342,0.877,-0.240
7.257,-0.346,0.875,-0.244
7.266,-0.346,0.873,-0.242
7.276,-0.346,0.877,-0.244
7.286,-0.346,0.877,-0.244
7.296,-0.344,0.875,-0.244
7.306,-0.346,0.879,-0.244
7.316,-0.346,0.875,-0.246
7.326,-0.346,0.875,-0.242
7.336,-0.346,0.877,-0.244
7.346,-0.346,0.875,-0.248
7.356,-0.346,0.881,-0.244
7.366,-0.346,0.875,-0.244
7.376,-0.344,0.873,-0.244
7.385,-0.346,0.873,-0.246
7.395,-0.342,0.877,-0.246
7.405,-0.340,0.877,-0.246
7.415,-0.340,0.877,-0.244
7.425,-0.346,0.877,-0.242
7.435,-0.346,0.875,-0.244
7.445,-0.344,0.873,-0.244
7.455,-0.344,0.877,-0.246
7.465,-0.344,0.877,-0.246
7.475,-0.346,0.883,-0.242
7.485,-0.344,0.881,-0.248
7.495,-0.340,0.881,-0.246
7.505,-0.346,0.879,-0.244
7.514,-0.342,0.877,-0.244
7.524,-0.348,0.877,-0.246
7.534,-0.348,0.873,-0.244
7.544,-0.348,0.873,-0.246
7.554,-0.348,0.871,-0.242
7.564,-0.344,0.873,-0.242
7.574,-0.344,0.877,-0.244
7.584,-0.344,0.881,-0.240
7.594,-0.344,0.877,-0.242
7.604,-0.344,0.877,-0.242
7.614,-0.342,0.875,-0.244
7.624,-0.346,0.875,-0.240
7.634,-0.346,0.877,-0.244
7.643,-0.344,0.873,-0.242
7.653,-0.344,0.875,-0.246
7.663,-0.342,0.875,-0.244
7.673,-0.346,0.875,-0.246
7.683,-0.348,0.877,-0.244
7.693,-0.348,0.879,-0.244
7.703,-0.348,0.879,-0.244
7.713,-0.348,0.873,-0.244
7.723,-0.348,0.877,-0.244
7.733,-0.350,0.875,-0.246
7.743,-0.344,0.877,-0.246
7.753,-0.344,0.879,-0.244
7.763,-0.342,0.877,-0.244
7.772,-0.346,0.877,-0.244
7.782,-0.344,0.873,-0.246
7.792,-0.348,0.875,-0.242
7.802,-0.344,0.877,-0.246
7.812,-0.346,0.875,-0.244
7.822,-0.346,0.879,-0.246
7.832,-0.346,0.881,-0.242
7.842,-0.342,0.879,-0.242
7.852,-0.340,0.877,-0.242
7.862,-0.340,0.879,-0.242
7.872,-0.342,0.877,-0.242
7.882,-0.342,0.877,-0.242
7.892,-0.338,0.879,-0.242
7.901,-0.340,0.877,-0.246
7.911,-0.340,0.877,-0.240
7.921,-0.340,0.877,-0.242
7.931,-0.342,0.879,-0.242
7.941,-0.338,0.875,-0.244
7.951,-0.340,0.875,-0.246
7.961,-0.344,0.877,-0.246
7.971,-0.342,0.875,-0.242
7.981,-0.346,0.873,-0.242
7.991,-0.346,0.875,-0.244
8.001,-0.344,0.879,-0.244
8.011,-0.342,0.879,-0.242
8.021,-0.344,0.877,-0.244
8.030,-0.342,0.879,-0.240
8.040,-0.342,0.879,-0.242
8.050,-0.340,0.875,-0.244
8.060,-0.344,0.875,-0.248
8.070,-0.344,0.879,-0.246
8.080,-0.342,0.877,-0.244
8.090,-0.342,0.875,-0.242
8.100,-0.344,0.875,-0.244
8.110,-0.342,0.875,-0.248
8.120,-0.344,0.875,-0.246
8.130,-0.344,0.875,-0.242
8.140,-0.346,0.873,-0.244
8.150,-0.344,0.879,-0.244
8.159,-0.344,0.875,-0.244
8.169,-0.344,0.875,-0.244
8.179,-0.344,0.877,-0.244
8.189,-0.344,0.875,-0.242
8.199,-0.344,0.873,-0.244
8.209,-0.342,0.875,-0.244
8.219,-0.344,0.875,-0.244
8.229,-0.344,0.875,-0.242
8.239,-0.344,0.879,-0.244
8.249,-0.342,0.877,-0.244
8.259,-0.344,0.877,-0.242
8.269,-0.346,0.877,-0.246
8.279,-0.346,0.873,-0.242
8.288,-0.350,0.871,-0.246
8.298,-0.350,0.873,-0.244
8.308,-0.346,0.873,-0.244
8.318,-0.346,0.875,-0.242
8.328,-0.344,0.875,-0.242
8.338,-0.344,0.879,-0.240
8.348,-0.346,0.875,-0.244
8.358,-0.342,0.875,-0.244
8.368,-0.346,0.877,-0.244
8.378,-0.344,0.875,-0.242
8.388,-0.344,0.873,-0.242
8.398,-0.346,0.879,-0.246
8.408,-0.342,0.873,-0.246
8.417,-0.346,0.875,-0.246
8.427,-0.346,0.875,-0.246
8.437,-0.350,0.875,-0.244
8.447,-0.348,0.877,-0.246
8.457,-0.348,0.881,-0.242
8.467,-0.348,0.875,-0.246
8.477,-0.348,0.871,-0.244
8.487,-0.346,0.875,-0.244
8.497,-0.342,0.873,-0.242
8.507,-0.344,0.879,-0.244
8.517,-0.346,0.879,-0.244
8.527,-0.344,0.881,-0.244
8.537,-0.344,0.879,-0.242
8.546,-0.342,0.877,-0.246
8.556,-0.344,0.879,-0.240
8.566,-0.342,0.877,-0.244
8.576,-0.342,0.877,-0.242
8.586,-0.342,0.875,-0.242
8.596,-0.348,0.875,-0.244
8.606,-0.346,0.877,-0.246
8.616,-0.342,0.875,-0.242
8.626,-0.342,0.879,-0.244
8.636,-0.342,0.877,-0.246
8.646,-0.342,0.877,-0.244
8.656,-0.344,0.875,-0.240
8.666,-0.344,0.877,-0.244
8.675,-0.344,0.879,-0.246
8.685,-0.346,0.877,-0.246
8.695,-0.348,0.873,-0.250
8.705,-0.344,0.871,-0.244
8.715,-0.344,0.877,-0.244
8.725,-0.348,0.877,-0.246
8.735,-0.344,0.875,-0.248
8.745,-0.344,0.877,-0.244
8.755,-0.340,0.875,-0.244
8.765,-0.342,0.877,-0.246
8.775,-0.344,0.877,-0.244
8.785,-0.342,0.877,-0.242
8.795,-0.340,0.881,-0.244
8.804,-0.338,0.879,-0.246
8.814,-0.342,0.881,-0.244
8.824,-0.344,0.879,-0.246
8.834,-0.342,0.873,-0.244
8.844,-0.344,0.877,-0.240
8.854,-0.346,0.875,-0.240
8.864,-0.346,0.879,-0.242
8.874,-0.342,0.877,-0.244
8.884,-0.346,0.879,-0.242
8.894,-0.344,0.879,-0.246
8.904,-0.346,0.875,-0.244
8.914,-0.346,0.877,-0.242
8.924,-0.346,0.877,-0.246
8.933,-0.344,0.873,-0.246
8.943,-0.346,0.873,-0.246
8.953,-0.344,0.873,-0.244
8.963,-0.338,0.875,-0.240
8.973,-0.342,0.877,-0.242
8.983,-0.342,0.879,-0.246
8.993,-0.344,0.879,-0.244
9.003,-0.340,0.881,-0.242
9.013,-0.344,0.877,-0.244
9.023,-0.344,0.879,-0.248
9.033,-0.344,0.875,-0.242
9.043,-0.344,0.875,-0.244
9.053,-0.342,0.873,-0.242
9.062,-0.340,0.875,-0.244
9.072,-0.342,0.875,-0.242
9.082,-0.344,0.877,-0.244
9.092,-0.344,0.879,-0.240
9.102,-0.342,0.877,-0.240
9.112,-0.344,0.875,-0.240
9.122,-0.344,0.879,-0.242
9.132,-0.344,0.879,-0.242
9.142,-0.346,0.873,-0.246
9.152,-0.346,0.873,-0.244
9.162,-0.344,0.877,-0.244
9.172,-0.346,0.877,-0.244
9.182,-0.348,0.877,-0.244
9.191,-0.348,0.877,-0.240
9.201,-0.346,0.881,-0.244
9.211,-0.348,0.873,-0.242
9.221,-0.346,0.875,-0.244
9.231,-0.344,0.871,-0.242
9.241,-0.344,0.877,-0.242
9.251,-0.346,0.879,-0.244
9.261,-0.344,0.879,-0.246
9.271,-0.342,0.877,-0.244
9.281,-0.344,0.879,-0.242
9.291,-0.344,0.877,-0.244
9.301,-0.344,0.877,-0.246
9.311,-0.346,0.877,-0.244
9.320,-0.348,0.881,-0.246
9.330,-0.348,0.877,-0.242
9.340,-0.350,0.875,-0.246
9.350,-0.348,0.875,-0.240
9.360,-0.344,0.879,-0.242
9.370,-0.342,0.875,-0.242
9.380,-0.348,0.875,-0.246
9.390,-0.344,0.877,-0.240
9.400,-0.344,0.879,-0.242
9.410,-0.346,0.879,-0.240
9.420,-0.344,0.879,-0.240
9.430,-0.346,0.877,-0.242
9.440,-0.342,0.877,-0.240
9.449,-0.342,0.875,-0.242
9.459,-0.346,0.875,-0.242
9.469,-0.348,0.875,-0.244
9.479,-0.346,0.875,-0.242
9.489,-0.350,0.877,-0.240
9.499,-0.350,0.877,-0.240
9.509,-0.346,0.873,-0.244
9.519,-0.348,0.877,-0.242
9.529,-0.350,0.873,-0.242
9.539,-0.348,0.873,-0.242
9.549,-0.350,0.877,-0.242
9.559,-0.350,0.879,-0.240
9.568,-0.348,0.875,-0.246
9.578,-0.352,0.879,-0.242
9.588,-0.352,0.875,-0.242
9.598,-0.354,0.873,-0.244
9.608,-0.350,0.873,-0.242
9.618,-0.348,0.873,-0.244
9.628,-0.352,0.875,-0.244
9.638,-0.350,0.873,-0.238
9.648,-0.350,0.879,-0.242
9.658,-0.350,0.875,-0.242
9.668,-0.352,0.877,-0.240
9.678,-0.348,0.875,-0.242
9.688,-0.350,0.875,-0.238
9.697,-0.354,0.875,-0.242
9.707,-0.346,0.875,-0.240
9.717,-0.346,0.875,-0.240
9.727,-0.344,0.883,-0.240
9.737,-0.344,0.883,-0.242
9.747,-0.346,0.881,-0.242
9.757,-0.342,0.879,-0.244
9.767,-0.346,0.879,-0.240
9.777,-0.346,0.875,-0.240
9.787,-0.346,0.871,-0.242
9.797,-0.346,0.871,-0.242
9.807,-0.346,0.873,-0.244
9.817,-0.346,0.871,-0.244
9.826,-0.348,0.875,-0.242
9.836,-0.346,0.877,-0.242
9.846,-0.350,0.877,-0.244
9.856,-0.348,0.875,-0.242
9.866,-0.346,0.875,-0.244
9.876,-0.350,0.877,-0.244
9.886,-0.346,0.877,-0.244
9.896,-0.348,0.875,-0.244
9.906,-0.348,0.879,-0.246
9.916,-0.350,0.875,-0.248
9.926,-0.348,0.875,-0.246
9.936,-0.352,0.877,-0.246
9.946,-0.354,0.875,-0.246
9.955,-0.354,0.871,-0.246
9.965,-0.352,0.871,-0.242
9.975,-0.348,0.875,-0.244
9.985,-0.350,0.877,-0.246
9.995,-0.348,0.877,-0.244
10.005,-0.348,0.879,-0.246
10.015,-0.350,0.875,-0.244
10.025,-0.350,0.877,-0.244
10.035,-0.352,0.875,-0.244
10.045,-0.348,0.875,-0.244
10.055,-0.346,0.881,-0.240
10.065,-0.346,0.873,-0.242
10.075,-0.342,0.877,-0.240
10.084,-0.344,0.873,-0.240
10.094,-0.342,0.879,-0.242
10.104,-0.344,0.879,-0.240
10.114,-0.342,0.881,-0.242
10.124,-0.344,0.879,-0.240
10.134,-0.348,0.881,-0.240
10.144,-0.348,0.879,-0.242
10.154,-0.348,0.879,-0.240
10.164,-0.348,0.879,-0.242
10.174,-0.348,0.877,-0.244
10.184,-0.346,0.875,-0.240
10.194,-0.350,0.875,-0.244
10.204,-0.350,0.875,-0.242
10.213,-0.350,0.875,-0.240
10.223,-0.350,0.877,-0.244
10.233,-0.352,0.875,-0.244
10.243,-0.350,0.871,-0.240
10.253,-0.350,0.877,-0.240
10.263,-0.348,0.873,-0.238
10.273,-0.348,0.877,-0.240
10.283,-0.350,0.877,-0.242
10.293,-0.352,0.877,-0.244
10.303,-0.352,0.875,-0.240
10.313,-0.350,0.875,-0.242
10.323,-0.350,0.875,-0.240
10.333,-0.354,0.877,-0.242
10.342,-0.350,0.875,-0.238
10.352,-0.352,0.877,-0.240
10.362,-0.352,0.877,-0.242
10.372,-0.352,0.875,-0.242
10.382,-0.348,0.873,-0.240
10.392,-0.348,0.873,-0.240
10.402,-0.346,0.871,-0.242
10.412,-0.352,0.873,-0.242
10.422,-0.350,0.877,-0.242
10.432,-0.348,0.877,-0.240
10.442,-0.348,0.879,-0.242
10.452,-0.348,0.881,-0.240
10.462,-0.346,0.881,-0.240
10.471,-0.342,0.879,-0.238
10.481,-0.348,0.877,-0.244
10.491,-0.350,0.873,-0.242
10.501,-0.348,0.873,-0.242
10.511,-0.352,0.873,-0.242
10.521,-0.352,0.875,-0.240
10.531,-0.350,0.875,-0.242
10.541,-0.352,0.877,-0.240
10.551,-0.348,0.875,-0.242
10.561,-0.350,0.877,-0.244
10.571,-0.348,0.873,-0.240
10.581,-0.350,0.877,-0.242
10.591,-0.348,0.875,-0.242
10.600,-0.350,0.875,-0.246
10.610,-0.350,0.875,-0.244
10.620,-0.352,0.875,-0.242
10.630,-0.348,0.877,-0.242
10.640,-0.352,0.873,-0.244
10.650,-0.352,0.875,-0.242
10.660,-0.355,0.873,-0.246
10.670,-0.354,0.869,-0.242
10.680,-0.355,0.873,-0.242
10.690,-0.355,0.877,-0.244
10.700,-0.355,0.877,-0.242
10.710,-0.352,0.881,-0.244
10.720,-0.350,0.879,-0.242
10.729,-0.346,0.879,-0.240
10.739,-0.346,0.875,-0.242
10.749,-0.348,0.871,-0.240
10.759,-0.344,0.879,-0.240
10.769,-0.346,0.875,-0.242
10.779,-0.346,0.875,-0.242
10.789,-0.346,0.873,-0.242
10.799,-0.344,0.873,-0.242
10.809,-0.342,0.875,-0.244
10.819,-0.346,0.875,-0.242
10.829,-0.346,0.877,-0.242
10.839,-0.344,0.877,-0.242
10.849,-0.348,0.877,-0.242
10.858,-0.344,0.877,-0.246
10.868,-0.344,0.875,-0.242
10.878,-0.346,0.873,-0.242
10.888,-0.346,0.875,-0.248
10.898,-0.346,0.873,-0.244
10.908,-0.344,0.875,-0.244
10.918,-0.348,0.875,-0.244
10.928,-0.344,0.877,-0.246
10.938,-0.346,0.873,-0.246
10.948,-0.346,0.877,-0.242
10.958,-0.348,0.873,-0.244
10.968,-0.346,0.875,-0.246
10.978,-0.344,0.879,-0.242
10.987,-0.346,0.879,-0.242
10.997,-0.346,0.875,-0.244
11.007,-0.348,0.877,-0.242
11.017,-0.346,0.877,-0.246
11.027,-0.348,0.879,-0.244
11.037,-0.350,0.877,-0.244
11.047,-0.348,0.877,-0.242
11.057,-0.350,0.877,-0.244
11.067,-0.348,0.879,-0.242
11.077,-0.346,0.873,-0.244
11.087,-0.350,0.877,-0.244
11.097,-0.346,0.881,-0.240
11.107,-0.346,0.879,-0.244
11.116,-0.346,0.877,-0.244
11.126,-0.348,0.877,-0.244
11.136,-0.350,0.873,-0.242
11.146,-0.348,0.875,-0.242
11.156,-0.346,0.879,-0.240
11.166,-0.344,0.879,-0.242
11.176,-0.346,0.877,-0.246
11.186,-0.346,0.877,-0.246
11.196,-0.348,0.881,-0.244
11.206,-0.348,0.881,-0.244
11.216,-0.348,0.873,-0.244
11.226,-0.350,0.873,-0.240
11.236,-0.352,0.873,-0.244
11.245,-0.348,0.875,-0.242
11.255,-0.350,0.875,-0.242
11.265,-0.350,0.873,-0.240
11.275,-0.346,0.879,-0.244
11.285,-0.350,0.877,-0.240
11.295,-0.348,0.875,-0.242
11.305,-0.348,0.877,-0.244
11.315,-0.348,0.879,-0.242
11.325,-0.348,0.875,-0.242
11.335,-0.350,0.875,-0.242
11.345,-0.346,0.877,-0.244
11.355,-0.352,0.877,-0.240
11.365,-0.348,0.875,-0.242
11.374,-0.346,0.875,-0.246
11.384,-0.350,0.877,-0.244
11.394,-0.352,0.875,-0.244
11.404,-0.354,0.873,-0.242
11.414,-0.352,0.877,-0.240
11.424,-0.350,0.877,-0.244
11.434,-0.348,0.877,-0.244
11.444,-0.346,0.879,-0.244
11.454,-0.346,0.881,-0.242
11.464,-0.350,0.877,-0.244
11.474,-0.348,0.879,-0.240
11.484,-0.350,0.877,-0.240
11.494,-0.342,0.873,-0.240
11.503,-0.344,0.879,-0.242
11.513,-0.346,0.875,-0.244
11.523,-0.348,0.877,-0.246
11.533,-0.344,0.875,-0.244
11.543,-0.350,0.875,-0.242
11.553,-0.348,0.875,-0.242
11.563,-0.348,0.877,-0.244
11.573,-0.346,0.875,-0.244
11.583,-0.350,0.881,-0.246
11.593,-0.344,0.877,-0.248
11.603,-0.348,0.877,-0.244
11.613,-0.346,0.875,-0.244
11.623,-0.346,0.877,-0.240
11.632,-0.348,0.873,-0.242
11.642,-0.346,0.875,-0.244
11.652,-0.348,0.873,-0.246
11.662,-0.348,0.875,-0.242
11.672,-0.348,0.873,-0.246
11.682,-0.344,0.873,-0.246
11.692,-0.348,0.875,-0.242
11.702,-0.344,0.877,-0.244
11.712,-0.344,0.877,-0.244
11.722,-0.346,0.875,-0.242
11.732,-0.344,0.877,-0.244
11.742,-0.346,0.877,-0.244
11.752,-0.348,0.877,-0.242
11.761,-0.350,0.877,-0.244
11.771,-0.348,0.877,-0.244
11.781,-0.348,0.879,-0.242
11.791,-0.350,0.877,-0.242
11.801,-0.350,0.875,-0.240
11.811,-0.350,0.875,-0.246
11.821,-0.348,0.875,-0.242
11.831,-0.350,0.879,-0.240
11.841,-0.346,0.879,-0.242
11.851,-0.348,0.875,-0.244
11.861,-0.346,0.879,-0.244
11.871,-0.350,0.875,-0.238
11.880,-0.350,0.873,-0.240
11.890,-0.344,0.875,-0.240
11.900,-0.348,0.879,-0.244
11.910,-0.344,0.879,-0.242
11.920,-0.346,0.881,-0.244
11.930,-0.346,0.879,-0.244
11.940,-0.348,0.879,-0.244
11.950,-0.350,0.875,-0.248
11.960,-0.350,0.871,-0.244
11.970,-0.352,0.871,-0.246
11.980,-0.354,0.873,-0.242
11.990,-0.352,0.875,-0.246
12.000,-0.350,0.875,-0.244
12.009,-0.352,0.875,-0.240
12.019,-0.350,0.877,-0.246
12.029,-0.348,0.877,-0.244
12.039,-0.350,0.877,-0.246
12.049,-0.350,0.873,-0.242
12.059,-0.348,0.875,-0.244
12.069,-0.346,0.875,-0.244
12.079,-0.348,0.877,-0.244
12.089,-0.348,0.873,-0.242
12.099,-0.350,0.873,-0.246
12.109,-0.350,0.875,-0.248
12.119,-0.350,0.875,-0.246
12.129,-0.348,0.881,-0.246
12.138,-0.352,0.873,-0.248
12.148,-0.354,0.875,-0.244
12.158,-0.348,0.877,-0.246
12.168,-0.346,0.873,-0.244
12.178,-0.348,0.879,-0.244
12.188,-0.348,0.877,-0.244
12.198,-0.348,0.877,-0.246
12.208,-0.350,0.879,-0.246
12.218,-0.348,0.879,-0.244
12.228,-0.350,0.875,-0.246
12.238,-0.346,0.875,-0.246
12.248,-0.348,0.877,-0.244
12.258,-0.348,0.879,-0.248
12.267,-0.348,0.873,-0.248
12.277,-0.348,0.875,-0.246
12.287,-0.344,0.875,-0.244
12.297,-0.346,0.875,-0.242
12.307,-0.344,0.877,-0.246
12.317,-0.348,0.877,-0.244
12.327,-0.344,0.879,-0.246
12.337,-0.344,0.875,-0.244
12.347,-0.348,0.877,-0.248
12.357,-0.350,0.875,-0.244
12.367,-0.350,0.875,-0.246
12.377,-0.348,0.869,-0.248
12.387,-0.350,0.875,-0.248
12.396,-0.350,0.871,-0.248
12.406,-0.348,0.873,-0.248
12.416,-0.346,0.875,-0.248
12.426,-0.346,0.875,-0.244
12.436,-0.346,0.879,-0.244
12.446,-0.344,0.877,-0.246
12.456,-0.344,0.873,-0.242
12.466,-0.348,0.877,-0.242
12.476,-0.348,0.875,-0.246
12.486,-0.346,0.875,-0.244
12.496,-0.346,0.877,-0.244
12.506,-0.346,0.877,-0.250
12.516,-0.348,0.877,-0.244
12.525,-0.348,0.875,-0.244
12.535,-0.346,0.879,-0.244
12.545,-0.344,0.877,-0.246
12.555,-0.348,0.871,-0.246
12.565,-0.346,0.875,-0.246
12.575,-0.344,0.877,-0.242
12.585,-0.350,0.873,-0.246
12.595,-0.346,0.875,-0.244
12.605,-0.348,0.879,-0.244
12.615,-0.350,0.873,-0.242
12.625,-0.348,0.875,-0.246
12.635,-0.348,0.875,-0.246
12.645,-0.346,0.879,-0.244
12.654,-0.344,0.877,-0.246
12.664,-0.346,0.881,-0.246
12.674,-0.346,0.877,-0.248
12.684,-0.350,0.877,-0.248
12.694,-0.354,0.875,-0.248
12.704,-0.352,0.871,-0.248
12.714,-0.354,0.871,-0.248
12.724,-0.354,0.871,-0.248
12.734,-0.355,0.875,-0.248
12.744,-0.354,0.877,-0.246
12.754,-0.354,0.879,-0.244
12.764,-0.354,0.881,-0.240
12.774,-0.346,0.877,-0.236
12.783,-0.342,0.881,-0.238
12.793,-0.336,0.879,-0.240
12.803,-0.334,0.885,-0.240
12.813,-0.330,0.875,-0.240
12.823,-0.334,0.871,-0.240
12.833,-0.344,0.871,-0.244
12.843,-0.348,0.873,-0.246
12.853,-0.354,0.873,-0.252
12.863,-0.354,0.879,-0.254
12.873,-0.352,0.881,-0.254
12.883,-0.350,0.879,-0.252
12.893,-0.340,0.883,-0.250
12.903,-0.336,0.879,-0.250
12.912,-0.338,0.883,-0.252
12.922,-0.340,0.881,-0.254
12.932,-0.340,0.877,-0.254
12.942,-0.348,0.877,-0.254
12.952,-0.342,0.875,-0.250
12.962,-0.348,0.881,-0.254
12.972,-0.359,0.883,-0.258
12.982,-0.350,0.873,-0.252
12.992,-0.342,0.871,-0.246
13.002,-0.338,0.871,-0.244
13.012,-0.338,0.873,-0.244
13.022,-0.338,0.875,-0.244
13.032,-0.328,0.887,-0.242
13.041,-0.318,0.896,-0.246
13.051,-0.314,0.898,-0.238
13.061,-0.312,0.898,-0.232
13.071,-0.309,0.902,-0.232
13.081,-0.303,0.902,-0.227
13.091,-0.301,0.906,-0.229
13.101,-0.297,0.906,-0.229
13.111,-0.297,0.904,-0.229
13.121,-0.295,0.900,-0.240
13.131,-0.297,0.898,-0.244
13.141,-0.297,0.891,-0.254
13.151,-0.303,0.889,-0.266
13.161,-0.307,0.883,-0.275
13.170,-0.311,0.879,-0.289
13.180,-0.318,0.873,-0.301
13.190,-0.322,0.869,-0.305
13.200,-0.322,0.863,-0.307
13.210,-0.320,0.863,-0.311
13.220,-0.312,0.861,-0.312
13.230,-0.307,0.867,-0.320
13.240,-0.305,0.865,-0.322
13.250,-0.301,0.867,-0.328
13.260,-0.295,0.859,-0.336
13.270,-0.293,0.857,-0.336
13.280,-0.293,0.848,-0.338
13.290,-0.293,0.844,-0.344
13.299,-0.291,0.850,-0.348
13.309,-0.293,0.848,-0.352
13.319,-0.289,0.848,-0.354
13.329,-0.289,0.848,-0.352
13.339,-0.289,0.846,-0.354
13.349,-0.291,0.844,-0.357
13.359,-0.285,0.844,-0.355
13.369,-0.283,0.844,-0.355
13.379,-0.283,0.844,-0.355
13.389,-0.281,0.848,-0.355
13.399,-0.281,0.852,-0.359
13.409,-0.283,0.854,-0.357
13.419,-0.281,0.857,-0.359
13.428,-0.277,0.852,-0.357
13.438,-0.281,0.848,-0.352
13.448,-0.279,0.848,-0.354
13.458,-0.275,0.848,-0.354
13.468,-0.273,0.848,-0.354
13.478,-0.273,0.852,-0.350
13.488,-0.275,0.850,-0.352
13.498,-0.277,0.854,-0.350
13.508,-0.279,0.854,-0.350
13.518,-0.279,0.855,-0.354
13.528,-0.275,0.854,-0.348
13.538,-0.277,0.857,-0.352
13.548,-0.277,0.855,-0.354
13.557,-0.273,0.855,-0.348
13.567,-0.270,0.855,-0.352
13.577,-0.271,0.857,-0.354
13.587,-0.268,0.857,-0.352
13.597,-0.268,0.859,-0.354
13.607,-0.271,0.857,-0.350
13.617,-0.271,0.852,-0.350
13.627,-0.271,0.859,-0.348
13.637,-0.268,0.861,-0.357
13.647,-0.268,0.861,-0.354
13.657,-0.266,0.859,-0.355
13.667,-0.264,0.865,-0.355
13.677,-0.270,0.861,-0.355
13.686,-0.268,0.859,-0.355
13.696,-0.271,0.855,-0.355
13.706,-0.270,0.854,-0.355
13.716,-0.275,0.855,-0.357
13.726,-0.279,0.854,-0.354
13.736,-0.279,0.852,-0.361
13.746,-0.279,0.852,-0.357
13.756,-0.281,0.854,-0.359
13.766,-0.283,0.859,-0.359
13.776,-0.283,0.859,-0.357
13.786,-0.285,0.859,-0.359
13.796,-0.281,0.855,-0.357
13.806,-0.283,0.857,-0.355
13.815,-0.281,0.857,-0.354
13.825,-0.281,0.859,-0.354
13.835,-0.281,0.859,-0.357
13.845,-0.279,0.857,-0.354
13.855,-0.277,0.857,-0.352
13.865,-0.277,0.857,-0.354
13.875,-0.277,0.857,-0.354
13.885,-0.277,0.857,-0.350
13.895,-0.275,0.855,-0.354
13.905,-0.275,0.854,-0.350
13.915,-0.277,0.857,-0.350
13.925,-0.277,0.857,-0.352
13.935,-0.277,0.855,-0.350
13.944,-0.281,0.855,-0.350
13.954,-0.281,0.857,-0.348
13.964,-0.279,0.855,-0.348
13.974,-0.279,0.855,-0.350
13.984,-0.279,0.854,-0.346
13.994,-0.277,0.855,-0.346
14.004,-0.279,0.857,-0.350
14.014,-0.279,0.857,-0.342
14.024,-0.283,0.857,-0.344
14.034,-0.285,0.861,-0.342
14.044,-0.279,0.857,-0.344
14.054,-0.279,0.861,-0.344
14.063,-0.283,0.857,-0.344
14.073,-0.281,0.857,-0.344
14.083,-0.283,0.859,-0.346
14.093,-0.285,0.857,-0.346
14.103,-0.289,0.863,-0.348
14.113,-0.289,0.859,-0.346
14.123,-0.291,0.859,-0.346
14.133,-0.293,0.859,-0.346
14.143,-0.295,0.855,-0.348
14.153,-0.297,0.855,-0.346
14.163,-0.295,0.852,-0.346
14.173,-0.295,0.857,-0.348
14.183,-0.297,0.855,-0.350
14.192,-0.297,0.857,-0.346
14.202,-0.297,0.859,-0.348
14.212,-0.297,0.857,-0.348
14.222,-0.295,0.855,-0.348
14.232,-0.293,0.854,-0.346
14.242,-0.295,0.852,-0.350
14.252,-0.297,0.855,-0.348
14.262,-0.295,0.857,-0.348
14.272,-0.293,0.857,-0.350
14.282,-0.297,0.852,-0.352
14.292,-0.297,0.850,-0.348
14.302,-0.297,0.852,-0.344
14.312,-0.297,0.850,-0.346
14.321,-0.299,0.852,-0.348
14.331,-0.295,0.855,-0.348
14.341,-0.295,0.855,-0.348
14.351,-0.293,0.854,-0.346
14.361,-0.287,0.854,-0.342
14.371,-0.289,0.852,-0.344
14.381,-0.293,0.854,-0.348
14.391,-0.299,0.854,-0.346
14.401,-0.299,0.855,-0.348
14.411,-0.301,0.857,-0.344
14.421,-0.307,0.855,-0.344
14.431,-0.309,0.854,-0.346
14.441,-0.305,0.854,-0.346
14.450,-0.309,0.857,-0.346
14.460,-0.307,0.855,-0.348
14.470,-0.305,0.859,-0.348
14.480,-0.305,0.857,-0.348
14.490,-0.305,0.857,-0.348
14.500,-0.305,0.861,-0.346
14.510,-0.301,0.857,-0.348
14.520,-0.303,0.854,-0.348
14.530,-0.301,0.855,-0.342
14.540,-0.297,0.854,-0.348
14.550,-0.295,0.854,-0.346
14.560,-0.295,0.852,-0.346
14.570,-0.295,0.855,-0.344
14.579,-0.293,0.852,-0.346
14.589,-0.297,0.854,-0.344
14.599,-0.295,0.857,-0.346
14.609,-0.295,0.854,-0.346
14.619,-0.299,0.852,-0.348
14.629,-0.299,0.852,-0.344
14.639,-0.295,0.855,-0.346
14.649,-0.297,0.854,-0.346
14.659,-0.295,0.855,-0.344
14.669,-0.295,0.857,-0.346
14.679,-0.297,0.854,-0.344
14.689,-0.295,0.855,-0.346
14.699,-0.297,0.854,-0.346
14.708,-0.299,0.855,-0.344
14.718,-0.299,0.854,-0.344
14.728,-0.297,0.854,-0.344
14.738,-0.299,0.857,-0.342
14.748,-0.297,0.857,-0.342
14.758,-0.297,0.854,-0.340
14.768,-0.299,0.855,-0.346
14.778,-0.299,0.854,-0.342
14.788,-0.297,0.855,-0.342
14.798,-0.297,0.861,-0.340
14.808,-0.299,0.861,-0.342
14.818,-0.299,0.863,-0.344
14.828,-0.297,0.869,-0.340
14.837,-0.299,0.865,-0.344
14.847,-0.299,0.865,-0.340
14.857,-0.301,0.861,-0.346
14.867,-0.303,0.859,-0.344
14.877,-0.305,0.855,-0.344
14.887,-0.301,0.854,-0.344
14.897,-0.301,0.855,-0.344
14.907,-0.299,0.850,-0.342
14.917,-0.299,0.850,-0.336
14.927,-0.293,0.852,-0.340
14.937,-0.289,0.848,-0.344
14.947,-0.291,0.850,-0.342
14.957,-0.293,0.854,-0.340
14.966,-0.293,0.855,-0.342
14.976,-0.295,0.857,-0.340
14.986,-0.297,0.861,-0.344
14.996,-0.303,0.857,-0.342
15.006,-0.301,0.859,-0.342
15.016,-0.303,0.859,-0.340
15.026,-0.299,0.857,-0.342
15.036,-0.303,0.859,-0.342
15.046,-0.299,0.855,-0.342
15.056,-0.301,0.859,-0.342
15.066,-0.299,0.855,-0.340
15.076,-0.301,0.857,-0.342
15.086,-0.297,0.861,-0.340
15.095,-0.297,0.859,-0.340
15.105,-0.293,0.861,-0.340
15.115,-0.295,0.859,-0.338
15.125,-0.295,0.857,-0.338
15.135,-0.293,0.861,-0.338
15.145,-0.295,0.857,-0.338
15.155,-0.293,0.857,-0.338
15.165,-0.293,0.857,-0.340
15.175,-0.293,0.857,-0.338
15.185,-0.297,0.855,-0.338
15.195,-0.297,0.857,-0.340
15.205,-0.295,0.855,-0.340
15.215,-0.295,0.854,-0.338
15.224,-0.295,0.855,-0.346
15.234,-0.297,0.859,-0.344
15.244,-0.301,0.855,-0.344
15.254,-0.299,0.857,-0.340
15.264,-0.299,0.857,-0.342
15.274,-0.299,0.855,-0.342
15.284,-0.297,0.855,-0.342
15.294,-0.299,0.854,-0.344
15.304,-0.301,0.855,-0.344
15.314,-0.299,0.854,-0.340
15.324,-0.299,0.854,-0.344
15.334,-0.299,0.859,-0.340
15.344,-0.297,0.857,-0.344
15.353,-0.293,0.859,-0.338
15.363,-0.297,0.855,-0.344
15.373,-0.293,0.859,-0.338
15.383,-0.293,0.861,-0.338
15.393,-0.297,0.859,-0.336
15.403,-0.295,0.859,-0.338
15.413,-0.295,0.855,-0.340
15.423,-0.297,0.857,-0.338
15.433,-0.299,0.857,-0.336
15.443,-0.297,0.857,-0.342
15.453,-0.299,0.857,-0.340
15.463,-0.297,0.859,-0.344
15.473,-0.299,0.855,-0.342
15.482,-0.297,0.857,-0.340
15.492,-0.295,0.861,-0.334
15.502,-0.297,0.855,-0.340
15.512,-0.295,0.855,-0.340
15.522,-0.293,0.857,-0.340
15.532,-0.293,0.857,-0.342
15.542,-0.295,0.855,-0.340
15.552,-0.293,0.859,-0.336
15.562,-0.295,0.861,-0.342
15.572,-0.295,0.861,-0.342
15.582,-0.297,0.859,-0.340
15.592,-0.299,0.855,-0.338
15.602,-0.299,0.854,-0.338
15.611,-0.297,0.855,-0.336
15.621,-0.297,0.854,-0.338
15.631,-0.293,0.855,-0.340
15.641,-0.295,0.857,-0.342
15.651,-0.295,0.857,-0.340
15.661,-0.297,0.855,-0.340
15.671,-0.299,0.855,-0.342
15.681,-0.295,0.855,-0.340
15.691,-0.297,0.855,-0.340
15.701,-0.293,0.859,-0.340
15.711,-0.297,0.857,-0.340
15.721,-0.293,0.855,-0.340
15.731,-0.295,0.855,-0.342
15.740,-0.299,0.857,-0.344
15.750,-0.297,0.857,-0.340
15.760,-0.301,0.861,-0.340
15.770,-0.297,0.855,-0.342
15.780,-0.299,0.857,-0.338
15.790,-0.297,0.857,-0.338
15.800,-0.293,0.857,-0.340
15.810,-0.295,0.863,-0.340
15.820,-0.289,0.859,-0.340
15.830,-0.293,0.861,-0.338
15.840,-0.297,0.859,-0.338
15.850,-0.297,0.855,-0.340
15.860,-0.297,0.859,-0.338
15.869,-0.295,0.857,-0.342
15.879,-0.295,0.859,-0.340
15.889,-0.299,0.855,-0.344
15.899,-0.295,0.857,-0.342
15.909,-0.295,0.855,-0.336
15.919,-0.297,0.859,-0.336
15.929,-0.293,0.855,-0.336
15.939,-0.293,0.861,-0.338
15.949,-0.297,0.861,-0.340
15.959,-0.297,0.859,-0.340
15.969,-0.297,0.859,-0.340
15.979,-0.295,0.859,-0.344
15.989,-0.295,0.857,-0.342
15.998,-0.293,0.854,-0.340
16.008,-0.293,0.854,-0.342
16.018,-0.295,0.854,-0.340
16.028,-0.293,0.855,-0.342
16.038,-0.291,0.855,-0.340
16.048,-0.293,0.855,-0.340
16.058,-0.297,0.855,-0.340
16.068,-0.293,0.857,-0.340
16.078,-0.297,0.859,-0.340
16.088,-0.297,0.861,-0.338
16.098,-0.295,0.859,-0.340
16.108,-0.295,0.859,-0.340
16.118,-0.295,0.859,-0.340
16.127,-0.293,0.857,-0.338
16.137,-0.297,0.857,-0.340
16.147,-0.295,0.857,-0.342
16.157,-0.295,0.857,-0.340
16.167,-0.295,0.855,-0.340
16.177,-0.295,0.857,-0.342
16.187,-0.291,0.859,-0.342
16.197,-0.295,0.859,-0.340
16.207,-0.293,0.857,-0.340
16.217,-0.293,0.855,-0.340
16.227,-0.293,0.854,-0.342
16.237,-0.291,0.854,-0.338
16.246,-0.293,0.859,-0.338
16.256,-0.295,0.859,-0.336
16.266,-0.293,0.861,-0.338
16.276,-0.293,0.863,-0.342
16.286,-0.293,0.861,-0.338
16.296,-0.291,0.863,-0.342
16.306,-0.295,0.863,-0.338
16.316,-0.297,0.857,-0.342
16.326,-0.295,0.857,-0.340
16.336,-0.297,0.852,-0.338
16.346,-0.297,0.854,-0.338
16.356,-0.299,0.855,-0.338
16.366,-0.297,0.859,-0.338
16.375,-0.295,0.859,-0.340
16.385,-0.293,0.859,-0.342
16.395,-0.293,0.859,-0.340
16.405,-0.293,0.857,-0.334
16.415,-0.289,0.854,-0.344
16.425,-0.293,0.857,-0.340
16.435,-0.291,0.857,-0.342
16.445,-0.295,0.857,-0.340
16.455,-0.293,0.859,-0.340
16.465,-0.295,0.861,-0.340
16.475,-0.299,0.857,-0.342
16.485,-0.299,0.861,-0.340
16.495,-0.299,0.855,-0.340
16.504,-0.297,0.857,-0.338
16.514,-0.293,0.857,-0.340
16.524,-0.291,0.857,-0.340
16.534,-0.293,0.863,-0.342
16.544,-0.295,0.863,-0.340
16.554,-0.291,0.863,-0.338
16.564,-0.293,0.859,-0.340
16.574,-0.295,0.857,-0.338
16.584,-0.295,0.859,-0.340
16.594,-0.295,0.859,-0.342
16.604,-0.293,0.859,-0.340
16.614,-0.293,0.859,-0.342
16.624,-0.295,0.857,-0.342
16.633,-0.291,0.857,-0.342
16.643,-0.295,0.859,-0.344
16.653,-0.293,0.857,-0.340
16.663,-0.291,0.859,-0.338
16.673,-0.293,0.859,-0.342
16.683,-0.291,0.857,-0.340
16.693,-0.293,0.855,-0.336
16.703,-0.291,0.857,-0.340
16.713,-0.293,0.855,-0.342
16.723,-0.295,0.857,-0.342
16.733,-0.295,0.857,-0.342
16.743,-0.295,0.859,-0.340
16.753,-0.291,0.855,-0.342
16.762,-0.293,0.857,-0.342
16.772,-0.293,0.859,-0.344
16.782,-0.295,0.857,-0.342
16.792,-0.293,0.855,-0.338
16.802,-0.293,0.859,-0.338
16.812,-0.291,0.857,-0.338
16.822,-0.295,0.859,-0.340
16.832,-0.297,0.859,-0.340
16.842,-0.295,0.859,-0.336
16.852,-0.297,0.859,-0.334
16.862,-0.295,0.861,-0.340
16.872,-0.297,0.859,-0.338
16.882,-0.299,0.859,-0.342
16.891,-0.297,0.857,-0.338
16.901,-0.297,0.857,-0.340
16.911,-0.295,0.857,-0.340
16.921,-0.295,0.859,-0.340
16.931,-0.295,0.861,-0.340
16.941,-0.299,0.859,-0.338
16.951,-0.297,0.861,-0.338
16.961,-0.297,0.857,-0.336
16.971,-0.297,0.857,-0.338
16.981,-0.293,0.857,-0.340
16.991,-0.293,0.857,-0.340
17.001,-0.291,0.861,-0.340
17.011,-0.293,0.863,-0.336
17.020,-0.295,0.863,-0.340
17.030,-0.293,0.863,-0.342
17.040,-0.295,0.861,-0.338
17.050,-0.297,0.861,-0.338
17.060,-0.299,0.857,-0.340
17.070,-0.301,0.852,-0.340
17.080,-0.301,0.854,-0.342
17.090,-0.297,0.855,-0.340
17.100,-0.297,0.857,-0.338
17.110,-0.297,0.857,-0.342
17.120,-0.299,0.859,-0.342
17.130,-0.297,0.859,-0.336
17.140,-0.293,0.857,-0.336
17.149,-0.293,0.857,-0.340
17.159,-0.291,0.859,-0.344
17.169,-0.293,0.859,-0.340
17.179,-0.293,0.861,-0.340
17.189,-0.291,0.857,-0.342
17.199,-0.293,0.857,-0.342
17.209,-0.297,0.861,-0.340
17.219,-0.293,0.861,-0.340
17.229,-0.297,0.859,-0.342
17.239,-0.299,0.861,-0.342
17.249,-0.295,0.855,-0.338
17.259,-0.289,0.857,-0.344
17.269,-0.291,0.863,-0.342
17.278,-0.295,0.865,-0.342
17.288,-0.293,0.857,-0.342
17.298,-0.291,0.855,-0.340
17.308,-0.293,0.857,-0.336
17.318,-0.293,0.859,-0.344
17.328,-0.293,0.857,-0.340
17.338,-0.295,0.854,-0.338
17.348,-0.291,0.855,-0.342
17.358,-0.291,0.863,-0.342
17.368,-0.289,0.867,-0.342
17.378,-0.293,0.857,-0.342
17.388,-0.287,0.859,-0.340
17.398,-0.289,0.857,-0.342
17.407,-0.291,0.859,-0.340
17.417,-0.291,0.859,-0.344
17.427,-0.291,0.863,-0.344
17.437,-0.291,0.857,-0.342
17.447,-0.291,0.861,-0.346
17.457,-0.287,0.859,-0.342
17.467,-0.287,0.855,-0.340
17.477,-0.289,0.857,-0.348
17.487,-0.285,0.863,-0.342
17.497,-0.287,0.861,-0.344
17.507,-0.291,0.854,-0.344
17.517,-0.289,0.855,-0.342
17.527,-0.289,0.857,-0.346
17.536,-0.291,0.857,-0.344
17.546,-0.289,0.867,-0.344
17.556,-0.289,0.857,-0.346
17.566,-0.291,0.863,-0.342
17.576,-0.289,0.863,-0.342
17.586,-0.291,0.857,-0.342
17.596,-0.291,0.857,-0.344
17.606,-0.287,0.863,-0.340
17.616,-0.289,0.854,-0.340
17.626,-0.295,0.855,-0.340
17.636,-0.291,0.855,-0.342
17.646,-0.293,0.854,-0.340
17.656,-0.297,0.854,-0.342
17.665,-0.295,0.859,-0.342
17.675,-0.293,0.861,-0.342
17.685,-0.291,0.854,-0.340
17.695,-0.289,0.861,-0.340
17.705,-0.291,0.859,-0.344
17.715,-0.285,0.857,-0.340
17.725,-0.287,0.861,-0.342
17.735,-0.289,0.863,-0.344
17.745,-0.289,0.865,-0.342
17.755,-0.285,0.865,-0.344
17.765,-0.291,0.857,-0.344
17.775,-0.293,0.855,-0.344
17.785,-0.293,0.854,-0.342
17.794,-0.289,0.852,-0.342
17.804,-0.289,0.855,-0.344
17.814,-0.291,0.855,-0.346
17.824,-0.287,0.861,-0.342
17.834,-0.289,0.863,-0.346
17.844,-0.293,0.859,-0.344
17.854,-0.289,0.863,-0.346
17.864,-0.289,0.855,-0.348
17.874,-0.285,0.855,-0.348
17.884,-0.287,0.855,-0.346
17.894,-0.283,0.859,-0.346
17.904,-0.287,0.854,-0.346
17.914,-0.289,0.863,-0.346
17.923,-0.287,0.865,-0.344
17.933,-0.289,0.857,-0.348
17.943,-0.291,0.855,-0.340
17.953,-0.291,0.854,-0.346
17.963,-0.293,0.859,-0.342
17.973,-0.283,0.857,-0.342
17.983,-0.289,0.855,-0.342
17.993,-0.291,0.857,-0.342
18.003,-0.291,0.855,-0.342
18.013,-0.293,0.857,-0.350
18.023,-0.293,0.855,-0.344
18.033,-0.295,0.855,-0.348
18.043,-0.285,0.857,-0.342
18.052,-0.289,0.861,-0.344
18.062,-0.289,0.861,-0.344
18.072,-0.281,0.863,-0.338
18.082,-0.277,0.861,-0.340
18.092,-0.279,0.867,-0.338
18.102,-0.281,0.867,-0.340
18.112,-0.283,0.865,-0.338
18.122,-0.283,0.865,-0.340
18.132,-0.283,0.863,-0.342
18.142,-0.285,0.857,-0.342
18.152,-0.285,0.855,-0.342
18.162,-0.287,0.854,-0.344
18.172,-0.291,0.850,-0.344
18.181,-0.299,0.846,-0.348
18.191,-0.295,0.850,-0.348
18.201,-0.295,0.852,-0.348
18.211,-0.297,0.854,-0.350
18.221,-0.291,0.855,-0.354
18.231,-0.285,0.850,-0.352
18.241,-0.287,0.848,-0.357
18.251,-0.297,0.838,-0.361
18.261,-0.305,0.836,-0.365
18.271,-0.307,0.838,-0.365
18.281,-0.301,0.836,-0.365
18.291,-0.299,0.838,-0.359
18.301,-0.291,0.846,-0.355
18.310,-0.275,0.846,-0.348
18.320,-0.270,0.854,-0.346
18.330,-0.270,0.854,-0.336
18.340,-0.260,0.848,-0.326
18.350,-0.258,0.850,-0.330
18.360,-0.266,0.867,-0.324
18.370,-0.266,0.885,-0.324
18.380,-0.258,0.898,-0.320
18.390,-0.256,0.920,-0.314
18.400,-0.246,0.908,-0.301
18.410,-0.252,0.908,-0.299
18.420,-0.252,0.902,-0.287
18.429,-0.256,0.902,-0.283
18.439,-0.262,0.902,-0.271
18.449,-0.271,0.904,-0.273
18.459,-0.275,0.908,-0.266
18.469,-0.275,0.918,-0.262
18.479,-0.283,0.930,-0.266
18.489,-0.293,0.932,-0.264
18.499,-0.295,0.928,-0.252
18.509,-0.291,0.932,-0.244
18.519,-0.297,0.932,-0.236
18.529,-0.291,0.934,-0.221
18.539,-0.279,0.918,-0.211
18.549,-0.279,0.912,-0.201
18.558,-0.273,0.910,-0.199
18.568,-0.260,0.910,-0.184
18.578,-0.232,0.904,-0.180
18.588,-0.213,0.910,-0.178
18.598,-0.211,0.914,-0.176
18.608,-0.209,0.910,-0.180
18.618,-0.215,0.916,-0.191
18.628,-0.221,0.922,-0.193
18.638,-0.225,0.916,-0.191
18.648,-0.223,0.910,-0.182
18.658,-0.219,0.908,-0.172
18.668,-0.199,0.887,-0.160
18.678,-0.184,0.883,-0.148
18.687,-0.184,0.891,-0.148
18.697,-0.184,0.895,-0.154
18.707,-0.184,0.908,-0.156
18.717,-0.188,0.922,-0.162
18.727,-0.191,0.924,-0.152
18.737,-0.191,0.918,-0.145
18.747,-0.184,0.912,-0.139
18.757,-0.178,0.900,-0.125
18.767,-0.166,0.898,-0.111
18.777,-0.172,0.900,-0.109
18.787,-0.189,0.914,-0.105
18.797,-0.166,0.947,-0.100
18.807,-0.164,0.943,-0.105
18.816,-0.207,0.963,-0.105
18.826,-0.219,0.975,-0.104
18.836,-0.219,0.977,-0.102
18.846,-0.219,0.971,-0.096
18.856,-0.213,0.957,-0.094
18.866,-0.213,0.955,-0.094
18.876,-0.213,0.955,-0.102
18.886,-0.223,0.955,-0.104
18.896,-0.230,0.963,-0.107
18.906,-0.240,0.961,-0.109
18.916,-0.248,0.945,-0.098
18.926,-0.252,0.945,-0.092
18.936,-0.248,0.930,-0.094
18.945,-0.271,0.922,-0.092
18.955,-0.283,0.926,-0.084
18.965,-0.271,0.926,-0.078
18.975,-0.264,0.932,-0.078
18.985,-0.250,0.934,-0.074
18.995,-0.244,0.938,-0.072
19.005,-0.246,0.949,-0.062
19.015,-0.234,0.953,-0.057
19.025,-0.227,0.953,-0.053
19.035,-0.227,0.941,-0.049
19.045,-0.236,0.953,-0.045
19.055,-0.238,0.941,-0.055
19.065,-0.238,0.938,-0.047
19.074,-0.244,0.943,-0.051
19.084,-0.242,0.947,-0.053
19.094,-0.240,0.959,-0.053
19.104,-0.236,0.953,-0.055
19.114,-0.234,0.955,-0.047
19.124,-0.236,0.951,-0.049
19.134,-0.242,0.947,-0.051
19.144,-0.248,0.938,-0.053
19.154,-0.258,0.941,-0.051
19.164,-0.256,0.943,-0.051
19.174,-0.258,0.949,-0.057
19.184,-0.256,0.945,-0.057
19.194,-0.254,0.939,-0.059
19.203,-0.258,0.947,-0.053
19.213,-0.252,0.945,-0.059
19.223,-0.250,0.939,-0.057
19.233,-0.242,0.947,-0.055
19.243,-0.238,0.936,-0.053
19.253,-0.234,0.938,-0.055
19.263,-0.232,0.943,-0.049
19.273,-0.232,0.947,-0.051
19.283,-0.236,0.947,-0.047
19.293,-0.238,0.945,-0.043
19.303,-0.238,0.943,-0.043
19.313,-0.238,0.941,-0.041
19.323,-0.240,0.941,-0.047
19.332,-0.236,0.938,-0.045
19.342,-0.229,0.938,-0.041
19.352,-0.227,0.941,-0.037
19.362,-0.225,0.941,-0.035
19.372,-0.232,0.939,-0.035
19.382,-0.236,0.941,-0.031
19.392,-0.244,0.945,-0.033
19.402,-0.248,0.943,-0.033
19.412,-0.252,0.945,-0.031
19.422,-0.254,0.949,-0.029
19.432,-0.252,0.949,-0.035
19.442,-0.258,0.953,-0.031
19.452,-0.260,0.955,-0.033
19.461,-0.258,0.957,-0.035
19.471,-0.260,0.961,-0.031
19.481,-0.256,0.957,-0.027
19.491,-0.252,0.951,-0.025
19.501,-0.252,0.953,-0.027
19.511,-0.250,0.953,-0.020
19.521,-0.248,0.955,-0.023
19.531,-0.244,0.953,-0.023
19.541,-0.242,0.955,-0.020
19.551,-0.238,0.951,-0.021
19.561,-0.232,0.955,-0.025
19.571,-0.234,0.959,-0.027
19.581,-0.236,0.961,-0.027
19.590,-0.229,0.961,-0.025
19.600,-0.232,0.963,-0.029
19.610,-0.236,0.961,-0.029
19.620,-0.236,0.963,-0.027
19.630,-0.240,0.967,-0.027
19.640,-0.244,0.967,-0.027
19.650,-0.240,0.973,-0.025
19.660,-0.240,0.971,-0.027
19.670,-0.242,0.971,-0.025
19.680,-0.244,0.967,-0.029
19.690,-0.254,0.959,-0.029
19.700,-0.260,0.955,-0.025
19.710,-0.258,0.955,-0.029
19.719,-0.258,0.945,-0.033
19.729,-0.248,0.924,-0.021
19.739,-0.178,0.867,-0.004
19.749,-0.145,0.834,-0.002
19.759,-0.158,0.820,-0.010
19.769,-0.197,0.830,-0.020
19.779,-0.244,0.859,-0.031
19.789,-0.311,0.896,-0.049
19.799,-0.371,0.926,-0.057
19.809,-0.389,0.941,-0.057
19.819,-0.395,0.963,-0.053
19.829,-0.383,0.984,-0.049
19.839,-0.361,0.994,-0.053
19.848,-0.332,1.006,-0.045
19.858,-0.301,1.010,-0.043
19.868,-0.281,1.016,-0.035
19.878,-0.262,1.029,-0.027
19.888,-0.246,1.020,-0.025
19.898,-0.250,1.000,-0.020
19.908,-0.252,0.973,-0.020
19.918,-0.244,0.943,-0.012
19.928,-0.229,0.912,-0.006
19.938,-0.227,0.898,-0.014
19.948,-0.238,0.891,-0.020
19.958,-0.248,0.891,-0.020
19.968,-0.256,0.898,-0.029
19.977,-0.266,0.908,-0.031
19.987,-0.273,0.912,-0.033
19.997,-0.275,0.916,-0.025
20.007,-0.271,0.924,-0.029
20.017,-0.271,0.928,-0.025
20.027,-0.264,0.936,-0.025
20.037,-0.256,0.945,-0.023
20.047,-0.248,0.949,-0.021
20.057,-0.238,0.949,-0.021
20.067,-0.230,0.951,-0.018
20.077,-0.240,0.961,-0.023
20.087,-0.264,0.957,-0.025
20.097,-0.277,0.955,-0.029
20.106,-0.289,0.955,-0.029
20.116,-0.291,0.955,-0.033
20.126,-0.285,0.955,-0.035
20.136,-0.287,0.965,-0.043
20.146,-0.283,0.963,-0.039
20.156,-0.260,0.961,-0.029
20.166,-0.240,0.953,-0.023
20.176,-0.242,0.947,-0.023
20.186,-0.256,0.941,-0.023
20.196,-0.250,0.898,-0.018
20.206,-0.225,0.891,-0.012
20.216,-0.221,0.893,-0.021
20.226,-0.232,0.893,-0.023
20.235,-0.250,0.902,-0.029
20.245,-0.285,0.918,-0.039
20.255,-0.307,0.938,-0.041
20.265,-0.314,0.947,-0.043
20.275,-0.312,0.947,-0.039
20.285,-0.301,0.953,-0.033
20.295,-0.291,0.953,-0.035
20.305,-0.287,0.961,-0.031
20.315,-0.277,0.963,-0.035
20.325,-0.266,0.965,-0.037
20.335,-0.260,0.969,-0.031
20.345,-0.256,0.973,-0.033
20.355,-0.256,0.971,-0.029
20.364,-0.262,0.963,-0.031
20.374,-0.260,0.965,-0.031
20.384,-0.252,0.949,-0.025
20.394,-0.246,0.934,-0.023
20.404,-0.236,0.916,-0.018
20.414,-0.229,0.902,-0.010
20.424,-0.213,0.902,-0.014
20.434,-0.227,0.908,-0.018
20.444,-0.248,0.920,-0.020
20.454,-0.262,0.932,-0.023
20.464,-0.277,0.941,-0.020
20.474,-0.281,0.943,-0.023
20.484,-0.279,0.951,-0.025
20.493,-0.273,0.959,-0.021
20.503,-0.266,0.967,-0.021
20.513,-0.260,0.967,-0.023
20.523,-0.252,0.971,-0.020
20.533,-0.252,0.973,-0.020
20.543,-0.244,0.965,-0.018
20.553,-0.240,0.955,-0.016
20.563,-0.240,0.936,-0.014
20.573,-0.242,0.922,-0.018
20.583,-0.246,0.916,-0.020
20.593,-0.258,0.924,-0.023
20.603,-0.270,0.926,-0.029
20.612,-0.281,0.932,-0.035
20.622,-0.295,0.939,-0.033
20.632,-0.301,0.939,-0.033
20.642,-0.301,0.939,-0.031
20.652,-0.293,0.941,-0.031
20.662,-0.285,0.938,-0.033
20.672,-0.277,0.939,-0.029
20.682,-0.268,0.939,-0.033
20.692,-0.264,0.945,-0.029
20.702,-0.260,0.945,-0.033
20.712,-0.256,0.945,-0.029
20.722,-0.258,0.945,-0.033
20.732,-0.258,0.941,-0.031
20.741,-0.262,0.939,-0.031
20.751,-0.266,0.941,-0.031
20.761,-0.266,0.941,-0.031
20.771,-0.268,0.938,-0.031
20.781,-0.270,0.939,-0.033
20.791,-0.277,0.939,-0.027
20.801,-0.275,0.939,-0.033
20.811,-0.277,0.939,-0.031
20.821,-0.273,0.936,-0.031
20.831,-0.271,0.941,-0.031
20.841,-0.270,0.947,-0.033
20.851,-0.273,0.949,-0.035
20.861,-0.277,0.951,-0.039
20.870,-0.275,0.945,-0.037
20.880,-0.279,0.947,-0.035
20.890,-0.279,0.949,-0.039
20.900,-0.281,0.945,-0.039
20.910,-0.277,0.945,-0.043
20.920,-0.277,0.939,-0.043
20.930,-0.281,0.939,-0.043
20.940,-0.279,0.934,-0.051
20.950,-0.275,0.932,-0.049
20.960,-0.273,0.934,-0.049
20.970,-0.273,0.934,-0.053
20.980,-0.271,0.938,-0.055
20.990,-0.271,0.938,-0.055
20.999,-0.268,0.936,-0.055
21.009,-0.268,0.939,-0.053
21.019,-0.262,0.939,-0.057
21.029,-0.258,0.939,-0.061
21.039,-0.260,0.934,-0.061
21.049,-0.260,0.934,-0.062
21.059,-0.262,0.932,-0.062
21.069,-0.258,0.930,-0.062
21.079,-0.260,0.930,-0.064
21.089,-0.258,0.930,-0.064
21.099,-0.260,0.934,-0.064
21.109,-0.260,0.936,-0.068
21.119,-0.258,0.932,-0.066
21.128,-0.258,0.936,-0.066
21.138,-0.258,0.941,-0.068
21.148,-0.262,0.938,-0.068
21.158,-0.260,0.939,-0.068
21.168,-0.264,0.936,-0.068
21.178,-0.266,0.939,-0.070
21.188,-0.266,0.941,-0.072
21.198,-0.262,0.939,-0.066
21.208,-0.268,0.938,-0.064
21.218,-0.270,0.938,-0.068
21.228,-0.264,0.936,-0.066
21.238,-0.262,0.941,-0.066
21.248,-0.260,0.943,-0.064
21.257,-0.262,0.943,-0.066
21.267,-0.262,0.947,-0.068
21.277,-0.262,0.947,-0.064
21.287,-0.264,0.943,-0.068
21.297,-0.266,0.941,-0.070
21.307,-0.266,0.943,-0.070
21.317,-0.266,0.938,-0.072
21.327,-0.270,0.934,-0.072
21.337,-0.266,0.930,-0.072
21.347,-0.268,0.934,-0.074
21.357,-0.268,0.938,-0.078
21.367,-0.268,0.936,-0.078
21.377,-0.262,0.936,-0.080
21.386,-0.262,0.934,-0.082
21.396,-0.262,0.932,-0.084
21.406,-0.260,0.926,-0.080
21.416,-0.262,0.922,-0.080
21.426,-0.256,0.926,-0.084
21.436,-0.258,0.926,-0.082
21.446,-0.260,0.930,-0.084
21.456,-0.260,0.936,-0.082
21.466,-0.260,0.939,-0.086
21.476,-0.258,0.936,-0.084
21.486,-0.260,0.926,-0.084
21.496,-0.260,0.928,-0.078
21.506,-0.260,0.934,-0.080
21.515,-0.262,0.938,-0.082
21.525,-0.260,0.938,-0.082
21.535,-0.258,0.938,-0.076
21.545,-0.260,0.938,-0.072
21.555,-0.260,0.939,-0.076
21.565,-0.260,0.939,-0.074
21.575,-0.260,0.936,-0.072
21.585,-0.258,0.938,-0.072
21.595,-0.260,0.938,-0.072
21.605,-0.262,0.943,-0.074
21.615,-0.264,0.947,-0.070
21.625,-0.266,0.951,-0.070
21.635,-0.266,0.947,-0.074
21.644,-0.268,0.945,-0.070
21.654,-0.266,0.949,-0.072
21.664,-0.268,0.947,-0.072
21.674,-0.264,0.941,-0.070
21.684,-0.264,0.939,-0.070
21.694,-0.260,0.936,-0.074
21.704,-0.258,0.936,-0.074
21.714,-0.256,0.938,-0.072
21.724,-0.256,0.934,-0.076
21.734,-0.258,0.934,-0.078
21.744,-0.254,0.938,-0.074
21.754,-0.256,0.938,-0.076
21.764,-0.256,0.939,-0.082
21.773,-0.254,0.936,-0.082
21.783,-0.256,0.934,-0.082
21.793,-0.254,0.936,-0.082
21.803,-0.256,0.932,-0.082
21.813,-0.256,0.930,-0.084
21.823,-0.258,0.932,-0.082
21.833,-0.258,0.932,-0.080
21.843,-0.260,0.936,-0.082
21.853,-0.260,0.938,-0.082
21.863,-0.262,0.941,-0.082
21.873,-0.258,0.939,-0.080
21.883,-0.256,0.939,-0.080
21.893,-0.256,0.934,-0.078
21.902,-0.256,0.936,-0.080
21.912,-0.256,0.936,-0.084
21.922,-0.256,0.939,-0.080
21.932,-0.256,0.939,-0.078
21.942,-0.256,0.941,-0.080
21.952,-0.256,0.943,-0.084
21.962,-0.258,0.939,-0.082
21.972,-0.260,0.941,-0.084
21.982,-0.262,0.938,-0.078
21.992,-0.260,0.934,-0.082
22.002,-0.264,0.936,-0.076
22.012,-0.262,0.936,-0.078
22.022,-0.258,0.938,-0.080
22.031,-0.262,0.941,-0.080
22.041,-0.256,0.939,-0.080
22.051,-0.256,0.939,-0.078
22.061,-0.256,0.938,-0.078
22.071,-0.258,0.934,-0.078
22.081,-0.258,0.936,-0.074
22.091,-0.256,0.941,-0.080
22.101,-0.256,0.939,-0.076
22.111,-0.258,0.941,-0.078
22.121,-0.256,0.941,-0.076
22.131,-0.254,0.941,-0.078
22.141,-0.260,0.938,-0.076
22.151,-0.260,0.934,-0.078
22.160,-0.258,0.934,-0.076
22.170,-0.258,0.938,-0.078
22.180,-0.260,0.941,-0.078
22.190,-0.260,0.939,-0.076
22.200,-0.260,0.939,-0.078
22.210,-0.258,0.939,-0.078
22.220,-0.258,0.938,-0.074
22.230,-0.258,0.936,-0.076
22.240,-0.258,0.938,-0.074
22.250,-0.258,0.936,-0.072
22.260,-0.258,0.939,-0.076
22.270,-0.258,0.939,-0.076
22.280,-0.256,0.941,-0.076
22.289,-0.256,0.939,-0.074
22.299,-0.258,0.941,-0.074
22.309,-0.258,0.938,-0.070
22.319,-0.258,0.939,-0.074
22.329,-0.258,0.941,-0.074
22.339,-0.258,0.941,-0.074
22.349,-0.256,0.943,-0.074
22.359,-0.258,0.939,-0.074
22.369,-0.260,0.939,-0.072
22.379,-0.258,0.939,-0.076
22.389,-0.262,0.939,-0.076
22.399,-0.260,0.938,-0.074
22.409,-0.262,0.938,-0.072
22.418,-0.264,0.936,-0.078
22.428,-0.264,0.936,-0.076
22.438,-0.260,0.938,-0.078
22.448,-0.258,0.938,-0.074
22.458,-0.260,0.938,-0.076
22.468,-0.260,0.939,-0.074
22.478,-0.258,0.938,-0.074
22.488,-0.262,0.936,-0.078
22.498,-0.258,0.934,-0.074
22.508,-0.256,0.934,-0.076
22.518,-0.262,0.934,-0.074
22.528,-0.260,0.934,-0.078
22.538,-0.258,0.939,-0.078
22.547,-0.260,0.941,-0.074
22.557,-0.260,0.939,-0.074
22.567,-0.262,0.938,-0.078
22.577,-0.260,0.936,-0.076
22.587,-0.260,0.938,-0.074
22.597,-0.262,0.938,-0.072
22.607,-0.260,0.938,-0.076
22.617,-0.256,0.941,-0.072
22.627,-0.258,0.943,-0.072
22.637,-0.260,0.949,-0.076
22.647,-0.260,0.945,-0.070
22.657,-0.260,0.941,-0.074
22.667,-0.262,0.941,-0.072
22.676,-0.260,0.938,-0.072
22.686,-0.264,0.934,-0.072
22.696,-0.262,0.934,-0.070
22.706,-0.260,0.938,-0.072
22.716,-0.256,0.932,-0.072
22.726,-0.260,0.938,-0.076
22.736,-0.260,0.938,-0.074
22.746,-0.258,0.938,-0.066
22.756,-0.258,0.938,-0.070
22.766,-0.258,0.938,-0.070
22.776,-0.254,0.938,-0.072
22.786,-0.258,0.939,-0.070
22.795,-0.260,0.939,-0.066
22.805,-0.260,0.938,-0.070
22.815,-0.260,0.939,-0.068
22.825,-0.262,0.939,-0.072
22.835,-0.264,0.939,-0.072
22.845,-0.262,0.939,-0.074
22.855,-0.264,0.936,-0.072
22.865,-0.264,0.936,-0.068
22.875,-0.262,0.938,-0.074
22.885,-0.264,0.939,-0.070
22.895,-0.264,0.943,-0.074
22.905,-0.262,0.941,-0.070
22.915,-0.260,0.939,-0.074
22.924,-0.262,0.938,-0.072
22.934,-0.264,0.939,-0.066
22.944,-0.262,0.941,-0.070
22.954,-0.264,0.938,-0.070
22.964,-0.262,0.939,-0.072
22.974,-0.260,0.938,-0.072
22.984,-0.260,0.938,-0.072
22.994,-0.264,0.938,-0.072
23.004,-0.262,0.939,-0.072
23.014,-0.262,0.938,-0.072
23.024,-0.264,0.939,-0.072
23.034,-0.258,0.938,-0.074
23.044,-0.258,0.941,-0.072
23.053,-0.258,0.939,-0.076
23.063,-0.264,0.941,-0.072
23.073,-0.262,0.939,-0.074
23.083,-0.262,0.941,-0.070
23.093,-0.262,0.939,-0.074
23.103,-0.264,0.938,-0.074
23.113,-0.264,0.926,-0.072
23.123,-0.264,0.926,-0.068
23.133,-0.260,0.932,-0.066
23.143,-0.262,0.938,-0.070
23.153,-0.264,0.949,-0.070
23.163,-0.262,0.951,-0.076
23.173,-0.264,0.953,-0.072
23.182,-0.256,0.945,-0.068
23.192,-0.258,0.938,-0.070
23.202,-0.254,0.932,-0.066
23.212,-0.254,0.934,-0.066
23.222,-0.254,0.938,-0.064
23.232,-0.258,0.939,-0.070
23.242,-0.260,0.941,-0.070
23.252,-0.262,0.938,-0.068
23.262,-0.262,0.939,-0.070
23.272,-0.260,0.936,-0.074
23.282,-0.262,0.938,-0.072
23.292,-0.262,0.938,-0.068
23.302,-0.260,0.939,-0.070
23.311,-0.264,0.938,-0.068
23.321,-0.260,0.936,-0.064
23.331,-0.260,0.934,-0.066
23.341,-0.258,0.934,-0.066
23.351,-0.258,0.938,-0.068
23.361,-0.262,0.939,-0.068
23.371,-0.260,0.941,-0.072
23.381,-0.256,0.941,-0.068
23.391,-0.260,0.943,-0.068
23.401,-0.264,0.939,-0.068
23.411,-0.260,0.941,-0.070
23.421,-0.260,0.941,-0.064
23.431,-0.260,0.939,-0.068
23.440,-0.260,0.941,-0.070
23.450,-0.262,0.934,-0.070
23.460,-0.264,0.932,-0.068
23.470,-0.266,0.936,-0.070
23.480,-0.268,0.934,-0.070
23.490,-0.268,0.934,-0.068
23.500,-0.266,0.934,-0.068
23.510,-0.262,0.936,-0.066
23.520,-0.262,0.941,-0.070
23.530,-0.262,0.943,-0.066
23.540,-0.256,0.943,-0.064
23.550,-0.258,0.943,-0.068
23.560,-0.260,0.945,-0.070
23.569,-0.266,0.941,-0.070
23.579,-0.268,0.936,-0.068
23.589,-0.270,0.932,-0.068
23.599,-0.273,0.932,-0.070
23.609,-0.279,0.936,-0.070
23.619,-0.287,0.932,-0.066
23.629,-0.291,0.934,-0.068
23.639,-0.297,0.936,-0.076
23.649,-0.295,0.938,-0.072
23.659,-0.295,0.939,-0.074
23.669,-0.285,0.945,-0.074
23.679,-0.277,0.941,-0.072
23.689,-0.268,0.945,-0.072
23.698,-0.266,0.941,-0.068
23.708,-0.262,0.939,-0.070
23.718,-0.258,0.939,-0.072
23.728,-0.256,0.938,-0.070
23.738,-0.248,0.938,-0.070
23.748,-0.244,0.938,-0.072
23.758,-0.246,0.939,-0.070
23.768,-0.248,0.936,-0.070
23.778,-0.246,0.934,-0.072
23.788,-0.246,0.939,-0.072
23.798,-0.242,0.938,-0.074
23.808,-0.244,0.939,-0.074
23.818,-0.242,0.939,-0.072
23.827,-0.244,0.936,-0.072
23.837,-0.246,0.934,-0.072
23.847,-0.250,0.936,-0.070
23.857,-0.254,0.936,-0.070
23.867,-0.254,0.934,-0.070
23.877,-0.260,0.936,-0.070
23.887,-0.262,0.938,-0.076
23.897,-0.266,0.939,-0.068
23.907,-0.268,0.943,-0.070
23.917,-0.268,0.939,-0.074
23.927,-0.270,0.941,-0.072
23.937,-0.270,0.938,-0.070
23.947,-0.268,0.939,-0.072
23.956,-0.268,0.938,-0.076
23.966,-0.262,0.938,-0.072
23.976,-0.262,0.941,-0.070
23.986,-0.258,0.938,-0.072
23.996,-0.258,0.938,-0.072
24.006,-0.258,0.941,-0.070
24.016,-0.254,0.939,-0.070
24.026,-0.258,0.938,-0.074
24.036,-0.258,0.936,-0.070
24.046,-0.264,0.938,-0.068
24.056,-0.262,0.934,-0.072
24.066,-0.266,0.936,-0.066
24.076,-0.266,0.938,-0.066
24.085,-0.264,0.939,-0.070
24.095,-0.266,0.943,-0.068
24.105,-0.264,0.943,-0.074
24.115,-0.266,0.943,-0.074
24.125,-0.262,0.945,-0.074
24.135,-0.264,0.943,-0.070
24.145,-0.264,0.941,-0.066
24.155,-0.264,0.938,-0.068
24.165,-0.266,0.936,-0.070
24.175,-0.264,0.936,-0.068
24.185,-0.264,0.939,-0.066
24.195,-0.262,0.938,-0.066
24.205,-0.262,0.938,-0.068
24.214,-0.262,0.938,-0.066
24.224,-0.262,0.936,-0.068
24.234,-0.260,0.932,-0.070
24.244,-0.260,0.936,-0.070
24.254,-0.260,0.939,-0.070
24.264,-0.254,0.939,-0.068
24.274,-0.256,0.939,-0.070
24.284,-0.258,0.939,-0.070
24.294,-0.262,0.939,-0.068
24.304,-0.264,0.941,-0.070
24.314,-0.268,0.941,-0.070
24.324,-0.264,0.939,-0.070
24.334,-0.264,0.938,-0.070
24.343,-0.262,0.934,-0.068
24.353,-0.260,0.941,-0.074
24.363,-0.264,0.941,-0.068
24.373,-0.260,0.941,-0.068
24.383,-0.260,0.939,-0.068
24.393,-0.258,0.941,-0.068
24.403,-0.262,0.939,-0.066
24.413,-0.260,0.938,-0.070
24.423,-0.260,0.941,-0.068
24.433,-0.260,0.941,-0.066
24.443,-0.260,0.941,-0.070
24.453,-0.260,0.941,-0.070
24.463,-0.260,0.939,-0.066
24.472,-0.262,0.939,-0.068
24.482,-0.264,0.939,-0.068
24.492,-0.262,0.936,-0.070
24.502,-0.264,0.930,-0.068
24.512,-0.262,0.930,-0.068
24.522,-0.260,0.932,-0.072
24.532,-0.262,0.932,-0.072
24.542,-0.264,0.938,-0.072
24.552,-0.264,0.936,-0.070
24.562,-0.268,0.938,-0.074
24.572,-0.266,0.939,-0.074
24.582,-0.264,0.941,-0.072
24.592,-0.266,0.939,-0.070
24.601,-0.266,0.943,-0.074
24.611,-0.262,0.934,-0.072
24.621,-0.260,0.932,-0.068
24.631,-0.264,0.934,-0.070
24.641,-0.264,0.930,-0.070
24.651,-0.264,0.932,-0.070
24.661,-0.271,0.936,-0.072
24.671,-0.270,0.936,-0.074
24.681,-0.268,0.936,-0.070
24.691,-0.271,0.936,-0.072
24.701,-0.271,0.938,-0.070
24.711,-0.271,0.938,-0.072
24.721,-0.275,0.938,-0.072
24.730,-0.279,0.936,-0.070
24.740,-0.279,0.938,-0.070
24.750,-0.277,0.934,-0.070
24.760,-0.279,0.939,-0.068
24.770,-0.279,0.936,-0.068
24.780,-0.283,0.936,-0.070
24.790,-0.277,0.936,-0.068
24.800,-0.277,0.936,-0.072
24.810,-0.277,0.936,-0.068
24.820,-0.275,0.932,-0.070
24.830,-0.273,0.936,-0.068
24.840,-0.273,0.936,-0.066
24.850,-0.275,0.943,-0.070
24.859,-0.273,0.943,-0.070
24.869,-0.275,0.941,-0.070
24.879,-0.277,0.936,-0.070
24.889,-0.277,0.938,-0.068
24.899,-0.275,0.938,-0.068
24.909,-0.277,0.932,-0.074
24.919,-0.277,0.932,-0.070
24.929,-0.277,0.926,-0.068
24.939,-0.275,0.930,-0.070
24.949,-0.273,0.934,-0.070
24.959,-0.275,0.938,-0.070
24.969,-0.273,0.936,-0.072
24.978,-0.273,0.943,-0.070
24.988,-0.277,0.936,-0.070
24.998,-0.277,0.932,-0.066
25.008,-0.275,0.928,-0.070
25.018,-0.277,0.932,-0.064
25.028,-0.275,0.932,-0.068
25.038,-0.279,0.934,-0.070
25.048,-0.279,0.938,-0.066
25.058,-0.279,0.939,-0.074
25.068,-0.279,0.934,-0.068
25.078,-0.275,0.934,-0.066
25.088,-0.273,0.932,-0.068
25.098,-0.271,0.938,-0.066
25.107,-0.273,0.939,-0.066
25.117,-0.275,0.938,-0.062
25.127,-0.275,0.941,-0.068
25.137,-0.277,0.943,-0.068
25.147,-0.279,0.943,-0.068
25.157,-0.273,0.939,-0.064
25.167,-0.270,0.932,-0.064
25.177,-0.271,0.936,-0.066
25.187,-0.268,0.938,-0.064
25.197,-0.270,0.936,-0.064
25.207,-0.275,0.936,-0.064
25.217,-0.271,0.938,-0.057
25.227,-0.271,0.932,-0.064
25.236,-0.271,0.936,-0.064
25.246,-0.273,0.938,-0.064
25.256,-0.275,0.934,-0.064
25.266,-0.275,0.936,-0.064
25.276,-0.275,0.939,-0.062
25.286,-0.277,0.938,-0.068
25.296,-0.273,0.938,-0.066
25.306,-0.275,0.936,-0.066
25.316,-0.271,0.936,-0.064
25.326,-0.271,0.934,-0.064
25.336,-0.270,0.934,-0.066
25.346,-0.273,0.932,-0.066
25.356,-0.275,0.936,-0.061
25.365,-0.275,0.936,-0.066
25.375,-0.279,0.934,-0.064
25.385,-0.279,0.936,-0.066
25.395,-0.277,0.939,-0.066
25.405,-0.277,0.943,-0.066
25.415,-0.275,0.938,-0.062
25.425,-0.271,0.941,-0.066
25.435,-0.275,0.938,-0.061
25.445,-0.270,0.936,-0.061
25.455,-0.271,0.936,-0.064
25.465,-0.273,0.936,-0.066
25.475,-0.275,0.936,-0.064
25.485,-0.275,0.934,-0.062
25.494,-0.277,0.932,-0.062
25.504,-0.279,0.930,-0.062
25.514,-0.279,0.936,-0.066
25.524,-0.281,0.936,-0.062
25.534,-0.275,0.938,-0.064
25.544,-0.271,0.939,-0.059
25.554,-0.271,0.941,-0.064
25.564,-0.271,0.941,-0.062
25.574,-0.273,0.938,-0.062
25.584,-0.275,0.938,-0.062
25.594,-0.273,0.934,-0.064
25.604,-0.273,0.934,-0.061
25.614,-0.277,0.934,-0.059
25.623,-0.281,0.938,-0.061
25.633,-0.275,0.938,-0.062
25.643,-0.273,0.941,-0.061
25.653,-0.266,0.941,-0.062
25.663,-0.266,0.943,-0.061
25.673,-0.262,0.938,-0.061
25.683,-0.262,0.939,-0.059
25.693,-0.260,0.939,-0.059
25.703,-0.266,0.941,-0.059
25.713,-0.264,0.939,-0.059
25.723,-0.264,0.945,-0.059
25.733,-0.262,0.947,-0.059
25.743,-0.260,0.947,-0.059
25.752,-0.262,0.951,-0.055
25.762,-0.260,0.957,-0.057
25.772,-0.260,0.951,-0.057
25.782,-0.260,0.953,-0.057
25.792,-0.256,0.951,-0.055
25.802,-0.254,0.953,-0.057
25.812,-0.252,0.945,-0.061
25.822,-0.256,0.947,-0.055
25.832,-0.260,0.955,-0.061
25.842,-0.266,0.953,-0.061
25.852,-0.266,0.939,-0.055
25.862,-0.248,0.910,-0.041
25.872,-0.223,0.896,-0.041
25.881,-0.221,0.898,-0.049
25.891,-0.227,0.895,-0.049
25.901,-0.232,0.891,-0.055
25.911,-0.254,0.908,-0.062
25.921,-0.264,0.914,-0.061
25.931,-0.258,0.912,-0.062
25.941,-0.262,0.912,-0.064
25.951,-0.289,0.930,-0.074
25.961,-0.309,0.932,-0.076
25.971,-0.309,0.953,-0.074
25.981,-0.301,0.973,-0.072
25.991,-0.285,0.973,-0.070
26.001,-0.277,0.982,-0.072
26.010,-0.279,0.990,-0.074
26.020,-0.273,0.980,-0.068
26.030,-0.258,0.986,-0.068
26.040,-0.250,0.986,-0.066
26.050,-0.236,0.988,-0.057
26.060,-0.236,0.986,-0.061
26.070,-0.240,0.982,-0.061
26.080,-0.232,0.980,-0.055
26.090,-0.219,0.979,-0.053
26.100,-0.219,0.957,-0.053
26.110,-0.223,0.947,-0.053
26.120,-0.223,0.945,-0.053
26.130,-0.223,0.953,-0.049
26.139,-0.203,0.938,-0.037
26.149,-0.154,0.904,-0.023
26.159,-0.131,0.906,-0.020
26.169,-0.139,0.893,-0.027
26.179,-0.178,0.879,-0.041
26.189,-0.213,0.902,-0.051
26.199,-0.227,0.920,-0.066
26.209,-0.242,0.939,-0.070
26.219,-0.260,0.955,-0.068
26.229,-0.258,0.957,-0.068
26.239,-0.248,0.965,-0.064
26.249,-0.244,0.979,-0.068
26.259,-0.230,0.979,-0.070
26.268,-0.219,0.977,-0.066
26.278,-0.211,0.975,-0.062
26.288,-0.201,0.973,-0.062
26.298,-0.195,0.973,-0.066
26.308,-0.199,0.971,-0.066
26.318,-0.209,0.973,-0.072
26.328,-0.211,0.969,-0.076
26.338,-0.203,0.947,-0.066
26.348,-0.199,0.926,-0.061
26.358,-0.199,0.904,-0.061
26.368,-0.197,0.879,-0.053
26.378,-0.207,0.879,-0.057
26.388,-0.227,0.896,-0.068
26.397,-0.240,0.912,-0.078
26.407,-0.246,0.920,-0.080
26.417,-0.250,0.939,-0.086
26.427,-0.246,0.951,-0.088
26.437,-0.238,0.953,-0.084
26.447,-0.242,0.955,-0.084
26.457,-0.246,0.953,-0.082
26.467,-0.242,0.951,-0.080
26.477,-0.244,0.949,-0.080
26.487,-0.250,0.951,-0.086
26.497,-0.248,0.957,-0.084
26.507,-0.254,0.959,-0.086
26.517,-0.250,0.957,-0.092
26.526,-0.248,0.955,-0.088
26.536,-0.242,0.955,-0.084
26.546,-0.240,0.949,-0.088
26.556,-0.242,0.949,-0.090
26.566,-0.238,0.943,-0.092
26.576,-0.242,0.939,-0.090
26.586,-0.244,0.934,-0.092
26.596,-0.242,0.938,-0.092
26.606,-0.244,0.936,-0.090
26.616,-0.244,0.939,-0.090
26.626,-0.244,0.941,-0.092
26.636,-0.242,0.938,-0.086
26.646,-0.242,0.938,-0.088
26.655,-0.246,0.939,-0.088
26.665,-0.242,0.938,-0.084
26.675,-0.246,0.939,-0.082
26.685,-0.242,0.943,-0.084
26.695,-0.240,0.945,-0.084
26.705,-0.238,0.943,-0.086
26.715,-0.236,0.945,-0.086
26.725,-0.238,0.949,-0.086
26.735,-0.240,0.951,-0.084
26.745,-0.244,0.949,-0.082
26.755,-0.244,0.945,-0.086
26.765,-0.248,0.943,-0.088
26.775,-0.248,0.936,-0.082
26.784,-0.244,0.934,-0.086
26.794,-0.240,0.938,-0.080
26.804,-0.240,0.938,-0.082
26.814,-0.242,0.938,-0.082
26.824,-0.238,0.939,-0.080
26.834,-0.238,0.941,-0.080
26.844,-0.242,0.941,-0.080
26.854,-0.242,0.936,-0.080
26.864,-0.242,0.932,-0.078
26.874,-0.244,0.932,-0.078
26.884,-0.246,0.936,-0.078
26.894,-0.242,0.936,-0.080
26.904,-0.240,0.943,-0.078
26.913,-0.240,0.941,-0.080
26.923,-0.240,0.941,-0.078
26.933,-0.232,0.938,-0.078
26.943,-0.232,0.938,-0.074
26.953,-0.234,0.936,-0.078
26.963,-0.236,0.939,-0.076
26.973,-0.238,0.941,-0.076
26.983,-0.238,0.938,-0.080
26.993,-0.238,0.943,-0.076
27.003,-0.242,0.947,-0.078
27.013,-0.246,0.945,-0.078
27.023,-0.248,0.949,-0.082
27.033,-0.250,0.951,-0.082
27.042,-0.252,0.947,-0.084
27.052,-0.258,0.947,-0.084
27.062,-0.256,0.941,-0.084
27.072,-0.258,0.938,-0.082
27.082,-0.254,0.939,-0.086
27.092,-0.256,0.936,-0.086
27.102,-0.258,0.938,-0.088
27.112,-0.260,0.936,-0.090
27.122,-0.260,0.936,-0.092
27.132,-0.258,0.938,-0.088
27.142,-0.256,0.939,-0.090
27.152,-0.254,0.939,-0.090
27.161,-0.252,0.938,-0.090
27.171,-0.254,0.936,-0.092
27.181,-0.252,0.939,-0.090
27.191,-0.256,0.936,-0.092
27.201,-0.254,0.939,-0.090
27.211,-0.256,0.941,-0.094
27.221,-0.256,0.936,-0.094
27.231,-0.260,0.934,-0.092
27.241,-0.254,0.932,-0.092
27.251,-0.252,0.938,-0.090
27.261,-0.250,0.936,-0.092
27.271,-0.252,0.936,-0.092
27.281,-0.250,0.939,-0.092
27.290,-0.252,0.938,-0.094
27.300,-0.256,0.941,-0.096
27.310,-0.260,0.939,-0.094
27.320,-0.260,0.939,-0.096
27.330,-0.258,0.938,-0.096
27.340,-0.260,0.941,-0.100
27.350,-0.258,0.939,-0.096
27.360,-0.260,0.938,-0.102
27.370,-0.260,0.938,-0.098
27.380,-0.260,0.936,-0.100
27.390,-0.256,0.936,-0.100
27.400,-0.256,0.938,-0.098
27.410,-0.254,0.936,-0.102
27.419,-0.254,0.938,-0.104
27.429,-0.254,0.936,-0.104
27.439,-0.254,0.934,-0.105
27.449,-0.260,0.938,-0.105
27.459,-0.254,0.934,-0.105
27.469,-0.258,0.930,-0.104
27.479,-0.256,0.924,-0.102
27.489,-0.260,0.924,-0.104
27.499,-0.260,0.928,-0.105
27.509,-0.258,0.932,-0.102
27.519,-0.260,0.928,-0.107
27.529,-0.262,0.930,-0.105
27.539,-0.266,0.926,-0.105
27.548,-0.268,0.922,-0.105
27.558,-0.264,0.928,-0.105
27.568,-0.266,0.930,-0.105
27.578,-0.266,0.928,-0.105
27.588,-0.268,0.928,-0.107
27.598,-0.264,0.934,-0.104
27.608,-0.260,0.932,-0.100
27.618,-0.260,0.936,-0.104
27.628,-0.264,0.932,-0.104
27.638,-0.266,0.934,-0.100
27.648,-0.266,0.930,-0.102
27.658,-0.266,0.932,-0.096
27.668,-0.266,0.928,-0.092
27.677,-0.266,0.932,-0.096
27.687,-0.264,0.936,-0.098
27.697,-0.266,0.939,-0.098
27.707,-0.262,0.939,-0.096
27.717,-0.268,0.941,-0.094
27.727,-0.268,0.938,-0.096
27.737,-0.271,0.936,-0.096
27.747,-0.273,0.938,-0.088
27.757,-0.275,0.934,-0.088
27.767,-0.275,0.932,-0.088
27.777,-0.271,0.936,-0.090
27.787,-0.273,0.936,-0.090
27.797,-0.273,0.938,-0.090
27.806,-0.275,0.938,-0.088
27.816,-0.273,0.941,-0.082
27.826,-0.273,0.939,-0.086
27.836,-0.273,0.941,-0.082
27.846,-0.270,0.938,-0.084
27.856,-0.273,0.938,-0.082
27.866,-0.268,0.938,-0.084
27.876,-0.270,0.938,-0.084
27.886,-0.264,0.936,-0.086
27.896,-0.264,0.938,-0.084
27.906,-0.268,0.934,-0.086
27.916,-0.270,0.928,-0.086
27.926,-0.268,0.930,-0.082
27.935,-0.268,0.930,-0.082
27.945,-0.270,0.936,-0.088
27.955,-0.270,0.936,-0.088
27.965,-0.271,0.936,-0.084
27.975,-0.271,0.941,-0.086
27.985,-0.270,0.943,-0.086
27.995,-0.271,0.939,-0.090
28.005,-0.271,0.936,-0.088
28.015,-0.271,0.932,-0.090
28.025,-0.271,0.932,-0.088
28.035,-0.271,0.930,-0.090
28.045,-0.275,0.930,-0.088
28.055,-0.273,0.930,-0.090
28.064,-0.277,0.932,-0.090
28.074,-0.275,0.932,-0.092
28.084,-0.275,0.932,-0.090
28.094,-0.275,0.932,-0.094
28.104,-0.275,0.934,-0.094
28.114,-0.273,0.932,-0.092
28.124,-0.275,0.932,-0.094
28.134,-0.275,0.930,-0.096
28.144,-0.273,0.930,-0.092
28.154,-0.273,0.930,-0.090
28.164,-0.273,0.930,-0.090
28.174,-0.273,0.928,-0.094
28.184,-0.277,0.930,-0.094
28.193,-0.279,0.932,-0.092
28.203,-0.275,0.932,-0.092
28.213,-0.277,0.930,-0.094
28.223,-0.277,0.932,-0.094
28.233,-0.281,0.930,-0.092
28.243,-0.281,0.932,-0.094
28.253,-0.279,0.936,-0.094
28.263,-0.279,0.934,-0.096
28.273,-0.279,0.932,-0.094
28.283,-0.281,0.934,-0.096
28.293,-0.283,0.930,-0.096
28.303,-0.283,0.930,-0.094
28.313,-0.283,0.934,-0.096
28.322,-0.279,0.934,-0.094
28.332,-0.279,0.936,-0.102
28.342,-0.277,0.939,-0.100
28.352,-0.279,0.938,-0.098
28.362,-0.279,0.938,-0.100
28.372,-0.281,0.939,-0.098
28.382,-0.283,0.932,-0.098
28.392,-0.285,0.928,-0.096
28.402,-0.281,0.926,-0.096
28.412,-0.283,0.928,-0.092
28.422,-0.281,0.928,-0.098
28.432,-0.281,0.936,-0.096
28.442,-0.277,0.930,-0.094
28.451,-0.275,0.930,-0.096
28.461,-0.275,0.928,-0.094
28.471,-0.277,0.930,-0.092
28.481,-0.277,0.928,-0.092
28.491,-0.275,0.932,-0.094
28.501,-0.277,0.930,-0.094
28.511,-0.277,0.930,-0.092
28.521,-0.283,0.928,-0.094
28.531,-0.283,0.930,-0.094
28.541,-0.283,0.932,-0.096
28.551,-0.285,0.932,-0.090
28.561,-0.283,0.928,-0.094
28.571,-0.287,0.930,-0.088
28.580,-0.285,0.934,-0.090
28.590,-0.285,0.936,-0.092
28.600,-0.287,0.938,-0.094
28.610,-0.285,0.934,-0.092
28.620,-0.283,0.938,-0.090
28.630,-0.285,0.934,-0.088
28.640,-0.285,0.930,-0.090
28.650,-0.281,0.932,-0.088
28.660,-0.285,0.930,-0.086
28.670,-0.285,0.932,-0.092
28.680,-0.283,0.930,-0.092
28.690,-0.279,0.932,-0.092
28.700,-0.281,0.934,-0.096
28.709,-0.283,0.936,-0.092
28.719,-0.281,0.932,-0.088
28.729,-0.277,0.932,-0.088
28.739,-0.277,0.930,-0.092
28.749,-0.277,0.930,-0.092
28.759,-0.277,0.932,-0.094
28.769,-0.277,0.936,-0.092
28.779,-0.279,0.932,-0.088
28.789,-0.275,0.930,-0.088
28.799,-0.279,0.928,-0.090
28.809,-0.279,0.926,-0.086
28.819,-0.283,0.928,-0.092
28.829,-0.281,0.930,-0.094
28.838,-0.283,0.930,-0.092
28.848,-0.283,0.934,-0.094
28.858,-0.281,0.934,-0.088
28.868,-0.281,0.934,-0.094
28.878,-0.279,0.936,-0.090
28.888,-0.279,0.934,-0.090
28.898,-0.281,0.932,-0.088
28.908,-0.279,0.930,-0.090
28.918,-0.279,0.932,-0.090
28.928,-0.285,0.930,-0.090
28.938,-0.277,0.930,-0.092
28.948,-0.281,0.938,-0.090
28.958,-0.281,0.932,-0.088
28.967,-0.279,0.934,-0.090
28.977,-0.279,0.934,-0.090
28.987,-0.281,0.932,-0.086
28.997,-0.279,0.930,-0.086
29.007,-0.279,0.930,-0.088
29.017,-0.277,0.932,-0.086
29.027,-0.281,0.936,-0.092
29.037,-0.285,0.936,-0.090
29.047,-0.289,0.936,-0.092
29.057,-0.285,0.936,-0.090
29.067,-0.285,0.934,-0.090
29.077,-0.287,0.930,-0.092
29.087,-0.285,0.932,-0.090
29.096,-0.283,0.930,-0.090
29.106,-0.285,0.930,-0.090
29.116,-0.283,0.928,-0.090
29.126,-0.285,0.928,-0.090
29.136,-0.287,0.928,-0.092
29.146,-0.287,0.932,-0.090
29.156,-0.287,0.930,-0.090
29.166,-0.285,0.934,-0.088
29.176,-0.283,0.932,-0.090
29.186,-0.281,0.928,-0.090
29.196,-0.279,0.930,-0.090
29.206,-0.283,0.928,-0.092
29.216,-0.285,0.928,-0.088
29.225,-0.287,0.930,-0.090
29.235,-0.289,0.932,-0.090
29.245,-0.291,0.930,-0.092
29.255,-0.289,0.930,-0.092
29.265,-0.287,0.932,-0.088
29.275,-0.285,0.930,-0.088
29.285,-0.287,0.930,-0.090
29.295,-0.287,0.934,-0.088
29.305,-0.283,0.932,-0.088
29.315,-0.281,0.930,-0.090
29.325,-0.285,0.930,-0.090
29.335,-0.287,0.930,-0.088
29.344,-0.287,0.930,-0.090
29.354,-0.287,0.930,-0.092
29.364,-0.285,0.932,-0.092
29.374,-0.283,0.932,-0.090
29.384,-0.285,0.934,-0.090
29.394,-0.285,0.934,-0.086
29.404,-0.281,0.932,-0.088
29.414,-0.281,0.934,-0.088
29.424,-0.281,0.934,-0.088
29.434,-0.279,0.934,-0.088
29.444,-0.279,0.932,-0.092
29.454,-0.281,0.930,-0.088
29.464,-0.285,0.930,-0.088
29.473,-0.283,0.930,-0.092
29.483,-0.283,0.930,-0.088
29.493,-0.285,0.930,-0.086
29.503,-0.283,0.934,-0.088
29.513,-0.281,0.932,-0.092
29.523,-0.283,0.932,-0.086
29.533,-0.277,0.934,-0.092
29.543,-0.277,0.930,-0.086
29.553,-0.275,0.924,-0.088
29.563,-0.279,0.926,-0.086
29.573,-0.277,0.924,-0.088
29.583,-0.268,0.928,-0.086
29.593,-0.266,0.932,-0.088
29.602,-0.266,0.934,-0.090
29.612,-0.248,0.932,-0.090
29.622,-0.232,0.932,-0.086
29.632,-0.230,0.934,-0.082
29.642,-0.238,0.934,-0.084
29.652,-0.246,0.934,-0.080
29.662,-0.252,0.934,-0.078
29.672,-0.262,0.930,-0.074
29.682,-0.270,0.930,-0.074
29.692,-0.277,0.932,-0.074
29.702,-0.277,0.934,-0.076
29.712,-0.281,0.939,-0.076
29.722,-0.285,0.941,-0.076
29.731,-0.287,0.941,-0.074
29.741,-0.297,0.941,-0.072
29.751,-0.301,0.941,-0.070
29.761,-0.305,0.943,-0.068
29.771,-0.307,0.932,-0.068
29.781,-0.307,0.928,-0.066
29.791,-0.305,0.924,-0.062
29.801,-0.305,0.924,-0.064
29.811,-0.297,0.926,-0.062
29.821,-0.291,0.926,-0.064
29.831,-0.287,0.930,-0.068
29.841,-0.289,0.934,-0.066
29.851,-0.287,0.936,-0.068
29.860,-0.285,0.934,-0.064
29.870,-0.281,0.934,-0.061
29.880,-0.279,0.934,-0.064
29.890,-0.283,0.926,-0.061
29.900,-0.293,0.920,-0.066
29.910,-0.295,0.920,-0.064
29.920,-0.301,0.928,-0.066
29.930,-0.305,0.936,-0.064
29.940,-0.307,0.936,-0.064
29.950,-0.301,0.934,-0.059
29.960,-0.303,0.938,-0.061
29.970,-0.303,0.938,-0.061
29.980,-0.307,0.936,-0.059
29.989,-0.305,0.938,-0.061
29.999,-0.309,0.936,-0.061
30.009,-0.312,0.938,-0.057
30.019,-0.312,0.932,-0.053
30.029,-0.312,0.936,-0.051
30.039,-0.311,0.938,-0.055
30.049,-0.311,0.936,-0.059
30.059,-0.305,0.936,-0.055
30.069,-0.301,0.934,-0.051
30.079,-0.297,0.936,-0.053
30.089,-0.291,0.934,-0.053
30.099,-0.293,0.934,-0.047
30.109,-0.289,0.936,-0.049
30.118,-0.289,0.939,-0.053
30.128,-0.281,0.934,-0.051
30.138,-0.283,0.936,-0.051
30.148,-0.281,0.932,-0.049
30.158,-0.281,0.936,-0.053
30.168,-0.277,0.938,-0.055
30.178,-0.273,0.934,-0.051
30.188,-0.275,0.936,-0.055
30.198,-0.281,0.932,-0.051
30.208,-0.283,0.934,-0.051
30.218,-0.287,0.938,-0.051
30.228,-0.293,0.936,-0.051
30.238,-0.291,0.934,-0.051
30.247,-0.289,0.938,-0.053
30.257,-0.295,0.936,-0.055
30.267,-0.295,0.936,-0.051
30.277,-0.291,0.932,-0.051
30.287,-0.289,0.936,-0.049
30.297,-0.291,0.934,-0.053
30.307,-0.291,0.936,-0.053
30.317,-0.293,0.932,-0.053
30.327,-0.291,0.928,-0.049
30.337,-0.291,0.932,-0.051
30.347,-0.293,0.934,-0.051
30.357,-0.295,0.936,-0.049
30.367,-0.299,0.932,-0.053
30.376,-0.293,0.938,-0.051
30.386,-0.293,0.932,-0.051
30.396,-0.295,0.936,-0.051
30.406,-0.297,0.930,-0.051
30.416,-0.293,0.934,-0.051
30.426,-0.287,0.938,-0.049
30.436,-0.293,0.938,-0.055
30.446,-0.293,0.936,-0.053
30.456,-0.295,0.938,-0.055
30.466,-0.297,0.934,-0.053
30.476,-0.295,0.934,-0.057
30.486,-0.297,0.934,-0.051
30.496,-0.297,0.936,-0.053
30.505,-0.297,0.930,-0.053
30.515,-0.297,0.930,-0.055
30.525,-0.295,0.930,-0.053
30.535,-0.293,0.928,-0.051
30.545,-0.295,0.932,-0.051
30.555,-0.295,0.930,-0.053
30.565,-0.299,0.928,-0.051
30.575,-0.299,0.930,-0.051
30.585,-0.299,0.930,-0.053
30.595,-0.297,0.934,-0.053
30.605,-0.297,0.934,-0.049
30.615,-0.297,0.936,-0.053
30.625,-0.299,0.934,-0.053
30.634,-0.299,0.932,-0.053
30.644,-0.299,0.934,-0.055
30.654,-0.299,0.928,-0.053
30.664,-0.297,0.928,-0.053
30.674,-0.293,0.930,-0.053
30.684,-0.297,0.932,-0.057
30.694,-0.301,0.932,-0.055
30.704,-0.299,0.932,-0.055
30.714,-0.301,0.936,-0.059
30.724,-0.303,0.932,-0.057
30.734,-0.303,0.932,-0.057
30.744,-0.305,0.930,-0.057
30.754,-0.301,0.930,-0.057
30.763,-0.303,0.930,-0.057
30.773,-0.301,0.928,-0.057
30.783,-0.297,0.930,-0.057
30.793,-0.301,0.932,-0.059
30.803,-0.299,0.932,-0.059
30.813,-0.299,0.934,-0.061
30.823,-0.299,0.934,-0.061
30.833,-0.301,0.936,-0.057
30.843,-0.299,0.934,-0.062
30.853,-0.295,0.932,-0.059
30.863,-0.299,0.930,-0.057
30.873,-0.297,0.932,-0.061
30.883,-0.297,0.930,-0.061
30.892,-0.299,0.928,-0.061
30.902,-0.303,0.928,-0.057
30.912,-0.301,0.926,-0.059
30.922,-0.301,0.926,-0.062
30.932,-0.301,0.926,-0.062
30.942,-0.299,0.928,-0.062
30.952,-0.297,0.930,-0.061
30.962,-0.301,0.930,-0.062
30.972,-0.303,0.932,-0.064
30.982,-0.303,0.932,-0.064
30.992,-0.303,0.932,-0.062
31.002,-0.305,0.930,-0.062
31.012,-0.303,0.928,-0.062
31.021,-0.303,0.928,-0.062
31.031,-0.303,0.932,-0.064
31.041,-0.307,0.928,-0.064
31.051,-0.305,0.928,-0.064
31.061,-0.305,0.930,-0.064
31.071,-0.305,0.922,-0.062
31.081,-0.303,0.928,-0.062
31.091,-0.301,0.928,-0.062
31.101,-0.301,0.930,-0.062
31.111,-0.297,0.934,-0.062
31.121,-0.297,0.938,-0.064
31.131,-0.299,0.938,-0.064
31.141,-0.295,0.939,-0.062
31.150,-0.297,0.934,-0.064
31.160,-0.297,0.932,-0.062
31.170,-0.299,0.930,-0.064
31.180,-0.297,0.926,-0.061
31.190,-0.299,0.928,-0.061
31.200,-0.299,0.928,-0.061
31.210,-0.297,0.930,-0.057
31.220,-0.295,0.928,-0.059
31.230,-0.297,0.932,-0.061
31.240,-0.299,0.932,-0.062
31.250,-0.297,0.930,-0.061
31.260,-0.301,0.930,-0.059
31.270,-0.297,0.928,-0.061
31.279,-0.299,0.932,-0.061
31.289,-0.301,0.932,-0.062
31.299,-0.297,0.934,-0.062
31.309,-0.303,0.932,-0.061
31.319,-0.305,0.932,-0.062
31.329,-0.303,0.926,-0.064
31.339,-0.305,0.922,-0.061
31.349,-0.305,0.926,-0.062
31.359,-0.305,0.930,-0.064
31.369,-0.305,0.932,-0.064
31.379,-0.307,0.930,-0.068
31.389,-0.307,0.930,-0.064
31.399,-0.307,0.930,-0.062
31.408,-0.311,0.930,-0.062
31.418,-0.309,0.930,-0.062
31.428,-0.307,0.930,-0.062
31.438,-0.303,0.930,-0.066
31.448,-0.303,0.930,-0.066
31.458,-0.301,0.930,-0.064
31.468,-0.303,0.926,-0.070
31.478,-0.301,0.930,-0.064
31.488,-0.299,0.930,-0.064
31.498,-0.299,0.928,-0.066
31.508,-0.303,0.930,-0.062
31.518,-0.301,0.934,-0.062
31.528,-0.303,0.930,-0.068
31.537,-0.301,0.928,-0.066
31.547,-0.301,0.928,-0.068
31.557,-0.303,0.930,-0.066
31.567,-0.301,0.928,-0.066
31.577,-0.303,0.930,-0.066
31.587,-0.303,0.930,-0.068
31.597,-0.303,0.928,-0.068
31.607,-0.303,0.930,-0.068
31.617,-0.305,0.932,-0.066
31.627,-0.303,0.934,-0.066
31.637,-0.305,0.932,-0.066
31.647,-0.303,0.928,-0.066
31.656,-0.303,0.932,-0.070
31.666,-0.305,0.930,-0.068
31.676,-0.305,0.928,-0.068
31.686,-0.301,0.928,-0.068
31.696,-0.305,0.932,-0.068
31.706,-0.303,0.932,-0.066
31.716,-0.305,0.932,-0.066
31.726,-0.303,0.930,-0.068
31.736,-0.305,0.928,-0.068
31.746,-0.301,0.926,-0.068
31.756,-0.301,0.928,-0.068
31.766,-0.301,0.930,-0.064
31.776,-0.299,0.928,-0.068
31.785,-0.301,0.928,-0.066
31.795,-0.301,0.932,-0.068
31.805,-0.303,0.930,-0.066
31.815,-0.305,0.932,-0.068
31.825,-0.307,0.928,-0.068
31.835,-0.309,0.930,-0.070
31.845,-0.309,0.926,-0.068
31.855,-0.311,0.924,-0.068
31.865,-0.309,0.928,-0.070
31.875,-0.311,0.924,-0.068
31.885,-0.311,0.924,-0.070
31.895,-0.312,0.928,-0.070
31.905,-0.309,0.928,-0.066
31.914,-0.309,0.928,-0.068
31.924,-0.307,0.926,-0.064
31.934,-0.307,0.928,-0.064
31.944,-0.305,0.930,-0.068
31.954,-0.307,0.928,-0.064
31.964,-0.305,0.928,-0.068
31.974,-0.305,0.932,-0.066
31.984,-0.307,0.928,-0.066
31.994,-0.307,0.928,-0.068
32.004,-0.307,0.928,-0.068
32.014,-0.309,0.924,-0.068
32.024,-0.307,0.926,-0.068
32.034,-0.309,0.926,-0.066
32.043,-0.311,0.934,-0.066
32.053,-0.309,0.932,-0.064
32.063,-0.305,0.932,-0.066
32.073,-0.307,0.930,-0.066
32.083,-0.307,0.932,-0.068
32.093,-0.307,0.932,-0.066
32.103,-0.311,0.932,-0.064
32.113,-0.309,0.926,-0.064
32.123,-0.312,0.926,-0.062
32.133,-0.312,0.926,-0.062
32.143,-0.311,0.928,-0.068
32.153,-0.309,0.928,-0.068
32.163,-0.311,0.928,-0.064
32.172,-0.309,0.930,-0.066
32.182,-0.311,0.930,-0.064
32.192,-0.309,0.928,-0.066
32.202,-0.307,0.926,-0.064
32.212,-0.311,0.926,-0.068
32.222,-0.312,0.928,-0.064
32.232,-0.311,0.926,-0.070
32.242,-0.314,0.926,-0.068
32.252,-0.312,0.924,-0.070
32.262,-0.312,0.928,-0.068
32.272,-0.311,0.922,-0.072
32.282,-0.311,0.926,-0.068
32.292,-0.311,0.928,-0.070
32.301,-0.312,0.926,-0.070
32.311,-0.312,0.924,-0.070
32.321,-0.314,0.924,-0.068
32.331,-0.314,0.926,-0.068
32.341,-0.312,0.928,-0.068
32.351,-0.314,0.926,-0.068
32.361,-0.311,0.926,-0.070
32.371,-0.312,0.928,-0.068
32.381,-0.312,0.928,-0.070
32.391,-0.311,0.926,-0.072
32.401,-0.312,0.924,-0.068
32.411,-0.309,0.926,-0.070
32.421,-0.309,0.928,-0.070
32.430,-0.312,0.928,-0.070
32.440,-0.311,0.924,-0.066
32.450,-0.312,0.930,-0.072
32.460,-0.312,0.926,-0.066
32.470,-0.312,0.922,-0.068
32.480,-0.309,0.926,-0.064
32.490,-0.305,0.928,-0.072
32.500,-0.301,0.932,-0.064
32.510,-0.309,0.932,-0.070
32.520,-0.309,0.932,-0.070
32.530,-0.309,0.930,-0.068
32.540,-0.311,0.928,-0.070
32.550,-0.311,0.924,-0.068
32.559,-0.312,0.924,-0.068
32.569,-0.311,0.924,-0.068
32.579,-0.309,0.926,-0.070
32.589,-0.311,0.930,-0.070
32.599,-0.312,0.926,-0.068
32.609,-0.311,0.922,-0.068
32.619,-0.311,0.928,-0.072
32.629,-0.311,0.924,-0.068
32.639,-0.311,0.924,-0.070
32.649,-0.312,0.924,-0.068
32.659,-0.314,0.924,-0.070
32.669,-0.311,0.926,-0.068
32.679,-0.312,0.926,-0.070
32.688,-0.312,0.926,-0.068
32.698,-0.314,0.926,-0.070
32.708,-0.314,0.930,-0.072
32.718,-0.316,0.930,-0.070
32.728,-0.311,0.922,-0.068
32.738,-0.311,0.928,-0.064
32.748,-0.307,0.926,-0.064
32.758,-0.309,0.932,-0.070
32.768,-0.307,0.930,-0.066
32.778,-0.307,0.930,-0.068
32.788,-0.307,0.932,-0.068
32.798,-0.305,0.928,-0.068
32.808,-0.307,0.930,-0.066
32.817,-0.305,0.930,-0.066
32.827,-0.307,0.928,-0.068
32.837,-0.307,0.932,-0.066
32.847,-0.309,0.928,-0.070
32.857,-0.307,0.926,-0.068
32.867,-0.307,0.922,-0.068
32.877,-0.311,0.924,-0.070
32.887,-0.312,0.924,-0.070
32.897,-0.311,0.924,-0.068
32.907,-0.312,0.924,-0.070
32.917,-0.312,0.928,-0.072
32.927,-0.312,0.926,-0.072
32.937,-0.311,0.926,-0.076
32.946,-0.309,0.928,-0.070
32.956,-0.309,0.928,-0.072
32.966,-0.307,0.928,-0.072
32.976,-0.311,0.926,-0.072
32.986,-0.311,0.926,-0.072
32.996,-0.311,0.926,-0.070
33.006,-0.309,0.926,-0.072
33.016,-0.311,0.926,-0.070
33.026,-0.312,0.924,-0.072
33.036,-0.314,0.930,-0.068
33.046,-0.314,0.928,-0.068
33.056,-0.312,0.924,-0.070
33.066,-0.311,0.930,-0.070
33.075,-0.312,0.928,-0.070
33.085,-0.309,0.928,-0.070
33.095,-0.309,0.930,-0.070
33.105,-0.311,0.926,-0.070
33.115,-0.307,0.930,-0.072
33.125,-0.312,0.926,-0.070
33.135,-0.312,0.926,-0.070
33.145,-0.309,0.926,-0.072
33.155,-0.312,0.928,-0.072
33.165,-0.312,0.926,-0.068
33.175,-0.311,0.924,-0.066
33.185,-0.311,0.922,-0.072
33.195,-0.312,0.926,-0.068
33.204,-0.311,0.924,-0.072
33.214,-0.311,0.930,-0.070
33.224,-0.311,0.928,-0.074
33.234,-0.307,0.930,-0.072
33.244,-0.309,0.926,-0.072
33.254,-0.314,0.924,-0.074
33.264,-0.312,0.924,-0.070
33.274,-0.316,0.926,-0.072
33.284,-0.314,0.930,-0.072
33.294,-0.314,0.928,-0.070
33.304,-0.309,0.926,-0.066
33.314,-0.309,0.924,-0.070
33.324,-0.307,0.926,-0.070
33.333,-0.307,0.926,-0.070
33.343,-0.311,0.926,-0.068
33.353,-0.311,0.926,-0.070
33.363,-0.311,0.924,-0.070
33.373,-0.311,0.926,-0.066
33.383,-0.311,0.926,-0.068
33.393,-0.309,0.928,-0.068
33.403,-0.307,0.926,-0.070
33.413,-0.307,0.928,-0.064
33.423,-0.309,0.930,-0.070
33.433,-0.309,0.928,-0.070
33.443,-0.311,0.930,-0.068
33.453,-0.314,0.932,-0.068
33.462,-0.314,0.924,-0.066
33.472,-0.312,0.926,-0.066
33.482,-0.311,0.928,-0.070
33.492,-0.311,0.930,-0.068
33.502,-0.312,0.930,-0.064
33.512,-0.307,0.930,-0.068
33.522,-0.309,0.932,-0.066
33.532,-0.309,0.928,-0.068
33.542,-0.307,0.932,-0.068
33.552,-0.309,0.928,-0.068
33.562,-0.309,0.924,-0.068
33.572,-0.309,0.926,-0.068
33.582,-0.311,0.926,-0.066
33.591,-0.311,0.926,-0.066
33.601,-0.311,0.926,-0.070
33.611,-0.309,0.922,-0.070
33.621,-0.309,0.924,-0.068
33.631,-0.309,0.928,-0.068
33.641,-0.311,0.930,-0.070
33.651,-0.307,0.926,-0.066
33.661,-0.309,0.928,-0.070
33.671,-0.309,0.928,-0.070
33.681,-0.311,0.926,-0.072
33.691,-0.311,0.926,-0.070
33.701,-0.311,0.924,-0.070
33.711,-0.312,0.928,-0.072
33.720,-0.312,0.928,-0.072
33.730,-0.312,0.922,-0.066
33.740,-0.314,0.926,-0.074
33.750,-0.312,0.926,-0.070
33.760,-0.312,0.926,-0.070
33.770,-0.311,0.926,-0.070
33.780,-0.309,0.924,-0.070
33.790,-0.311,0.928,-0.070
33.800,-0.314,0.926,-0.070
33.810,-0.312,0.930,-0.068
33.820,-0.311,0.924,-0.070
33.830,-0.312,0.930,-0.070
33.839,-0.311,0.924,-0.070
33.849,-0.312,0.928,-0.068
33.859,-0.312,0.926,-0.068
33.869,-0.311,0.926,-0.066
33.879,-0.312,0.926,-0.068
33.889,-0.311,0.926,-0.070
33.899,-0.312,0.924,-0.072
33.909,-0.311,0.930,-0.068
33.919,-0.311,0.932,-0.070
33.929,-0.311,0.928,-0.070
33.939,-0.311,0.926,-0.068
33.949,-0.311,0.926,-0.066
33.959,-0.309,0.926,-0.066
33.968,-0.312,0.922,-0.066
33.978,-0.314,0.924,-0.066
33.988,-0.311,0.926,-0.068
33.998,-0.309,0.928,-0.068
34.008,-0.309,0.934,-0.066
34.018,-0.309,0.932,-0.064
34.028,-0.311,0.930,-0.072
34.038,-0.312,0.932,-0.068
34.048,-0.312,0.926,-0.068
34.058,-0.314,0.924,-0.068
34.068,-0.312,0.924,-0.068
34.078,-0.316,0.922,-0.068
34.088,-0.312,0.924,-0.072
34.097,-0.312,0.926,-0.066
34.107,-0.311,0.926,-0.064
34.117,-0.311,0.922,-0.064
34.127,-0.316,0.924,-0.070
34.137,-0.316,0.928,-0.068
34.147,-0.314,0.926,-0.070
34.157,-0.312,0.928,-0.066
34.167,-0.311,0.928,-0.070
34.177,-0.311,0.926,-0.070
34.187,-0.311,0.928,-0.070
34.197,-0.314,0.928,-0.070
34.207,-0.316,0.926,-0.068
34.217,-0.316,0.930,-0.068
34.226,-0.316,0.922,-0.068
34.236,-0.318,0.926,-0.066
34.246,-0.312,0.924,-0.066
34.256,-0.314,0.926,-0.066
34.266,-0.314,0.930,-0.070
34.276,-0.312,0.928,-0.064
34.286,-0.312,0.928,-0.066
34.296,-0.312,0.926,-0.064
34.306,-0.312,0.926,-0.062
34.316,-0.314,0.928,-0.064
34.326,-0.311,0.926,-0.066
34.336,-0.311,0.930,-0.066
34.346,-0.309,0.928,-0.066
34.355,-0.311,0.926,-0.066
34.365,-0.314,0.926,-0.064
34.375,-0.309,0.926,-0.066
34.385,-0.309,0.928,-0.066
34.395,-0.309,0.924,-0.064
34.405,-0.311,0.928,-0.064
34.415,-0.309,0.926,-0.066
34.425,-0.312,0.930,-0.066
34.435,-0.312,0.926,-0.068
34.445,-0.311,0.928,-0.066
34.455,-0.309,0.928,-0.066
34.465,-0.311,0.926,-0.064
34.475,-0.309,0.926,-0.064
34.484,-0.311,0.926,-0.068
34.494,-0.311,0.926,-0.066
34.504,-0.311,0.924,-0.064
34.514,-0.311,0.924,-0.062
34.524,-0.312,0.926,-0.068
34.534,-0.314,0.928,-0.062
34.544,-0.314,0.926,-0.066
34.554,-0.312,0.928,-0.066
34.564,-0.314,0.930,-0.064
34.574,-0.316,0.926,-0.062
34.584,-0.314,0.928,-0.064
34.594,-0.312,0.926,-0.064
34.604,-0.314,0.928,-0.066
34.613,-0.314,0.928,-0.068
34.623,-0.312,0.926,-0.064
34.633,-0.314,0.926,-0.066
34.643,-0.314,0.924,-0.064
34.653,-0.312,0.926,-0.064
34.663,-0.314,0.926,-0.068
34.673,-0.318,0.928,-0.068
34.683,-0.316,0.926,-0.066
34.693,-0.314,0.926,-0.064
34.703,-0.314,0.922,-0.068
34.713,-0.312,0.922,-0.066
34.723,-0.314,0.924,-0.066
34.733,-0.314,0.926,-0.064
34.742,-0.314,0.928,-0.062
34.752,-0.314,0.932,-0.064
34.762,-0.316,0.930,-0.066
34.772,-0.316,0.930,-0.066
34.782,-0.314,0.930,-0.064
34.792,-0.316,0.928,-0.064
34.802,-0.316,0.924,-0.064
34.812,-0.314,0.922,-0.064
34.822,-0.316,0.924,-0.064
34.832,-0.314,0.926,-0.064
34.842,-0.316,0.924,-0.062
34.852,-0.316,0.926,-0.064
34.862,-0.316,0.926,-0.062
34.871,-0.314,0.928,-0.066
34.881,-0.312,0.928,-0.062
34.891,-0.314,0.926,-0.066
34.901,-0.312,0.924,-0.066
34.911,-0.314,0.926,-0.066
34.921,-0.314,0.924,-0.066
34.931,-0.314,0.924,-0.066
34.941,-0.314,0.922,-0.066
34.951,-0.320,0.926,-0.066
34.961,-0.316,0.926,-0.066
34.971,-0.316,0.916,-0.061
34.981,-0.320,0.922,-0.064
34.991,-0.316,0.928,-0.064
35.000,-0.318,0.928,-0.066
35.010,-0.316,0.930,-0.066
35.020,-0.314,0.930,-0.062
35.030,-0.314,0.930,-0.064
35.040,-0.314,0.928,-0.062
35.050,-0.314,0.924,-0.064
35.060,-0.312,0.926,-0.061
35.070,-0.314,0.924,-0.064
35.080,-0.314,0.924,-0.068
35.090,-0.309,0.926,-0.064
35.100,-0.312,0.928,-0.064
35.110,-0.311,0.928,-0.062
35.120,-0.311,0.926,-0.064
35.129,-0.311,0.928,-0.062
35.139,-0.314,0.928,-0.062
35.149,-0.311,0.926,-0.064
35.159,-0.312,0.928,-0.066
35.169,-0.314,0.926,-0.064
35.179,-0.314,0.928,-0.064
35.189,-0.312,0.932,-0.064
35.199,-0.316,0.926,-0.066
35.209,-0.311,0.926,-0.066
35.219,-0.311,0.926,-0.062
35.229,-0.309,0.922,-0.064
35.239,-0.312,0.924,-0.062
35.249,-0.312,0.928,-0.064
35.258,-0.311,0.928,-0.062
35.268,-0.312,0.926,-0.064
35.278,-0.314,0.928,-0.061
35.288,-0.316,0.926,-0.061
35.298,-0.318,0.926,-0.062
35.308,-0.316,0.926,-0.064
35.318,-0.314,0.926,-0.062
35.328,-0.316,0.930,-0.064
35.338,-0.314,0.930,-0.064
35.348,-0.314,0.928,-0.064
35.358,-0.316,0.928,-0.064
35.368,-0.314,0.932,-0.066
35.378,-0.312,0.928,-0.062
35.387,-0.314,0.926,-0.064
35.397,-0.311,0.926,-0.064
35.407,-0.312,0.924,-0.064
35.417,-0.316,0.922,-0.064
35.427,-0.314,0.930,-0.064
35.437,-0.312,0.926,-0.068
35.447,-0.311,0.928,-0.064
35.457,-0.314,0.930,-0.066
35.467,-0.312,0.932,-0.062
35.477,-0.316,0.932,-0.066
35.487,-0.314,0.928,-0.064
35.497,-0.318,0.926,-0.064
35.507,-0.318,0.928,-0.062
35.516,-0.316,0.922,-0.064
35.526,-0.314,0.928,-0.064
35.536,-0.316,0.926,-0.064
35.546,-0.309,0.928,-0.066
35.556,-0.307,0.928,-0.064
35.566,-0.307,0.926,-0.062
35.576,-0.311,0.926,-0.066
35.586,-0.311,0.926,-0.062
35.596,-0.309,0.926,-0.064
35.606,-0.311,0.926,-0.064
35.616,-0.312,0.926,-0.062
35.626,-0.314,0.928,-0.064
35.636,-0.316,0.926,-0.064
35.645,-0.314,0.928,-0.062
35.655,-0.314,0.928,-0.066
35.665,-0.312,0.930,-0.066
35.675,-0.316,0.924,-0.066
35.685,-0.316,0.926,-0.064
35.695,-0.312,0.926,-0.062
35.705,-0.307,0.936,-0.062
35.715,-0.309,0.928,-0.062
35.725,-0.311,0.930,-0.062
35.735,-0.309,0.928,-0.061
35.745,-0.312,0.928,-0.061
35.755,-0.316,0.924,-0.064
35.765,-0.314,0.926,-0.062
35.774,-0.314,0.926,-0.061
35.784,-0.316,0.928,-0.064
35.794,-0.312,0.928,-0.061
35.804,-0.311,0.928,-0.062
35.814,-0.311,0.928,-0.066
35.824,-0.309,0.930,-0.066
35.834,-0.309,0.926,-0.064
35.844,-0.311,0.930,-0.062
35.854,-0.311,0.930,-0.064
35.864,-0.309,0.926,-0.062
35.874,-0.312,0.926,-0.062
35.884,-0.311,0.924,-0.066
35.894,-0.312,0.924,-0.066
35.903,-0.316,0.924,-0.062
35.913,-0.316,0.922,-0.064
35.923,-0.314,0.928,-0.062
35.933,-0.314,0.928,-0.068
35.943,-0.311,0.932,-0.062
35.953,-0.305,0.930,-0.062
35.963,-0.305,0.930,-0.061
35.973,-0.303,0.934,-0.062
35.983,-0.301,0.930,-0.061
35.993,-0.307,0.928,-0.059
36.003,-0.305,0.928,-0.057
36.013,-0.305,0.932,-0.057
36.022,-0.307,0.930,-0.057
36.032,-0.307,0.932,-0.061
36.042,-0.305,0.930,-0.059
36.052,-0.299,0.926,-0.057
36.062,-0.299,0.928,-0.057
36.072,-0.297,0.928,-0.055
36.082,-0.299,0.928,-0.055
36.092,-0.299,0.930,-0.053
36.102,-0.293,0.930,-0.055
36.112,-0.285,0.928,-0.049
36.122,-0.283,0.926,-0.051
36.132,-0.279,0.920,-0.047
36.142,-0.273,0.924,-0.051
36.151,-0.275,0.930,-0.053
36.161,-0.283,0.934,-0.049
36.171,-0.291,0.939,-0.053
36.181,-0.299,0.939,-0.049
36.191,-0.305,0.943,-0.045
36.201,-0.314,0.934,-0.043
36.211,-0.322,0.932,-0.041
36.221,-0.326,0.934,-0.039
36.231,-0.330,0.936,-0.043
36.241,-0.330,0.932,-0.043
36.251,-0.328,0.928,-0.039
36.261,-0.328,0.932,-0.045
36.271,-0.324,0.928,-0.037
36.280,-0.324,0.932,-0.041
36.290,-0.328,0.932,-0.039
36.300,-0.326,0.934,-0.043
36.310,-0.322,0.936,-0.037
36.320,-0.320,0.936,-0.035
36.330,-0.320,0.932,-0.031
36.340,-0.314,0.932,-0.031
36.350,-0.309,0.934,-0.029
36.360,-0.301,0.930,-0.037
36.370,-0.293,0.934,-0.033
36.380,-0.291,0.938,-0.033
36.390,-0.287,0.936,-0.037
36.400,-0.285,0.936,-0.037
36.409,-0.281,0.936,-0.037
36.419,-0.283,0.938,-0.031
36.429,-0.291,0.934,-0.031
36.439,-0.299,0.930,-0.035
36.449,-0.303,0.926,-0.031
36.459,-0.305,0.932,-0.033
36.469,-0.305,0.934,-0.035
36.479,-0.311,0.941,-0.037
36.489,-0.314,0.938,-0.035
36.499,-0.314,0.936,-0.029
36.509,-0.312,0.936,-0.033
36.519,-0.312,0.936,-0.033
36.529,-0.311,0.936,-0.027
36.538,-0.314,0.934,-0.031
36.548,-0.312,0.932,-0.033
36.558,-0.311,0.932,-0.033
36.568,-0.305,0.934,-0.029
36.578,-0.303,0.936,-0.033
36.588,-0.299,0.936,-0.033
36.598,-0.293,0.938,-0.031
36.608,-0.291,0.936,-0.033
36.618,-0.293,0.936,-0.033
36.628,-0.289,0.934,-0.033
36.638,-0.291,0.934,-0.035
36.648,-0.295,0.934,-0.033
36.658,-0.295,0.930,-0.033
36.667,-0.299,0.932,-0.035
36.677,-0.299,0.934,-0.035
36.687,-0.301,0.936,-0.035
36.697,-0.299,0.936,-0.035
36.707,-0.299,0.936,-0.037
36.717,-0.297,0.938,-0.035
36.727,-0.297,0.934,-0.035
36.737,-0.299,0.934,-0.033
36.747,-0.299,0.934,-0.033
36.757,-0.301,0.934,-0.035
36.767,-0.305,0.934,-0.033
36.777,-0.301,0.932,-0.033
36.787,-0.301,0.936,-0.035
36.796,-0.303,0.934,-0.033
36.806,-0.299,0.936,-0.037
36.816,-0.299,0.936,-0.033
36.826,-0.301,0.936,-0.037
36.836,-0.295,0.936,-0.037
36.846,-0.293,0.932,-0.037
36.856,-0.291,0.932,-0.035
36.866,-0.295,0.934,-0.033
36.876,-0.295,0.934,-0.037
36.886,-0.295,0.938,-0.035
36.896,-0.301,0.938,-0.035
36.906,-0.303,0.934,-0.039
36.916,-0.299,0.934,-0.037
36.925,-0.297,0.936,-0.035
36.935,-0.301,0.934,-0.039
36.945,-0.299,0.932,-0.035
36.955,-0.299,0.932,-0.033
36.965,-0.301,0.932,-0.033
36.975,-0.301,0.932,-0.035
36.985,-0.303,0.932,-0.031
36.995,-0.303,0.936,-0.035
37.005,-0.299,0.938,-0.033
37.015,-0.297,0.943,-0.041
37.025,-0.295,0.941,-0.037
37.035,-0.295,0.938,-0.041
37.045,-0.297,0.934,-0.039
37.054,-0.303,0.926,-0.037
37.064,-0.303,0.926,-0.039
37.074,-0.305,0.932,-0.035
37.084,-0.303,0.930,-0.041
37.094,-0.299,0.934,-0.041
37.104,-0.303,0.936,-0.039
37.114,-0.301,0.939,-0.041
37.124,-0.297,0.934,-0.037
37.134,-0.301,0.934,-0.037
37.144,-0.301,0.934,-0.035
37.154,-0.299,0.932,-0.039
37.164,-0.295,0.936,-0.033
37.174,-0.299,0.936,-0.039
37.183,-0.299,0.936,-0.039
37.193,-0.299,0.939,-0.037
37.203,-0.299,0.934,-0.037
37.213,-0.297,0.938,-0.035
37.223,-0.299,0.938,-0.035
37.233,-0.299,0.934,-0.035
37.243,-0.301,0.934,-0.035
37.253,-0.297,0.932,-0.037
37.263,-0.293,0.934,-0.033
37.273,-0.299,0.936,-0.037
37.283,-0.295,0.936,-0.039
37.293,-0.293,0.938,-0.039
37.303,-0.295,0.938,-0.037
37.312,-0.291,0.936,-0.037
37.322,-0.287,0.938,-0.035
37.332,-0.289,0.938,-0.041
37.342,-0.291,0.932,-0.039
37.352,-0.291,0.934,-0.041
37.362,-0.297,0.934,-0.039
37.372,-0.301,0.932,-0.043
37.382,-0.297,0.932,-0.037
37.392,-0.301,0.928,-0.039
37.402,-0.299,0.930,-0.039
37.412,-0.301,0.932,-0.041
37.422,-0.303,0.932,-0.043
37.432,-0.305,0.934,-0.043
37.441,-0.303,0.934,-0.039
37.451,-0.303,0.936,-0.043
37.461,-0.305,0.934,-0.043
37.471,-0.299,0.934,-0.041
37.481,-0.301,0.928,-0.041
37.491,-0.299,0.932,-0.041
37.501,-0.301,0.928,-0.043
37.511,-0.301,0.932,-0.041
37.521,-0.301,0.932,-0.041
37.531,-0.301,0.932,-0.043
37.541,-0.299,0.934,-0.041
37.551,-0.299,0.934,-0.043
37.561,-0.299,0.932,-0.043
37.570,-0.299,0.930,-0.043
37.580,-0.301,0.934,-0.039
37.590,-0.299,0.934,-0.041
37.600,-0.301,0.932,-0.041
37.610,-0.301,0.936,-0.043
37.620,-0.303,0.936,-0.043
37.630,-0.303,0.932,-0.041
37.640,-0.303,0.932,-0.041
37.650,-0.303,0.930,-0.043
37.660,-0.299,0.936,-0.041
37.670,-0.303,0.936,-0.043
37.680,-0.297,0.930,-0.045
37.690,-0.299,0.930,-0.043
37.699,-0.305,0.934,-0.045
37.709,-0.305,0.934,-0.043
37.719,-0.307,0.930,-0.043
37.729,-0.305,0.932,-0.041
37.739,-0.311,0.930,-0.041
37.749,-0.309,0.930,-0.041
37.759,-0.305,0.928,-0.041
37.769,-0.301,0.934,-0.043
37.779,-0.297,0.932,-0.041
37.789,-0.301,0.936,-0.043
37.799,-0.299,0.936,-0.041
37.809,-0.303,0.934,-0.043
37.819,-0.297,0.934,-0.043
37.828,-0.301,0.930,-0.041
37.838,-0.303,0.932,-0.039
37.848,-0.303,0.926,-0.041
37.858,-0.303,0.930,-0.041
37.868,-0.305,0.932,-0.041
37.878,-0.303,0.936,-0.043
37.888,-0.305,0.934,-0.041
37.898,-0.305,0.934,-0.041
37.908,-0.307,0.930,-0.039
37.918,-0.303,0.930,-0.041
37.928,-0.305,0.934,-0.039
37.938,-0.307,0.936,-0.039
37.948,-0.305,0.934,-0.041
37.957,-0.307,0.938,-0.043
37.967,-0.309,0.932,-0.041
37.977,-0.312,0.934,-0.045
37.987,-0.314,0.932,-0.043
37.997,-0.316,0.932,-0.045
38.007,-0.316,0.934,-0.043
38.017,-0.314,0.928,-0.043
38.027,-0.316,0.924,-0.041
38.037,-0.314,0.920,-0.041
38.047,-0.316,0.930,-0.047
38.057,-0.318,0.930,-0.043
38.067,-0.316,0.926,-0.051
38.077,-0.316,0.928,-0.047
38.086,-0.320,0.928,-0.045
38.096,-0.318,0.928,-0.049
38.106,-0.316,0.932,-0.049
38.116,-0.314,0.932,-0.051
38.126,-0.312,0.930,-0.051
38.136,-0.312,0.930,-0.049
38.146,-0.312,0.928,-0.053
38.156,-0.314,0.928,-0.047
38.166,-0.311,0.926,-0.053
38.176,-0.311,0.926,-0.049
38.186,-0.311,0.928,-0.049
38.196,-0.311,0.928,-0.049
38.205,-0.312,0.928,-0.053
38.215,-0.312,0.928,-0.049
38.225,-0.312,0.930,-0.051
38.235,-0.314,0.930,-0.051
38.245,-0.314,0.928,-0.055
38.255,-0.314,0.930,-0.051
38.265,-0.314,0.928,-0.053
38.275,-0.312,0.926,-0.051
38.285,-0.316,0.930,-0.051
38.295,-0.314,0.926,-0.049
38.305,-0.314,0.928,-0.051
38.315,-0.312,0.928,-0.049
38.325,-0.316,0.926,-0.047
38.334,-0.316,0.932,-0.047
38.344,-0.316,0.930,-0.047
38.354,-0.316,0.926,-0.047
38.364,-0.316,0.928,-0.049
38.374,-0.316,0.928,-0.051
38.384,-0.318,0.926,-0.045
38.394,-0.318,0.928,-0.051
38.404,-0.316,0.928,-0.047
38.414,-0.314,0.928,-0.047
38.424,-0.314,0.928,-0.045
38.434,-0.316,0.928,-0.051
38.444,-0.316,0.926,-0.049
38.454,-0.318,0.924,-0.045
38.463,-0.320,0.922,-0.051
38.473,-0.318,0.928,-0.047
38.483,-0.320,0.928,-0.049
38.493,-0.318,0.928,-0.047
38.503,-0.318,0.924,-0.051
38.513,-0.318,0.926,-0.047
38.523,-0.318,0.928,-0.053
38.533,-0.318,0.922,-0.051
38.543,-0.320,0.924,-0.045
38.553,-0.318,0.926,-0.043
38.563,-0.318,0.930,-0.047
38.573,-0.318,0.934,-0.045
38.583,-0.320,0.932,-0.049
38.592,-0.318,0.934,-0.047
38.602,-0.318,0.932,-0.045
38.612,-0.318,0.930,-0.049
38.622,-0.324,0.926,-0.041
38.632,-0.322,0.924,-0.045
38.642,-0.320,0.924,-0.045
38.652,-0.322,0.926,-0.045
38.662,-0.322,0.926,-0.047
38.672,-0.324,0.928,-0.045
38.682,-0.322,0.928,-0.045
38.692,-0.326,0.926,-0.043
38.702,-0.324,0.922,-0.045
38.712,-0.322,0.924,-0.045
38.721,-0.322,0.928,-0.045
38.731,-0.320,0.928,-0.045
38.741,-0.322,0.928,-0.049
38.751,-0.324,0.926,-0.047
38.761,-0.318,0.926,-0.043
38.771,-0.328,0.924,-0.043
38.781,-0.324,0.924,-0.047
38.791,-0.326,0.922,-0.045
38.801,-0.326,0.920,-0.043
38.811,-0.326,0.926,-0.045
38.821,-0.322,0.924,-0.047
38.831,-0.324,0.932,-0.047
38.841,-0.324,0.930,-0.047
38.850,-0.324,0.932,-0.047
38.860,-0.324,0.930,-0.049
38.870,-0.328,0.924,-0.049
38.880,-0.326,0.926,-0.047
38.890,-0.322,0.926,-0.047
38.900,-0.324,0.928,-0.053
38.910,-0.322,0.926,-0.049
38.920,-0.322,0.924,-0.045
38.930,-0.324,0.928,-0.049
38.940,-0.324,0.926,-0.049
38.950,-0.324,0.924,-0.047
38.960,-0.328,0.926,-0.047
38.970,-0.324,0.928,-0.049
38.979,-0.324,0.928,-0.049
38.989,-0.324,0.926,-0.049
38.999,-0.324,0.924,-0.051
39.009,-0.322,0.922,-0.051
39.019,-0.320,0.922,-0.047
39.029,-0.322,0.924,-0.047
39.039,-0.324,0.920,-0.049
39.049,-0.326,0.922,-0.045
39.059,-0.330,0.928,-0.051
39.069,-0.328,0.926,-0.049
39.079,-0.330,0.926,-0.047
39.089,-0.326,0.928,-0.051
39.099,-0.324,0.926,-0.051
39.108,-0.320,0.924,-0.045
39.118,-0.316,0.926,-0.051
39.128,-0.320,0.926,-0.049
39.138,-0.320,0.928,-0.053
39.148,-0.320,0.928,-0.053
39.158,-0.322,0.922,-0.049
39.168,-0.326,0.926,-0.047
39.178,-0.328,0.924,-0.047
39.188,-0.326,0.924,-0.047
39.198,-0.328,0.926,-0.053
39.208,-0.328,0.928,-0.049
39.218,-0.328,0.930,-0.049
39.228,-0.326,0.926,-0.051
39.237,-0.326,0.928,-0.047
39.247,-0.326,0.924,-0.051
39.257,-0.326,0.926,-0.049
39.267,-0.326,0.922,-0.047
39.277,-0.326,0.920,-0.045
39.287,-0.328,0.920,-0.047
39.297,-0.326,0.922,-0.049
39.307,-0.328,0.926,-0.051
39.317,-0.324,0.926,-0.051
39.327,-0.324,0.928,-0.051
39.337,-0.320,0.930,-0.047
39.347,-0.320,0.930,-0.049
39.357,-0.324,0.928,-0.049
39.366,-0.328,0.928,-0.047
39.376,-0.332,0.922,-0.047
39.386,-0.336,0.922,-0.045
39.396,-0.336,0.918,-0.047
39.406,-0.336,0.918,-0.047
39.416,-0.334,0.922,-0.049
39.426,-0.334,0.922,-0.049
39.436,-0.332,0.924,-0.045
39.446,-0.332,0.926,-0.049
39.456,-0.330,0.928,-0.047
39.466,-0.330,0.928,-0.045
39.476,-0.328,0.924,-0.043
39.486,-0.328,0.922,-0.045
39.495,-0.324,0.922,-0.047
39.505,-0.322,0.926,-0.049
39.515,-0.322,0.928,-0.047
39.525,-0.322,0.930,-0.047
39.535,-0.320,0.928,-0.047
39.545,-0.320,0.932,-0.045
39.555,-0.316,0.930,-0.045
39.565,-0.320,0.922,-0.045
39.575,-0.316,0.926,-0.041
39.585,-0.318,0.930,-0.045
39.595,-0.318,0.932,-0.047
39.605,-0.322,0.926,-0.043
39.615,-0.322,0.926,-0.043
39.624,-0.328,0.922,-0.047
39.634,-0.332,0.922,-0.047
39.644,-0.332,0.924,-0.047
39.654,-0.332,0.924,-0.049
39.664,-0.334,0.926,-0.051
39.674,-0.334,0.924,-0.049
39.684,-0.332,0.924,-0.051
39.694,-0.336,0.922,-0.049
39.704,-0.332,0.920,-0.051
39.714,-0.330,0.922,-0.051
39.724,-0.326,0.924,-0.051
39.734,-0.328,0.924,-0.051
39.744,-0.326,0.924,-0.049
39.753,-0.326,0.928,-0.051
39.763,-0.326,0.922,-0.053
39.773,-0.322,0.924,-0.051
39.783,-0.322,0.926,-0.051
39.793,-0.322,0.922,-0.049
39.803,-0.322,0.922,-0.053
39.813,-0.322,0.924,-0.051
39.823,-0.322,0.922,-0.049
39.833,-0.322,0.924,-0.053
39.843,-0.324,0.924,-0.053
39.853,-0.328,0.924,-0.053
39.863,-0.326,0.924,-0.053
39.873,-0.326,0.926,-0.049
39.882,-0.326,0.926,-0.053
39.892,-0.326,0.926,-0.055
39.902,-0.330,0.928,-0.053
39.912,-0.328,0.926,-0.053
39.922,-0.328,0.926,-0.051
39.932,-0.330,0.924,-0.053
39.942,-0.330,0.924,-0.053
39.952,-0.330,0.924,-0.051
39.962,-0.330,0.924,-0.053
39.972,-0.330,0.924,-0.053
39.982,-0.330,0.922,-0.051
39.992,-0.328,0.928,-0.055
40.002,-0.324,0.924,-0.055
40.011,-0.328,0.924,-0.051
40.021,-0.326,0.924,-0.053
40.031,-0.322,0.924,-0.051
40.041,-0.326,0.924,-0.057
40.051,-0.324,0.924,-0.055
40.061,-0.320,0.924,-0.053
40.071,-0.324,0.926,-0.051
40.081,-0.322,0.928,-0.047
40.091,-0.324,0.926,-0.049
40.101,-0.324,0.928,-0.053
40.111,-0.326,0.926,-0.051
40.121,-0.326,0.930,-0.049
40.131,-0.326,0.922,-0.047
40.140,-0.332,0.922,-0.049
40.150,-0.332,0.924,-0.049
40.160,-0.332,0.922,-0.051
40.170,-0.332,0.924,-0.053
40.180,-0.328,0.928,-0.049
40.190,-0.328,0.922,-0.049
40.200,-0.326,0.924,-0.051
40.210,-0.330,0.926,-0.049
40.220,-0.326,0.924,-0.047
40.230,-0.328,0.922,-0.049
40.240,-0.326,0.922,-0.053
40.250,-0.324,0.926,-0.051
40.260,-0.326,0.926,-0.051
40.269,-0.328,0.924,-0.053
40.279,-0.332,0.924,-0.051
40.289,-0.332,0.926,-0.053
40.299,-0.330,0.918,-0.051
40.309,-0.332,0.920,-0.051
40.319,-0.330,0.922,-0.053
40.329,-0.330,0.926,-0.051
40.339,-0.334,0.928,-0.055
40.349,-0.334,0.924,-0.053
40.359,-0.334,0.926,-0.051
40.369,-0.338,0.924,-0.053
40.379,-0.336,0.922,-0.053
40.389,-0.334,0.922,-0.051
40.398,-0.336,0.924,-0.047
40.408,-0.330,0.920,-0.053
40.418,-0.330,0.928,-0.053
40.428,-0.330,0.926,-0.053
40.438,-0.330,0.926,-0.055
40.448,-0.330,0.924,-0.055
40.458,-0.334,0.920,-0.055
40.468,-0.334,0.918,-0.053
40.478,-0.336,0.918,-0.053
40.488,-0.336,0.922,-0.057
40.498,-0.338,0.924,-0.049
40.508,-0.338,0.922,-0.055
40.517,-0.336,0.926,-0.057
40.527,-0.334,0.922,-0.055
40.537,-0.332,0.924,-0.055
40.547,-0.332,0.918,-0.057
40.557,-0.330,0.922,-0.055
40.567,-0.330,0.918,-0.053
40.577,-0.334,0.920,-0.055
40.587,-0.334,0.922,-0.057
40.597,-0.332,0.920,-0.053
40.607,-0.334,0.922,-0.053
40.617,-0.330,0.924,-0.053
40.627,-0.332,0.924,-0.055
40.637,-0.332,0.924,-0.055
40.646,-0.334,0.920,-0.053
40.656,-0.334,0.924,-0.053
40.666,-0.334,0.920,-0.053
40.676,-0.334,0.922,-0.051
40.686,-0.334,0.922,-0.049
40.696,-0.332,0.924,-0.051
40.706,-0.334,0.924,-0.053
40.716,-0.334,0.922,-0.051
40.726,-0.334,0.920,-0.051
40.736,-0.330,0.922,-0.051
40.746,-0.336,0.922,-0.051
40.756,-0.334,0.926,-0.053
40.766,-0.336,0.926,-0.051
40.775,-0.336,0.922,-0.053
40.785,-0.336,0.924,-0.051
40.795,-0.338,0.918,-0.053
40.805,-0.338,0.918,-0.055
40.815,-0.332,0.918,-0.051
40.825,-0.334,0.922,-0.053
40.835,-0.334,0.922,-0.057
40.845,-0.336,0.926,-0.055
40.855,-0.338,0.924,-0.057
40.865,-0.336,0.924,-0.053
40.875,-0.334,0.926,-0.055
40.885,-0.340,0.920,-0.051
40.895,-0.336,0.920,-0.055
40.904,-0.336,0.922,-0.053
40.914,-0.334,0.924,-0.051
40.924,-0.332,0.924,-0.053
40.934,-0.330,0.926,-0.051
40.944,-0.330,0.924,-0.051
40.954,-0.334,0.924,-0.053
40.964,-0.332,0.922,-0.051
40.974,-0.328,0.924,-0.053
40.984,-0.328,0.920,-0.053
40.994,-0.330,0.922,-0.053
41.004,-0.330,0.922,-0.053
41.014,-0.330,0.924,-0.055
41.024,-0.334,0.922,-0.053
41.033,-0.336,0.928,-0.053
41.043,-0.338,0.924,-0.051
41.053,-0.336,0.926,-0.051
41.063,-0.336,0.922,-0.051
41.073,-0.338,0.920,-0.047
41.083,-0.338,0.924,-0.053
41.093,-0.334,0.924,-0.051
41.103,-0.338,0.924,-0.051
41.113,-0.334,0.922,-0.049
41.123,-0.334,0.926,-0.051
41.133,-0.332,0.924,-0.047
41.143,-0.332,0.924,-0.049
41.153,-0.330,0.924,-0.049
41.162,-0.328,0.924,-0.051
41.172,-0.330,0.926,-0.053
41.182,-0.330,0.922,-0.053
41.192,-0.330,0.924,-0.049
41.202,-0.330,0.922,-0.049
41.212,-0.332,0.924,-0.049
41.222,-0.330,0.922,-0.051
41.232,-0.332,0.926,-0.051
41.242,-0.334,0.922,-0.053
41.252,-0.332,0.926,-0.055
41.262,-0.332,0.924,-0.051
41.272,-0.330,0.924,-0.053
41.282,-0.328,0.928,-0.055
41.291,-0.332,0.922,-0.051
41.301,-0.332,0.920,-0.055
41.311,-0.332,0.920,-0.055
41.321,-0.334,0.920,-0.051
41.331,-0.334,0.924,-0.057
41.341,-0.336,0.924,-0.051
41.351,-0.334,0.922,-0.055
41.361,-0.332,0.924,-0.055
41.371,-0.332,0.922,-0.051
41.381,-0.334,0.922,-0.053
41.391,-0.334,0.922,-0.051
41.401,-0.334,0.920,-0.053
41.411,-0.336,0.920,-0.051
41.420,-0.332,0.924,-0.053
41.430,-0.336,0.922,-0.053
41.440,-0.336,0.922,-0.049
41.450,-0.336,0.924,-0.055
41.460,-0.336,0.922,-0.051
41.470,-0.338,0.922,-0.055
41.480,-0.334,0.924,-0.055
41.490,-0.336,0.922,-0.053
41.500,-0.334,0.924,-0.053
41.510,-0.334,0.922,-0.053
41.520,-0.336,0.922,-0.057
41.530,-0.336,0.922,-0.049
41.540,-0.334,0.922,-0.051
41.549,-0.334,0.920,-0.051
41.559,-0.334,0.920,-0.049
41.569,-0.332,0.920,-0.051
41.579,-0.332,0.922,-0.049
41.589,-0.330,0.924,-0.051
41.599,-0.332,0.928,-0.051
41.609,-0.336,0.930,-0.051
41.619,-0.332,0.924,-0.049
41.629,-0.334,0.924,-0.049
41.639,-0.338,0.920,-0.051
41.649,-0.338,0.916,-0.049
41.659,-0.334,0.922,-0.047
41.669,-0.336,0.920,-0.049
41.678,-0.334,0.924,-0.049
41.688,-0.334,0.920,-0.049
41.698,-0.338,0.920,-0.051
41.708,-0.336,0.922,-0.051
41.718,-0.338,0.922,-0.051
41.728,-0.334,0.922,-0.049
41.738,-0.336,0.920,-0.051
41.748,-0.332,0.920,-0.049
41.758,-0.334,0.920,-0.049
41.768,-0.334,0.924,-0.049
41.778,-0.334,0.922,-0.049
41.788,-0.336,0.924,-0.053
41.798,-0.336,0.926,-0.053
41.807,-0.338,0.924,-0.053
41.817,-0.336,0.918,-0.053
41.827,-0.334,0.920,-0.051
41.837,-0.336,0.922,-0.051
41.847,-0.330,0.924,-0.053
41.857,-0.338,0.926,-0.053
41.867,-0.342,0.926,-0.051
41.877,-0.336,0.922,-0.055
41.887,-0.340,0.922,-0.053
41.897,-0.338,0.920,-0.051
41.907,-0.338,0.922,-0.055
41.917,-0.336,0.920,-0.051
41.927,-0.336,0.924,-0.053
41.936,-0.336,0.926,-0.053
41.946,-0.338,0.920,-0.051
41.956,-0.338,0.920,-0.053
41.966,-0.336,0.920,-0.051
41.976,-0.338,0.920,-0.055
41.986,-0.340,0.920,-0.051
41.996,-0.338,0.922,-0.053
42.006,-0.336,0.920,-0.051
42.016,-0.336,0.922,-0.053
42.026,-0.336,0.920,-0.055
42.036,-0.338,0.916,-0.053
42.046,-0.338,0.918,-0.057
42.056,-0.338,0.922,-0.055
42.065,-0.342,0.920,-0.053
42.075,-0.342,0.920,-0.057
42.085,-0.342,0.920,-0.051
42.095,-0.342,0.920,-0.051
42.105,-0.342,0.920,-0.051
42.115,-0.340,0.922,-0.051
42.125,-0.338,0.922,-0.053
42.135,-0.338,0.920,-0.055
42.145,-0.338,0.920,-0.053
42.155,-0.338,0.920,-0.051
42.165,-0.340,0.922,-0.055
42.175,-0.336,0.920,-0.051
42.185,-0.334,0.922,-0.053
42.194,-0.338,0.920,-0.051
42.204,-0.336,0.922,-0.051
42.214,-0.338,0.920,-0.053
42.224,-0.338,0.924,-0.051
42.234,-0.340,0.924,-0.051
42.244,-0.332,0.920,-0.051
42.254,-0.334,0.924,-0.051
42.264,-0.334,0.924,-0.051
42.274,-0.336,0.924,-0.051
42.284,-0.340,0.924,-0.049
42.294,-0.342,0.920,-0.047
42.304,-0.340,0.920,-0.051
42.314,-0.340,0.920,-0.049
42.323,-0.334,0.922,-0.051
42.333,-0.334,0.924,-0.047
42.343,-0.334,0.928,-0.049
42.353,-0.336,0.926,-0.051
42.363,-0.338,0.926,-0.053
42.373,-0.340,0.924,-0.049
42.383,-0.340,0.924,-0.049
42.393,-0.342,0.918,-0.049
42.403,-0.342,0.916,-0.051
42.413,-0.344,0.918,-0.055
42.423,-0.342,0.922,-0.051
42.433,-0.340,0.920,-0.055
42.443,-0.344,0.920,-0.051
42.452,-0.340,0.920,-0.055
42.462,-0.342,0.920,-0.051
42.472,-0.342,0.918,-0.049
42.482,-0.338,0.920,-0.053
42.492,-0.340,0.918,-0.051
42.502,-0.336,0.920,-0.055
42.512,-0.338,0.924,-0.053
42.522,-0.340,0.922,-0.053
42.532,-0.342,0.920,-0.055
42.542,-0.342,0.922,-0.053
42.552,-0.344,0.922,-0.055
42.562,-0.342,0.922,-0.055
42.571,-0.342,0.916,-0.055
42.581,-0.342,0.916,-0.051
42.591,-0.340,0.918,-0.051
42.601,-0.340,0.922,-0.055
42.611,-0.340,0.926,-0.051
42.621,-0.342,0.922,-0.055
42.631,-0.342,0.920,-0.051
42.641,-0.344,0.918,-0.053
42.651,-0.346,0.922,-0.053
42.661,-0.344,0.918,-0.051
42.671,-0.340,0.920,-0.051
42.681,-0.344,0.922,-0.051
42.691,-0.342,0.920,-0.053
42.700,-0.342,0.922,-0.055
42.710,-0.344,0.920,-0.051
42.720,-0.340,0.922,-0.053
42.730,-0.340,0.920,-0.051
42.740,-0.338,0.920,-0.051
42.750,-0.340,0.920,-0.053
42.760,-0.336,0.918,-0.053
42.770,-0.340,0.918,-0.051
42.780,-0.340,0.916,-0.055
42.790,-0.340,0.918,-0.053
42.800,-0.340,0.920,-0.053
42.810,-0.342,0.920,-0.055
42.820,-0.344,0.920,-0.055
42.829,-0.344,0.916,-0.055
42.839,-0.342,0.918,-0.053
42.849,-0.346,0.920,-0.055
42.859,-0.344,0.922,-0.053
42.869,-0.346,0.920,-0.057
42.879,-0.344,0.922,-0.055
42.889,-0.340,0.920,-0.053
42.899,-0.344,0.922,-0.055
42.909,-0.344,0.920,-0.051
42.919,-0.342,0.920,-0.051
42.929,-0.340,0.922,-0.053
42.939,-0.340,0.922,-0.051
42.949,-0.344,0.922,-0.057
42.958,-0.344,0.920,-0.049
42.968,-0.344,0.920,-0.049
42.978,-0.342,0.920,-0.051
42.988,-0.344,0.924,-0.055
42.998,-0.342,0.920,-0.057
43.008,-0.342,0.922,-0.053
43.018,-0.340,0.918,-0.055
43.028,-0.344,0.918,-0.049
43.038,-0.342,0.916,-0.047
43.048,-0.340,0.914,-0.051
43.058,-0.340,0.920,-0.053
43.068,-0.340,0.920,-0.051
43.078,-0.340,0.922,-0.053
43.087,-0.344,0.924,-0.051
43.097,-0.342,0.924,-0.053
43.107,-0.342,0.926,-0.051
43.117,-0.342,0.926,-0.051
43.127,-0.346,0.918,-0.053
43.137,-0.342,0.918,-0.049
43.147,-0.344,0.918,-0.053
43.157,-0.344,0.916,-0.051
43.167,-0.344,0.918,-0.049
43.177,-0.342,0.918,-0.051
43.187,-0.342,0.920,-0.053
43.197,-0.342,0.922,-0.047
43.207,-0.348,0.920,-0.049
43.216,-0.346,0.918,-0.049
43.226,-0.344,0.916,-0.049
43.236,-0.344,0.918,-0.049
43.246,-0.344,0.920,-0.051
43.256,-0.342,0.920,-0.053
43.266,-0.346,0.920,-0.055
43.276,-0.348,0.920,-0.055
43.286,-0.348,0.920,-0.053
43.296,-0.350,0.920,-0.053
43.306,-0.350,0.916,-0.055
43.316,-0.348,0.912,-0.049
43.326,-0.348,0.916,-0.051
43.336,-0.346,0.924,-0.057
43.345,-0.344,0.920,-0.057
43.355,-0.346,0.922,-0.051
43.365,-0.342,0.920,-0.051
43.375,-0.344,0.922,-0.051
43.385,-0.346,0.922,-0.053
43.395,-0.346,0.918,-0.049
43.405,-0.342,0.918,-0.051
43.415,-0.346,0.916,-0.051
43.425,-0.346,0.920,-0.053
43.435,-0.346,0.918,-0.053
43.445,-0.344,0.918,-0.049
43.455,-0.344,0.922,-0.049
43.465,-0.344,0.924,-0.051
43.474,-0.344,0.920,-0.051
43.484,-0.346,0.920,-0.049
43.494,-0.346,0.920,-0.049
43.504,-0.342,0.920,-0.049
43.514,-0.342,0.918,-0.047
43.524,-0.342,0.920,-0.049
43.534,-0.342,0.918,-0.051
43.544,-0.340,0.918,-0.053
43.554,-0.340,0.918,-0.051
43.564,-0.342,0.916,-0.051
43.574,-0.344,0.918,-0.051
43.584,-0.346,0.914,-0.051
43.594,-0.346,0.916,-0.053
43.603,-0.348,0.918,-0.049
43.613,-0.354,0.922,-0.049
43.623,-0.348,0.918,-0.049
43.633,-0.350,0.924,-0.053
43.643,-0.348,0.922,-0.049
43.653,-0.348,0.924,-0.051
43.663,-0.344,0.924,-0.049
43.673,-0.344,0.922,-0.051
43.683,-0.344,0.920,-0.051
43.693,-0.344,0.918,-0.051
43.703,-0.346,0.918,-0.053
43.713,-0.344,0.918,-0.049
43.723,-0.344,0.922,-0.053
43.732,-0.346,0.920,-0.053
43.742,-0.344,0.920,-0.049
43.752,-0.350,0.920,-0.055
43.762,-0.348,0.918,-0.051
43.772,-0.348,0.918,-0.049
43.782,-0.350,0.920,-0.051
43.792,-0.344,0.920,-0.051
43.802,-0.344,0.918,-0.053
43.812,-0.344,0.920,-0.051
43.822,-0.342,0.926,-0.053
43.832,-0.342,0.924,-0.053
43.842,-0.342,0.920,-0.057
43.852,-0.344,0.920,-0.051
43.861,-0.348,0.914,-0.055
43.871,-0.342,0.916,-0.057
43.881,-0.346,0.918,-0.051
43.891,-0.346,0.914,-0.055
43.901,-0.348,0.916,-0.053
43.911,-0.346,0.920,-0.053
43.921,-0.346,0.916,-0.055
43.931,-0.348,0.918,-0.053
43.941,-0.350,0.918,-0.051
43.951,-0.344,0.916,-0.053
43.961,-0.346,0.916,-0.051
43.971,-0.344,0.920,-0.053
43.981,-0.342,0.920,-0.053
43.990,-0.342,0.920,-0.053
44.000,-0.342,0.920,-0.051
44.010,-0.344,0.918,-0.053
44.020,-0.344,0.922,-0.051
44.030,-0.350,0.920,-0.053
44.040,-0.346,0.916,-0.049
44.050,-0.348,0.918,-0.051
44.060,-0.346,0.922,-0.051
44.070,-0.346,0.924,-0.051
44.080,-0.346,0.922,-0.053
44.090,-0.342,0.922,-0.051
44.100,-0.340,0.926,-0.053
44.110,-0.340,0.922,-0.051
44.119,-0.340,0.918,-0.049
44.129,-0.342,0.918,-0.049
44.139,-0.342,0.922,-0.049
44.149,-0.346,0.918,-0.049
44.159,-0.344,0.918,-0.053
44.169,-0.346,0.920,-0.051
44.179,-0.348,0.920,-0.051
44.189,-0.346,0.916,-0.051
44.199,-0.348,0.920,-0.051
44.209,-0.342,0.918,-0.051
44.219,-0.342,0.922,-0.053
44.229,-0.344,0.922,-0.055
44.239,-0.344,0.916,-0.053
44.248,-0.344,0.916,-0.055
44.258,-0.346,0.916,-0.053
44.268,-0.344,0.920,-0.055
44.278,-0.346,0.916,-0.051
44.288,-0.348,0.918,-0.053
44.298,-0.348,0.920,-0.051
44.308,-0.346,0.918,-0.055
44.318,-0.348,0.920,-0.053
44.328,-0.346,0.920,-0.053
44.338,-0.342,0.922,-0.053
44.348,-0.346,0.918,-0.053
44.358,-0.344,0.918,-0.053
44.368,-0.344,0.920,-0.051
44.377,-0.348,0.920,-0.051
44.387,-0.346,0.918,-0.053
44.397,-0.344,0.920,-0.053
44.407,-0.344,0.920,-0.057
44.417,-0.344,0.920,-0.055
44.427,-0.346,0.922,-0.051
44.437,-0.346,0.918,-0.055
44.447,-0.344,0.920,-0.053
44.457,-0.344,0.918,-0.047
44.467,-0.342,0.916,-0.051
44.477,-0.344,0.918,-0.051
44.487,-0.346,0.922,-0.049
44.497,-0.346,0.920,-0.051
44.506,-0.348,0.918,-0.049
44.516,-0.346,0.916,-0.051
44.526,-0.348,0.918,-0.051
44.536,-0.350,0.914,-0.049
44.546,-0.346,0.916,-0.047
44.556,-0.344,0.918,-0.051
44.566,-0.342,0.924,-0.051
44.576,-0.340,0.924,-0.051
44.586,-0.340,0.926,-0.053
44.596,-0.340,0.924,-0.051
44.606,-0.340,0.920,-0.049
44.616,-0.344,0.920,-0.049
44.626,-0.348,0.918,-0.051
44.635,-0.352,0.918,-0.053
44.645,-0.350,0.918,-0.051
44.655,-0.350,0.916,-0.053
44.665,-0.348,0.916,-0.051
44.675,-0.346,0.922,-0.055
44.685,-0.346,0.920,-0.055
44.695,-0.346,0.920,-0.049
44.705,-0.346,0.918,-0.053
44.715,-0.348,0.916,-0.049
44.725,-0.348,0.918,-0.051
44.735,-0.346,0.920,-0.049
44.745,-0.344,0.920,-0.049
44.755,-0.348,0.918,-0.049
44.764,-0.350,0.922,-0.051
44.774,-0.350,0.920,-0.051
44.784,-0.348,0.920,-0.049
44.794,-0.350,0.920,-0.053
44.804,-0.350,0.916,-0.051
44.814,-0.348,0.916,-0.049
44.824,-0.346,0.918,-0.049
44.834,-0.346,0.920,-0.053
44.844,-0.348,0.918,-0.051
44.854,-0.346,0.922,-0.051
44.864,-0.344,0.922,-0.051
44.874,-0.344,0.920,-0.049
44.883,-0.346,0.918,-0.051
44.893,-0.348,0.918,-0.051
44.903,-0.350,0.920,-0.051
44.913,-0.352,0.918,-0.049
44.923,-0.344,0.920,-0.051
44.933,-0.350,0.920,-0.049
44.943,-0.350,0.918,-0.051
44.953,-0.348,0.918,-0.053
44.963,-0.346,0.918,-0.055
44.973,-0.344,0.920,-0.053
44.983,-0.346,0.918,-0.051
44.993,-0.350,0.920,-0.053
45.003,-0.346,0.918,-0.053
45.012,-0.348,0.918,-0.057
45.022,-0.348,0.918,-0.055
45.032,-0.350,0.918,-0.055
45.042,-0.348,0.918,-0.055
45.052,-0.346,0.918,-0.051
45.062,-0.346,0.918,-0.053
45.072,-0.350,0.916,-0.053
45.082,-0.346,0.916,-0.053
45.092,-0.346,0.918,-0.057
45.102,-0.348,0.918,-0.055
45.112,-0.346,0.918,-0.053
45.122,-0.348,0.916,-0.055
45.132,-0.346,0.918,-0.053
45.141,-0.350,0.920,-0.051
45.151,-0.348,0.920,-0.053
45.161,-0.346,0.920,-0.051
45.171,-0.348,0.920,-0.055
45.181,-0.348,0.920,-0.051
45.191,-0.346,0.920,-0.053
45.201,-0.346,0.922,-0.057
45.211,-0.350,0.916,-0.047
45.221,-0.348,0.916,-0.053
45.231,-0.348,0.918,-0.051
45.241,-0.348,0.920,-0.053
45.251,-0.346,0.916,-0.051
45.261,-0.348,0.918,-0.051
45.270,-0.346,0.918,-0.055
45.280,-0.342,0.920,-0.049
45.290,-0.348,0.918,-0.053
45.300,-0.344,0.920,-0.053
45.310,-0.340,0.920,-0.047
45.320,-0.340,0.924,-0.051
45.330,-0.344,0.926,-0.051
45.340,-0.346,0.922,-0.053
45.350,-0.348,0.920,-0.049
45.360,-0.354,0.916,-0.055
45.370,-0.350,0.916,-0.051
45.380,-0.354,0.912,-0.055
45.390,-0.352,0.912,-0.055
45.399,-0.355,0.916,-0.051
45.409,-0.354,0.916,-0.055
45.419,-0.352,0.912,-0.053
45.429,-0.355,0.914,-0.051
45.439,-0.354,0.916,-0.053
45.449,-0.355,0.916,-0.053
45.459,-0.355,0.914,-0.053
45.469,-0.352,0.916,-0.055
45.479,-0.350,0.916,-0.053
45.489,-0.352,0.918,-0.055
45.499,-0.348,0.920,-0.057
45.509,-0.346,0.918,-0.055
45.519,-0.348,0.920,-0.053
45.528,-0.348,0.916,-0.057
45.538,-0.348,0.920,-0.055
45.548,-0.348,0.914,-0.057
45.558,-0.350,0.916,-0.053
45.568,-0.348,0.916,-0.055
45.578,-0.346,0.920,-0.051
45.588,-0.350,0.922,-0.057
45.598,-0.348,0.924,-0.051
45.608,-0.348,0.922,-0.053
45.618,-0.348,0.920,-0.053
45.628,-0.352,0.918,-0.053
45.638,-0.352,0.918,-0.051
45.648,-0.352,0.922,-0.051
45.657,-0.348,0.918,-0.051
45.667,-0.346,0.916,-0.053
45.677,-0.352,0.916,-0.053
45.687,-0.350,0.914,-0.045
45.697,-0.346,0.918,-0.049
45.707,-0.346,0.924,-0.051
45.717,-0.346,0.920,-0.045
45.727,-0.346,0.918,-0.049
45.737,-0.344,0.918,-0.047
45.747,-0.344,0.920,-0.049
45.757,-0.344,0.918,-0.049
45.767,-0.344,0.920,-0.051
45.777,-0.342,0.918,-0.049
45.786,-0.346,0.918,-0.053
45.796,-0.344,0.916,-0.051
45.806,-0.346,0.918,-0.055
45.816,-0.346,0.918,-0.055
45.826,-0.348,0.914,-0.053
45.836,-0.352,0.918,-0.053
45.846,-0.352,0.918,-0.057
45.856,-0.352,0.918,-0.059
45.866,-0.354,0.918,-0.055
45.876,-0.354,0.916,-0.057
45.886,-0.352,0.918,-0.059
45.896,-0.354,0.918,-0.055
45.906,-0.355,0.916,-0.057
45.915,-0.357,0.914,-0.059
45.925,-0.354,0.916,-0.059
45.935,-0.355,0.916,-0.055
45.945,-0.354,0.914,-0.059
45.955,-0.357,0.916,-0.059
45.965,-0.355,0.916,-0.059
45.975,-0.355,0.922,-0.057
45.985,-0.352,0.918,-0.051
45.995,-0.355,0.920,-0.057
46.005,-0.355,0.916,-0.055
46.015,-0.354,0.918,-0.055
46.025,-0.354,0.914,-0.057
46.035,-0.352,0.916,-0.053
46.044,-0.350,0.916,-0.051
46.054,-0.348,0.916,-0.049
46.064,-0.348,0.922,-0.053
46.074,-0.350,0.922,-0.055
46.084,-0.350,0.922,-0.051
46.094,-0.350,0.924,-0.051
46.104,-0.352,0.920,-0.051
46.114,-0.355,0.916,-0.051
46.124,-0.355,0.916,-0.053
46.134,-0.359,0.916,-0.055
46.144,-0.352,0.914,-0.051
46.154,-0.354,0.914,-0.053
46.164,-0.352,0.918,-0.055
46.173,-0.354,0.916,-0.049
46.183,-0.357,0.918,-0.053
46.193,-0.354,0.916,-0.049
46.203,-0.354,0.914,-0.049
46.213,-0.352,0.916,-0.049
46.223,-0.354,0.918,-0.053
46.233,-0.354,0.916,-0.053
46.243,-0.354,0.914,-0.051
46.253,-0.352,0.916,-0.053
46.263,-0.354,0.912,-0.053
46.273,-0.357,0.914,-0.057
46.283,-0.355,0.916,-0.053
46.293,-0.354,0.910,-0.055
46.302,-0.355,0.914,-0.053
46.312,-0.354,0.910,-0.053
46.322,-0.357,0.920,-0.059
46.332,-0.355,0.918,-0.055
46.342,-0.357,0.918,-0.055
46.352,-0.355,0.916,-0.055
46.362,-0.355,0.916,-0.055
46.372,-0.355,0.914,-0.057
46.382,-0.354,0.914,-0.055
46.392,-0.355,0.916,-0.053
46.402,-0.357,0.914,-0.053
46.412,-0.354,0.914,-0.057
46.422,-0.355,0.918,-0.055
46.431,-0.357,0.912,-0.055
46.441,-0.355,0.916,-0.061
46.451,-0.354,0.916,-0.055
46.461,-0.355,0.916,-0.057
46.471,-0.354,0.916,-0.051
46.481,-0.359,0.914,-0.055
46.491,-0.355,0.916,-0.057
46.501,-0.355,0.910,-0.055
46.511,-0.354,0.914,-0.055
46.521,-0.355,0.912,-0.055
46.531,-0.355,0.916,-0.057
46.541,-0.354,0.916,-0.051
46.551,-0.354,0.916,-0.053
46.560,-0.352,0.916,-0.053
46.570,-0.352,0.916,-0.055
46.580,-0.355,0.918,-0.053
46.590,-0.355,0.910,-0.053
46.600,-0.357,0.914,-0.057
46.610,-0.355,0.916,-0.051
46.620,-0.357,0.916,-0.053
46.630,-0.359,0.916,-0.049
46.640,-0.357,0.914,-0.051
46.650,-0.359,0.916,-0.053
46.660,-0.359,0.918,-0.055
46.670,-0.357,0.914,-0.053
46.680,-0.359,0.916,-0.053
46.689,-0.354,0.916,-0.053
46.699,-0.359,0.918,-0.055
46.709,-0.357,0.914,-0.055
46.719,-0.357,0.910,-0.053
46.729,-0.355,0.910,-0.051
46.739,-0.354,0.910,-0.053
46.749,-0.361,0.914,-0.053
46.759,-0.355,0.914,-0.053
46.769,-0.355,0.918,-0.053
46.779,-0.354,0.920,-0.053
46.789,-0.355,0.922,-0.057
46.799,-0.359,0.922,-0.053
46.809,-0.361,0.922,-0.051
46.818,-0.359,0.916,-0.053
46.828,-0.359,0.910,-0.053
46.838,-0.361,0.910,-0.053
46.848,-0.363,0.912,-0.051
46.858,-0.361,0.912,-0.055
46.868,-0.363,0.912,-0.051
46.878,-0.363,0.914,-0.055
46.888,-0.361,0.914,-0.053
46.898,-0.363,0.916,-0.053
46.908,-0.359,0.914,-0.051
46.918,-0.361,0.916,-0.049
46.928,-0.357,0.912,-0.051
46.938,-0.359,0.914,-0.051
46.947,-0.355,0.916,-0.051
46.957,-0.359,0.912,-0.049
46.967,-0.359,0.914,-0.051
46.977,-0.361,0.914,-0.051
46.987,-0.363,0.916,-0.049
46.997,-0.365,0.912,-0.051
47.007,-0.365,0.904,-0.047
47.017,-0.363,0.910,-0.047
47.027,-0.361,0.920,-0.049
47.037,-0.363,0.916,-0.049
47.047,-0.361,0.916,-0.047
47.057,-0.359,0.916,-0.049
47.066,-0.361,0.914,-0.045
47.076,-0.361,0.914,-0.049
47.086,-0.361,0.914,-0.049
47.096,-0.357,0.916,-0.049
47.106,-0.357,0.918,-0.047
47.116,-0.357,0.916,-0.047
47.126,-0.355,0.916,-0.051
47.136,-0.357,0.916,-0.047
47.146,-0.357,0.916,-0.047
47.156,-0.359,0.916,-0.049
47.166,-0.357,0.918,-0.049
47.176,-0.357,0.916,-0.047
47.186,-0.361,0.916,-0.049
47.195,-0.357,0.916,-0.051
47.205,-0.357,0.918,-0.053
47.215,-0.359,0.914,-0.053
47.225,-0.357,0.920,-0.055
47.235,-0.357,0.916,-0.053
47.245,-0.361,0.912,-0.051
47.255,-0.361,0.910,-0.053
47.265,-0.359,0.910,-0.053
47.275,-0.363,0.912,-0.053
47.285,-0.363,0.914,-0.055
47.295,-0.361,0.916,-0.051
47.305,-0.365,0.914,-0.053
47.315,-0.361,0.914,-0.053
47.324,-0.361,0.914,-0.053
47.334,-0.361,0.916,-0.053
47.344,-0.359,0.916,-0.053
47.354,-0.359,0.916,-0.057
47.364,-0.359,0.914,-0.053
47.374,-0.357,0.912,-0.051
47.384,-0.359,0.914,-0.053
47.394,-0.359,0.912,-0.053
47.404,-0.359,0.916,-0.053
47.414,-0.359,0.916,-0.055
47.424,-0.359,0.914,-0.053
47.434,-0.361,0.914,-0.055
47.444,-0.361,0.908,-0.051
47.453,-0.361,0.914,-0.049
47.463,-0.359,0.914,-0.053
47.473,-0.354,0.912,-0.051
47.483,-0.357,0.918,-0.049
47.493,-0.357,0.922,-0.051
47.503,-0.359,0.922,-0.053
47.513,-0.357,0.924,-0.051
47.523,-0.357,0.918,-0.055
47.533,-0.357,0.918,-0.051
47.543,-0.357,0.916,-0.045
47.553,-0.359,0.914,-0.055
47.563,-0.359,0.914,-0.049
47.573,-0.355,0.912,-0.049
47.582,-0.359,0.914,-0.049
47.592,-0.361,0.914,-0.049
47.602,-0.357,0.914,-0.049
47.612,-0.357,0.914,-0.051
47.622,-0.355,0.914,-0.049
47.632,-0.357,0.918,-0.047
47.642,-0.352,0.916,-0.051
47.652,-0.352,0.916,-0.053
47.662,-0.350,0.914,-0.051
47.672,-0.352,0.916,-0.049
47.682,-0.354,0.914,-0.049
47.692,-0.354,0.912,-0.047
47.702,-0.355,0.918,-0.053
47.711,-0.357,0.910,-0.051
47.721,-0.357,0.914,-0.049
47.731,-0.357,0.914,-0.049
47.741,-0.355,0.916,-0.051
47.751,-0.361,0.920,-0.051
47.761,-0.357,0.918,-0.053
47.771,-0.357,0.920,-0.051
47.781,-0.355,0.918,-0.049
47.791,-0.357,0.918,-0.055
47.801,-0.359,0.916,-0.051
47.811,-0.355,0.916,-0.047
47.821,-0.355,0.916,-0.053
47.831,-0.354,0.916,-0.051
47.840,-0.355,0.918,-0.053
47.850,-0.355,0.918,-0.051
47.860,-0.357,0.918,-0.053
47.870,-0.355,0.918,-0.051
47.880,-0.355,0.918,-0.051
47.890,-0.355,0.918,-0.051
47.900,-0.357,0.916,-0.055
47.910,-0.354,0.918,-0.053
47.920,-0.357,0.918,-0.053
47.930,-0.355,0.916,-0.055
47.940,-0.357,0.916,-0.053
47.950,-0.359,0.918,-0.055
47.960,-0.357,0.916,-0.057
47.969,-0.357,0.914,-0.053
47.979,-0.357,0.914,-0.055
47.989,-0.354,0.914,-0.055
47.999,-0.354,0.914,-0.051
48.009,-0.357,0.916,-0.053
48.019,-0.359,0.914,-0.055
48.029,-0.357,0.912,-0.047
48.039,-0.359,0.912,-0.053
48.049,-0.357,0.916,-0.051
48.059,-0.359,0.916,-0.053
48.069,-0.357,0.916,-0.051
48.079,-0.359,0.920,-0.053
48.089,-0.359,0.916,-0.051
48.098,-0.357,0.918,-0.051
48.108,-0.357,0.916,-0.053
48.118,-0.354,0.914,-0.051
48.128,-0.357,0.910,-0.049
48.138,-0.355,0.916,-0.051
48.148,-0.357,0.918,-0.051
48.158,-0.357,0.916,-0.049
48.168,-0.359,0.914,-0.049
48.178,-0.355,0.916,-0.051
48.188,-0.359,0.914,-0.051
48.198,-0.357,0.912,-0.051
48.208,-0.355,0.918,-0.053
48.218,-0.355,0.914,-0.051
48.227,-0.355,0.918,-0.051
48.237,-0.355,0.922,-0.053
48.247,-0.357,0.920,-0.053
48.257,-0.359,0.918,-0.051
48.267,-0.355,0.912,-0.053
48.277,-0.359,0.914,-0.053
48.287,-0.355,0.914,-0.053
48.297,-0.359,0.912,-0.051
48.307,-0.359,0.914,-0.051
48.317,-0.357,0.916,-0.053
48.327,-0.359,0.914,-0.053
48.337,-0.357,0.916,-0.053
48.347,-0.359,0.916,-0.051
48.356,-0.361,0.914,-0.053
48.366,-0.357,0.914,-0.055
48.376,-0.359,0.914,-0.055
48.386,-0.357,0.914,-0.051
48.396,-0.357,0.914,-0.051
48.406,-0.359,0.912,-0.055
48.416,-0.361,0.914,-0.053
48.426,-0.359,0.914,-0.053
48.436,-0.361,0.916,-0.055
48.446,-0.363,0.918,-0.055
48.456,-0.365,0.916,-0.051
48.466,-0.359,0.912,-0.055
48.476,-0.359,0.916,-0.053
48.485,-0.355,0.916,-0.051
48.495,-0.359,0.916,-0.053
48.505,-0.359,0.918,-0.051
48.515,-0.359,0.918,-0.049
48.525,-0.355,0.914,-0.051
48.535,-0.359,0.914,-0.055
48.545,-0.355,0.914,-0.051
48.555,-0.361,0.914,-0.053
48.565,-0.359,0.916,-0.055
48.575,-0.357,0.912,-0.055
48.585,-0.359,0.914,-0.051
48.595,-0.361,0.916,-0.055
48.605,-0.361,0.914,-0.057
48.614,-0.359,0.914,-0.057
48.624,-0.357,0.914,-0.053
48.634,-0.361,0.914,-0.053
48.644,-0.357,0.916,-0.053
48.654,-0.357,0.916,-0.057
48.664,-0.357,0.914,-0.055
48.674,-0.359,0.918,-0.055
48.684,-0.355,0.916,-0.055
48.694,-0.359,0.914,-0.055
48.704,-0.357,0.910,-0.059
48.714,-0.357,0.914,-0.057
48.724,-0.359,0.914,-0.053
48.734,-0.359,0.914,-0.053
48.743,-0.359,0.914,-0.049
48.753,-0.357,0.914,-0.055
48.763,-0.361,0.914,-0.055
48.773,-0.359,0.916,-0.049
48.783,-0.357,0.916,-0.057
48.793,-0.361,0.914,-0.055
48.803,-0.357,0.916,-0.053
48.813,-0.359,0.916,-0.055
48.823,-0.357,0.914,-0.053
48.833,-0.359,0.916,-0.055
48.843,-0.359,0.914,-0.051
48.853,-0.361,0.914,-0.047
48.863,-0.355,0.916,-0.053
48.872,-0.359,0.916,-0.053
48.882,-0.359,0.916,-0.055
48.892,-0.361,0.914,-0.051
48.902,-0.361,0.914,-0.055
48.912,-0.359,0.918,-0.053
48.922,-0.359,0.912,-0.059
48.932,-0.361,0.912,-0.053
48.942,-0.363,0.914,-0.049
48.952,-0.357,0.914,-0.049
48.962,-0.359,0.918,-0.053
48.972,-0.359,0.920,-0.053
48.982,-0.361,0.918,-0.051
48.992,-0.363,0.918,-0.051
49.001,-0.361,0.918,-0.053
49.011,-0.363,0.916,-0.053
49.021,-0.361,0.912,-0.051
49.031,-0.361,0.912,-0.053
49.041,-0.359,0.916,-0.049
49.051,-0.359,0.912,-0.051
49.061,-0.359,0.914,-0.055
49.071,-0.359,0.914,-0.055
49.081,-0.359,0.916,-0.051
49.091,-0.361,0.910,-0.051
49.101,-0.361,0.912,-0.049
49.111,-0.359,0.914,-0.055
49.121,-0.357,0.914,-0.051
49.130,-0.361,0.910,-0.051
49.140,-0.357,0.912,-0.053
49.150,-0.359,0.912,-0.051
49.160,-0.361,0.916,-0.051
49.170,-0.363,0.912,-0.053
49.180,-0.363,0.914,-0.055
49.190,-0.363,0.914,-0.053
