df_hash,22ZHK4.0K8Q7Z
device,HZ2X61
project_hash,29R7
project_name,istanbul_aydin_university
person_hash,29R7.XHK9
person_label,V147
date_time_start,2026-06-08_17-10-02.041000_+03
date_time_start_unix,1780920602.041
date_time_end,2026-06-08_17-29-24.124000_+03
length_difference_noticed,no

time,acc_x,acc_y,acc_z
4.823,-0.080,0.141,-0.939
4.833,-0.078,0.139,-0.941
4.843,-0.078,0.139,-0.943
4.853,-0.078,0.137,-0.939
4.863,-0.080,0.137,-0.943
4.873,-0.078,0.135,-0.943
4.883,-0.078,0.141,-0.943
4.893,-0.082,0.137,-0.943
4.903,-0.078,0.139,-0.941
4.912,-0.078,0.139,-0.941
4.922,-0.078,0.139,-0.941
4.932,-0.078,0.137,-0.941
4.942,-0.078,0.141,-0.943
4.952,-0.078,0.137,-0.939
4.962,-0.082,0.139,-0.941
4.972,-0.078,0.139,-0.941
4.982,-0.078,0.135,-0.941
4.992,-0.078,0.139,-0.941
5.002,-0.076,0.139,-0.939
5.012,-0.078,0.137,-0.938
5.022,-0.078,0.137,-0.939
5.032,-0.076,0.139,-0.941
5.042,-0.076,0.137,-0.939
5.052,-0.076,0.139,-0.943
5.061,-0.078,0.133,-0.943
5.071,-0.076,0.139,-0.943
5.081,-0.078,0.139,-0.943
5.091,-0.078,0.141,-0.943
5.101,-0.076,0.139,-0.939
5.111,-0.076,0.139,-0.939
5.121,-0.080,0.139,-0.941
5.131,-0.076,0.141,-0.939
5.141,-0.076,0.137,-0.943
5.151,-0.080,0.141,-0.943
5.161,-0.078,0.139,-0.941
5.171,-0.080,0.139,-0.941
5.181,-0.078,0.139,-0.945
5.191,-0.078,0.139,-0.941
5.201,-0.080,0.141,-0.941
5.210,-0.076,0.135,-0.941
5.220,-0.078,0.137,-0.939
5.230,-0.076,0.137,-0.943
5.240,-0.078,0.139,-0.945
5.250,-0.074,0.137,-0.939
5.260,-0.080,0.139,-0.941
5.270,-0.074,0.137,-0.939
5.280,-0.078,0.137,-0.941
5.290,-0.080,0.135,-0.939
5.300,-0.080,0.137,-0.939
5.310,-0.076,0.139,-0.939
5.320,-0.076,0.137,-0.941
5.330,-0.078,0.139,-0.943
5.340,-0.078,0.139,-0.945
5.350,-0.078,0.137,-0.941
5.360,-0.082,0.137,-0.941
5.369,-0.078,0.137,-0.941
5.379,-0.076,0.135,-0.941
5.389,-0.078,0.135,-0.941
5.399,-0.076,0.137,-0.939
5.409,-0.078,0.139,-0.945
5.419,-0.078,0.141,-0.938
5.429,-0.078,0.135,-0.941
5.439,-0.076,0.139,-0.941
5.449,-0.076,0.137,-0.941
5.459,-0.078,0.139,-0.938
5.469,-0.076,0.139,-0.943
5.479,-0.078,0.135,-0.943
5.489,-0.076,0.137,-0.938
5.499,-0.080,0.139,-0.945
5.509,-0.078,0.137,-0.941
5.518,-0.076,0.137,-0.943
5.528,-0.078,0.139,-0.941
5.538,-0.074,0.139,-0.941
5.548,-0.076,0.139,-0.938
5.558,-0.078,0.135,-0.939
5.568,-0.078,0.141,-0.939
5.578,-0.078,0.137,-0.938
5.588,-0.078,0.137,-0.941
5.598,-0.078,0.139,-0.941
5.608,-0.078,0.139,-0.941
5.618,-0.076,0.137,-0.945
5.628,-0.078,0.139,-0.943
5.638,-0.076,0.139,-0.939
5.648,-0.078,0.139,-0.943
5.658,-0.076,0.139,-0.945
5.667,-0.078,0.139,-0.941
5.677,-0.082,0.139,-0.941
5.687,-0.076,0.137,-0.939
5.697,-0.076,0.139,-0.939
5.707,-0.078,0.139,-0.941
5.717,-0.074,0.139,-0.939
5.727,-0.078,0.137,-0.941
5.737,-0.080,0.137,-0.941
5.747,-0.074,0.137,-0.939
5.757,-0.078,0.135,-0.941
5.767,-0.078,0.141,-0.943
5.777,-0.078,0.137,-0.939
5.787,-0.080,0.139,-0.941
5.797,-0.076,0.141,-0.939
5.807,-0.076,0.139,-0.941
5.816,-0.080,0.141,-0.941
5.826,-0.078,0.137,-0.939
5.836,-0.078,0.135,-0.945
5.846,-0.076,0.139,-0.941
5.856,-0.078,0.137,-0.941
5.866,-0.080,0.139,-0.941
5.876,-0.078,0.137,-0.943
5.886,-0.078,0.135,-0.943
5.896,-0.078,0.139,-0.939
5.906,-0.078,0.139,-0.938
5.916,-0.078,0.141,-0.939
5.926,-0.076,0.137,-0.943
5.936,-0.080,0.139,-0.939
5.946,-0.080,0.139,-0.941
5.956,-0.078,0.137,-0.941
5.966,-0.078,0.137,-0.941
5.975,-0.078,0.139,-0.943
5.985,-0.080,0.139,-0.941
5.995,-0.076,0.135,-0.943
6.005,-0.078,0.137,-0.939
6.015,-0.078,0.137,-0.939
6.025,-0.078,0.141,-0.941
6.035,-0.078,0.139,-0.941
6.045,-0.074,0.137,-0.939
6.055,-0.076,0.137,-0.941
6.065,-0.078,0.137,-0.941
6.075,-0.078,0.137,-0.941
6.085,-0.078,0.139,-0.945
6.095,-0.076,0.135,-0.941
6.105,-0.080,0.139,-0.943
6.115,-0.078,0.141,-0.941
6.124,-0.078,0.137,-0.947
6.134,-0.078,0.139,-0.941
6.144,-0.078,0.137,-0.938
6.154,-0.080,0.139,-0.941
6.164,-0.076,0.137,-0.941
6.174,-0.078,0.135,-0.943
6.184,-0.078,0.139,-0.941
6.194,-0.080,0.139,-0.945
6.204,-0.080,0.139,-0.941
6.214,-0.078,0.141,-0.938
6.224,-0.074,0.139,-0.943
6.234,-0.078,0.137,-0.943
6.244,-0.076,0.137,-0.939
6.254,-0.080,0.135,-0.943
6.264,-0.080,0.139,-0.943
6.273,-0.078,0.139,-0.939
6.283,-0.078,0.139,-0.943
6.293,-0.074,0.139,-0.941
6.303,-0.078,0.141,-0.941
6.313,-0.078,0.139,-0.941
6.323,-0.080,0.137,-0.941
6.333,-0.080,0.137,-0.943
6.343,-0.080,0.139,-0.941
6.353,-0.076,0.135,-0.939
6.363,-0.076,0.143,-0.945
6.373,-0.080,0.141,-0.941
6.383,-0.078,0.137,-0.939
6.393,-0.088,0.141,-0.947
6.403,-0.092,0.146,-0.951
6.413,-0.084,0.143,-0.945
6.422,-0.064,0.139,-0.938
6.432,-0.064,0.127,-0.924
6.442,-0.070,0.127,-0.928
6.452,-0.092,0.131,-0.938
6.462,-0.078,0.141,-0.951
6.472,-0.084,0.143,-0.951
6.482,-0.074,0.133,-0.936
6.492,-0.078,0.133,-0.934
6.502,-0.057,0.127,-0.934
6.512,-0.076,0.131,-0.932
6.522,-0.076,0.135,-0.936
6.532,-0.086,0.143,-0.957
6.542,-0.084,0.148,-0.957
6.552,-0.094,0.148,-0.945
6.562,-0.074,0.129,-0.924
6.572,-0.066,0.131,-0.934
6.581,-0.074,0.143,-0.938
6.591,-0.074,0.146,-0.947
6.601,-0.074,0.137,-0.949
6.611,-0.076,0.131,-0.938
6.621,-0.086,0.135,-0.938
6.631,-0.092,0.146,-0.953
6.641,-0.086,0.148,-0.938
6.651,-0.076,0.133,-0.924
6.661,-0.068,0.133,-0.939
6.671,-0.068,0.137,-0.953
6.681,-0.092,0.146,-0.941
6.691,-0.082,0.139,-0.938
6.701,-0.072,0.131,-0.939
6.711,-0.082,0.139,-0.951
6.721,-0.076,0.141,-0.939
6.730,-0.080,0.137,-0.941
6.740,-0.072,0.135,-0.936
6.750,-0.082,0.133,-0.939
6.760,-0.082,0.139,-0.949
6.770,-0.084,0.143,-0.947
6.780,-0.080,0.143,-0.941
6.790,-0.080,0.143,-0.941
6.800,-0.080,0.141,-0.939
6.810,-0.076,0.137,-0.938
6.820,-0.076,0.133,-0.939
6.830,-0.078,0.131,-0.936
6.840,-0.082,0.135,-0.943
6.850,-0.080,0.141,-0.945
6.860,-0.076,0.141,-0.939
6.870,-0.076,0.145,-0.941
6.879,-0.074,0.141,-0.938
6.889,-0.076,0.139,-0.941
6.899,-0.078,0.137,-0.943
6.909,-0.078,0.133,-0.939
6.919,-0.082,0.139,-0.943
6.929,-0.078,0.139,-0.939
6.939,-0.078,0.139,-0.938
6.949,-0.076,0.141,-0.943
6.959,-0.080,0.141,-0.945
6.969,-0.080,0.135,-0.938
6.979,-0.076,0.139,-0.938
6.989,-0.074,0.137,-0.939
6.999,-0.078,0.139,-0.945
7.009,-0.078,0.135,-0.941
7.019,-0.080,0.137,-0.943
7.028,-0.080,0.139,-0.943
7.038,-0.080,0.139,-0.939
7.048,-0.076,0.139,-0.939
7.058,-0.078,0.141,-0.943
7.068,-0.076,0.137,-0.941
7.078,-0.082,0.137,-0.941
7.088,-0.078,0.137,-0.947
7.098,-0.080,0.135,-0.945
7.108,-0.080,0.133,-0.941
7.118,-0.076,0.139,-0.938
7.128,-0.078,0.141,-0.934
7.138,-0.078,0.143,-0.938
7.148,-0.078,0.143,-0.947
7.158,-0.076,0.139,-0.939
7.168,-0.078,0.135,-0.941
7.178,-0.078,0.137,-0.943
7.187,-0.078,0.139,-0.945
7.197,-0.076,0.137,-0.943
7.207,-0.078,0.139,-0.941
7.217,-0.080,0.141,-0.936
7.227,-0.078,0.139,-0.939
7.237,-0.076,0.139,-0.945
7.247,-0.076,0.139,-0.941
7.257,-0.074,0.139,-0.939
7.267,-0.076,0.143,-0.939
7.277,-0.078,0.141,-0.941
7.287,-0.076,0.139,-0.943
7.297,-0.080,0.137,-0.939
7.307,-0.082,0.141,-0.939
7.317,-0.080,0.137,-0.945
7.327,-0.078,0.139,-0.941
7.336,-0.076,0.141,-0.943
7.346,-0.076,0.141,-0.943
7.356,-0.078,0.137,-0.939
7.366,-0.078,0.139,-0.941
7.376,-0.082,0.139,-0.941
7.386,-0.080,0.139,-0.941
7.396,-0.076,0.139,-0.939
7.406,-0.080,0.141,-0.943
7.416,-0.076,0.137,-0.941
7.426,-0.078,0.141,-0.939
7.436,-0.082,0.139,-0.939
7.446,-0.082,0.139,-0.943
7.456,-0.082,0.135,-0.939
7.466,-0.078,0.137,-0.939
7.476,-0.076,0.141,-0.941
7.485,-0.076,0.137,-0.947
7.495,-0.076,0.137,-0.943
7.505,-0.078,0.141,-0.941
7.515,-0.078,0.143,-0.943
7.525,-0.078,0.145,-0.939
7.535,-0.078,0.137,-0.941
7.545,-0.080,0.135,-0.943
7.555,-0.078,0.137,-0.943
7.565,-0.074,0.139,-0.941
7.575,-0.074,0.143,-0.941
7.585,-0.076,0.139,-0.941
7.595,-0.076,0.139,-0.943
7.605,-0.080,0.135,-0.941
7.615,-0.080,0.133,-0.939
7.625,-0.078,0.141,-0.943
7.635,-0.076,0.143,-0.938
7.644,-0.074,0.141,-0.939
7.654,-0.076,0.139,-0.943
7.664,-0.076,0.137,-0.943
7.674,-0.076,0.137,-0.943
7.684,-0.080,0.137,-0.947
7.694,-0.078,0.139,-0.941
7.704,-0.078,0.143,-0.943
7.714,-0.076,0.143,-0.941
7.724,-0.078,0.141,-0.939
7.734,-0.074,0.135,-0.941
7.744,-0.078,0.141,-0.939
7.754,-0.078,0.143,-0.943
7.764,-0.078,0.141,-0.943
7.774,-0.080,0.137,-0.943
7.784,-0.082,0.139,-0.943
7.793,-0.080,0.137,-0.939
7.803,-0.080,0.137,-0.939
7.813,-0.080,0.139,-0.941
7.823,-0.076,0.139,-0.943
7.833,-0.074,0.141,-0.941
7.843,-0.076,0.145,-0.939
7.853,-0.074,0.143,-0.939
7.863,-0.078,0.139,-0.943
7.873,-0.082,0.133,-0.945
7.883,-0.084,0.133,-0.945
7.893,-0.082,0.137,-0.939
7.903,-0.074,0.141,-0.938
7.913,-0.070,0.141,-0.938
7.923,-0.068,0.143,-0.943
7.933,-0.078,0.137,-0.941
7.942,-0.080,0.135,-0.941
7.952,-0.080,0.139,-0.949
7.962,-0.078,0.139,-0.938
7.972,-0.076,0.141,-0.938
7.982,-0.076,0.141,-0.945
7.992,-0.078,0.139,-0.945
8.002,-0.078,0.143,-0.941
8.012,-0.074,0.141,-0.938
8.022,-0.078,0.141,-0.936
8.032,-0.084,0.139,-0.941
8.042,-0.078,0.139,-0.947
8.052,-0.080,0.137,-0.941
8.062,-0.080,0.137,-0.939
8.072,-0.074,0.141,-0.941
8.082,-0.076,0.139,-0.941
8.091,-0.078,0.139,-0.943
8.101,-0.080,0.137,-0.943
8.111,-0.078,0.139,-0.939
8.121,-0.078,0.139,-0.939
8.131,-0.076,0.137,-0.941
8.141,-0.078,0.139,-0.941
8.151,-0.078,0.141,-0.943
8.161,-0.078,0.141,-0.939
8.171,-0.076,0.141,-0.939
8.181,-0.078,0.137,-0.938
8.191,-0.082,0.137,-0.943
8.201,-0.078,0.141,-0.941
8.211,-0.078,0.137,-0.939
8.221,-0.074,0.139,-0.941
8.231,-0.078,0.137,-0.943
8.241,-0.078,0.139,-0.941
8.250,-0.078,0.139,-0.943
8.260,-0.080,0.139,-0.938
8.270,-0.078,0.143,-0.939
8.280,-0.080,0.143,-0.941
8.290,-0.080,0.137,-0.943
8.300,-0.080,0.137,-0.943
8.310,-0.076,0.139,-0.945
8.320,-0.078,0.139,-0.945
8.330,-0.078,0.139,-0.941
8.340,-0.078,0.141,-0.939
8.350,-0.078,0.139,-0.941
8.360,-0.080,0.137,-0.939
8.370,-0.080,0.135,-0.943
8.380,-0.078,0.139,-0.943
8.390,-0.078,0.141,-0.941
8.399,-0.076,0.141,-0.941
8.409,-0.074,0.143,-0.939
8.419,-0.080,0.137,-0.939
8.429,-0.076,0.137,-0.938
8.439,-0.076,0.137,-0.945
8.449,-0.082,0.137,-0.941
8.459,-0.078,0.139,-0.945
8.469,-0.078,0.139,-0.943
8.479,-0.076,0.141,-0.939
8.489,-0.076,0.139,-0.941
8.499,-0.080,0.137,-0.943
8.509,-0.082,0.137,-0.939
8.519,-0.080,0.135,-0.941
8.529,-0.076,0.137,-0.941
8.539,-0.074,0.143,-0.941
8.548,-0.074,0.143,-0.939
8.558,-0.072,0.139,-0.939
8.568,-0.078,0.139,-0.943
8.578,-0.082,0.137,-0.943
8.588,-0.082,0.135,-0.941
8.598,-0.078,0.137,-0.943
8.608,-0.080,0.139,-0.941
8.618,-0.076,0.141,-0.939
8.628,-0.074,0.143,-0.949
8.638,-0.076,0.139,-0.943
8.648,-0.080,0.139,-0.939
8.658,-0.082,0.139,-0.939
8.668,-0.082,0.137,-0.939
8.678,-0.078,0.137,-0.941
8.688,-0.078,0.141,-0.941
8.697,-0.072,0.139,-0.943
8.707,-0.076,0.143,-0.943
8.717,-0.078,0.141,-0.939
8.727,-0.076,0.139,-0.939
8.737,-0.080,0.139,-0.941
8.747,-0.080,0.139,-0.939
8.757,-0.078,0.137,-0.943
8.767,-0.078,0.139,-0.941
8.777,-0.076,0.139,-0.938
8.787,-0.074,0.139,-0.941
8.797,-0.078,0.137,-0.943
8.807,-0.076,0.137,-0.939
8.817,-0.082,0.139,-0.941
8.827,-0.078,0.141,-0.939
8.837,-0.076,0.139,-0.939
8.847,-0.078,0.141,-0.947
8.856,-0.078,0.137,-0.941
8.866,-0.078,0.139,-0.939
8.876,-0.078,0.139,-0.943
8.886,-0.076,0.141,-0.941
8.896,-0.078,0.139,-0.941
8.906,-0.080,0.137,-0.939
8.916,-0.078,0.137,-0.945
8.926,-0.082,0.135,-0.941
8.936,-0.080,0.139,-0.941
8.946,-0.074,0.141,-0.945
8.956,-0.076,0.143,-0.941
8.966,-0.074,0.145,-0.945
8.976,-0.076,0.139,-0.938
8.986,-0.080,0.133,-0.941
8.996,-0.082,0.135,-0.945
9.005,-0.080,0.133,-0.941
9.015,-0.080,0.137,-0.941
9.025,-0.076,0.141,-0.941
9.035,-0.076,0.145,-0.943
9.045,-0.074,0.143,-0.941
9.055,-0.076,0.139,-0.941
9.065,-0.078,0.137,-0.943
9.075,-0.076,0.137,-0.939
9.085,-0.078,0.131,-0.941
9.095,-0.074,0.135,-0.943
9.105,-0.074,0.139,-0.947
9.115,-0.080,0.143,-0.939
9.125,-0.080,0.143,-0.941
9.135,-0.078,0.143,-0.938
9.145,-0.082,0.135,-0.939
9.154,-0.078,0.133,-0.945
9.164,-0.076,0.131,-0.945
9.174,-0.074,0.135,-0.941
9.184,-0.078,0.139,-0.943
9.194,-0.078,0.143,-0.941
9.204,-0.078,0.143,-0.939
9.214,-0.080,0.139,-0.941
9.224,-0.082,0.135,-0.943
9.234,-0.080,0.135,-0.943
9.244,-0.082,0.133,-0.941
9.254,-0.074,0.137,-0.947
9.264,-0.074,0.141,-0.941
9.274,-0.074,0.141,-0.939
9.284,-0.076,0.141,-0.947
9.294,-0.080,0.137,-0.936
9.303,-0.080,0.137,-0.939
9.313,-0.080,0.135,-0.943
9.323,-0.078,0.135,-0.941
9.333,-0.076,0.139,-0.941
9.343,-0.076,0.139,-0.941
9.353,-0.074,0.137,-0.939
9.363,-0.078,0.139,-0.939
9.373,-0.080,0.143,-0.932
9.383,-0.082,0.146,-0.953
9.393,-0.086,0.131,-0.953
9.403,-0.080,0.127,-0.941
9.413,-0.072,0.139,-0.939
9.423,-0.070,0.148,-0.939
9.433,-0.072,0.148,-0.943
9.443,-0.076,0.145,-0.939
9.453,-0.082,0.135,-0.932
9.462,-0.088,0.133,-0.945
9.472,-0.088,0.125,-0.949
9.482,-0.078,0.131,-0.945
9.492,-0.070,0.139,-0.939
9.502,-0.070,0.145,-0.938
9.512,-0.074,0.145,-0.939
9.522,-0.078,0.143,-0.938
9.532,-0.084,0.139,-0.939
9.542,-0.082,0.133,-0.945
9.552,-0.076,0.135,-0.943
9.562,-0.074,0.141,-0.939
9.572,-0.070,0.146,-0.943
9.582,-0.070,0.143,-0.939
9.592,-0.080,0.139,-0.938
9.602,-0.086,0.133,-0.939
9.611,-0.086,0.133,-0.943
9.621,-0.084,0.135,-0.943
9.631,-0.076,0.137,-0.938
9.641,-0.070,0.141,-0.943
9.651,-0.070,0.141,-0.938
9.661,-0.078,0.143,-0.945
9.671,-0.076,0.139,-0.943
9.681,-0.082,0.133,-0.943
9.691,-0.082,0.131,-0.945
9.701,-0.078,0.139,-0.941
9.711,-0.070,0.145,-0.938
9.721,-0.072,0.145,-0.938
9.731,-0.076,0.141,-0.945
9.741,-0.078,0.137,-0.941
9.751,-0.084,0.135,-0.938
9.760,-0.084,0.135,-0.941
9.770,-0.080,0.137,-0.947
9.780,-0.078,0.141,-0.943
9.790,-0.080,0.137,-0.936
9.800,-0.078,0.137,-0.941
9.810,-0.078,0.139,-0.943
9.820,-0.080,0.139,-0.941
9.830,-0.080,0.141,-0.941
9.840,-0.078,0.139,-0.945
9.850,-0.076,0.143,-0.939
9.860,-0.080,0.143,-0.945
9.870,-0.080,0.139,-0.949
9.880,-0.082,0.133,-0.936
9.890,-0.080,0.137,-0.941
9.900,-0.078,0.137,-0.943
9.909,-0.078,0.141,-0.941
9.919,-0.080,0.137,-0.943
9.929,-0.076,0.139,-0.939
9.939,-0.078,0.141,-0.941
9.949,-0.074,0.139,-0.941
9.959,-0.076,0.141,-0.945
9.969,-0.074,0.143,-0.939
9.979,-0.080,0.139,-0.939
9.989,-0.078,0.139,-0.941
9.999,-0.080,0.135,-0.941
10.009,-0.078,0.135,-0.941
10.019,-0.078,0.135,-0.941
10.029,-0.072,0.141,-0.943
10.039,-0.074,0.141,-0.939
10.049,-0.074,0.143,-0.941
10.059,-0.076,0.143,-0.939
10.068,-0.082,0.141,-0.943
10.078,-0.084,0.135,-0.941
10.088,-0.080,0.137,-0.943
10.098,-0.078,0.133,-0.939
10.108,-0.076,0.133,-0.941
10.118,-0.074,0.139,-0.947
10.128,-0.074,0.139,-0.939
10.138,-0.076,0.141,-0.939
10.148,-0.076,0.143,-0.945
10.158,-0.076,0.143,-0.941
10.168,-0.080,0.137,-0.939
10.178,-0.078,0.135,-0.941
10.188,-0.080,0.131,-0.941
10.198,-0.082,0.135,-0.947
10.208,-0.082,0.139,-0.939
10.217,-0.074,0.143,-0.941
10.227,-0.076,0.139,-0.943
10.237,-0.080,0.143,-0.936
10.247,-0.076,0.145,-0.941
10.257,-0.074,0.141,-0.943
10.267,-0.074,0.139,-0.938
10.277,-0.076,0.139,-0.939
10.287,-0.076,0.137,-0.941
10.297,-0.080,0.135,-0.938
10.307,-0.080,0.135,-0.939
10.317,-0.084,0.135,-0.939
10.327,-0.084,0.137,-0.943
10.337,-0.078,0.135,-0.941
10.347,-0.076,0.139,-0.939
10.357,-0.072,0.139,-0.941
10.366,-0.080,0.141,-0.941
10.376,-0.076,0.137,-0.949
10.386,-0.078,0.133,-0.941
10.396,-0.082,0.133,-0.945
10.406,-0.080,0.133,-0.945
10.416,-0.027,0.107,-0.908
10.426,-0.047,0.102,-0.902
10.436,-0.057,0.115,-0.895
10.446,-0.074,0.113,-0.924
10.456,-0.082,0.123,-0.951
10.466,-0.068,0.121,-0.945
10.476,-0.068,0.119,-0.936
10.486,-0.061,0.127,-0.951
10.496,-0.070,0.162,-0.941
10.506,-0.082,0.160,-0.936
10.516,-0.084,0.137,-0.941
10.525,-0.094,0.135,-0.939
10.535,-0.098,0.137,-0.945
10.545,-0.084,0.125,-0.949
10.555,-0.068,0.137,-0.945
10.565,-0.062,0.152,-0.930
10.575,-0.062,0.150,-0.938
10.585,-0.074,0.145,-0.947
10.595,-0.088,0.137,-0.939
10.605,-0.086,0.127,-0.941
10.615,-0.080,0.127,-0.943
10.625,-0.088,0.133,-0.947
10.635,-0.074,0.141,-0.947
10.645,-0.064,0.141,-0.936
10.655,-0.070,0.146,-0.939
10.665,-0.082,0.141,-0.947
10.674,-0.084,0.135,-0.947
10.684,-0.080,0.133,-0.941
10.694,-0.084,0.137,-0.939
10.704,-0.082,0.139,-0.939
10.714,-0.072,0.145,-0.951
10.724,-0.076,0.145,-0.938
10.734,-0.070,0.137,-0.932
10.744,-0.080,0.137,-0.949
10.754,-0.082,0.133,-0.949
10.764,-0.084,0.135,-0.939
10.774,-0.080,0.139,-0.938
10.784,-0.074,0.145,-0.945
10.794,-0.072,0.146,-0.943
10.804,-0.072,0.139,-0.936
10.814,-0.082,0.129,-0.941
10.823,-0.086,0.121,-0.949
10.833,-0.084,0.123,-0.945
10.843,-0.078,0.135,-0.941
10.853,-0.074,0.152,-0.938
10.863,-0.064,0.158,-0.939
10.873,-0.068,0.154,-0.941
10.883,-0.072,0.141,-0.938
10.893,-0.080,0.131,-0.949
10.903,-0.084,0.125,-0.947
10.913,-0.086,0.127,-0.945
10.923,-0.082,0.133,-0.943
10.933,-0.080,0.143,-0.936
10.943,-0.076,0.148,-0.941
10.953,-0.074,0.145,-0.939
10.963,-0.076,0.137,-0.943
10.972,-0.076,0.139,-0.943
10.982,-0.074,0.139,-0.943
10.992,-0.076,0.139,-0.938
11.002,-0.076,0.143,-0.939
11.012,-0.080,0.145,-0.939
11.022,-0.084,0.141,-0.945
11.032,-0.080,0.129,-0.943
11.042,-0.078,0.127,-0.947
11.052,-0.080,0.127,-0.945
11.062,-0.080,0.135,-0.941
11.072,-0.076,0.146,-0.938
11.082,-0.076,0.150,-0.936
11.092,-0.076,0.146,-0.932
11.102,-0.076,0.146,-0.949
11.112,-0.080,0.131,-0.945
11.122,-0.082,0.121,-0.949
11.131,-0.084,0.121,-0.949
11.141,-0.082,0.133,-0.943
11.151,-0.082,0.145,-0.939
11.161,-0.074,0.148,-0.938
11.171,-0.078,0.148,-0.939
11.181,-0.074,0.143,-0.939
11.191,-0.078,0.131,-0.943
11.201,-0.078,0.129,-0.947
11.211,-0.080,0.131,-0.945
11.221,-0.080,0.139,-0.943
11.231,-0.076,0.145,-0.939
11.241,-0.076,0.145,-0.938
11.251,-0.078,0.141,-0.939
11.261,-0.072,0.135,-0.945
11.271,-0.074,0.133,-0.943
11.280,-0.074,0.137,-0.939
11.290,-0.078,0.139,-0.943
11.300,-0.078,0.139,-0.939
11.310,-0.080,0.141,-0.939
11.320,-0.080,0.143,-0.949
11.330,-0.074,0.141,-0.938
11.340,-0.072,0.141,-0.941
11.350,-0.076,0.141,-0.941
11.360,-0.082,0.135,-0.941
11.370,-0.080,0.141,-0.945
11.380,-0.080,0.141,-0.939
11.390,-0.086,0.137,-0.943
11.400,-0.088,0.133,-0.949
11.410,-0.086,0.131,-0.934
11.420,-0.064,0.141,-0.945
11.429,-0.070,0.143,-0.938
11.439,-0.064,0.135,-0.926
11.449,-0.064,0.146,-0.943
11.459,-0.088,0.141,-0.936
11.469,-0.090,0.133,-0.949
11.479,-0.086,0.133,-0.955
11.489,-0.086,0.129,-0.934
11.499,-0.076,0.137,-0.951
11.509,-0.074,0.139,-0.939
11.519,-0.070,0.141,-0.928
11.529,-0.074,0.146,-0.949
11.539,-0.080,0.139,-0.934
11.549,-0.076,0.127,-0.916
11.559,-0.074,0.158,-1.000
11.569,-0.084,0.113,-0.924
11.578,-0.072,0.123,-0.934
11.588,-0.084,0.156,-0.947
11.598,-0.072,0.154,-0.920
11.608,-0.078,0.158,-0.977
11.618,-0.105,0.123,-0.934
11.628,-0.088,0.111,-0.945
11.638,-0.084,0.146,-0.973
11.648,-0.078,0.137,-0.926
11.658,-0.053,0.146,-0.938
11.668,-0.064,0.152,-0.938
11.678,-0.076,0.133,-0.918
11.688,-0.078,0.135,-0.953
11.698,-0.098,0.125,-0.941
11.708,-0.092,0.125,-0.951
11.718,-0.086,0.139,-0.959
11.728,-0.076,0.133,-0.918
11.737,-0.066,0.150,-0.941
11.747,-0.072,0.154,-0.945
11.757,-0.076,0.141,-0.932
11.767,-0.080,0.131,-0.945
11.777,-0.088,0.125,-0.939
11.787,-0.086,0.129,-0.949
11.797,-0.082,0.141,-0.953
11.807,-0.074,0.139,-0.928
11.817,-0.068,0.145,-0.936
11.827,-0.072,0.145,-0.939
11.837,-0.082,0.141,-0.939
11.847,-0.080,0.133,-0.943
11.857,-0.080,0.125,-0.939
11.867,-0.080,0.135,-0.941
11.877,-0.080,0.143,-0.943
11.886,-0.074,0.139,-0.941
11.896,-0.072,0.137,-0.936
11.906,-0.080,0.141,-0.939
11.916,-0.082,0.141,-0.945
11.926,-0.080,0.131,-0.945
11.936,-0.080,0.131,-0.939
11.946,-0.074,0.139,-0.939
11.956,-0.076,0.143,-0.945
11.966,-0.076,0.143,-0.941
11.976,-0.076,0.137,-0.936
11.986,-0.082,0.135,-0.943
11.996,-0.084,0.133,-0.943
12.006,-0.082,0.135,-0.941
12.016,-0.080,0.137,-0.945
12.026,-0.074,0.137,-0.941
12.035,-0.078,0.141,-0.939
12.045,-0.076,0.141,-0.938
12.055,-0.078,0.139,-0.943
12.065,-0.078,0.133,-0.943
12.075,-0.080,0.135,-0.938
12.085,-0.082,0.133,-0.943
12.095,-0.076,0.137,-0.945
12.105,-0.076,0.137,-0.939
12.115,-0.078,0.141,-0.941
12.125,-0.076,0.139,-0.941
12.135,-0.080,0.139,-0.943
12.145,-0.074,0.137,-0.945
12.155,-0.076,0.135,-0.945
12.165,-0.076,0.137,-0.943
12.175,-0.078,0.137,-0.941
12.184,-0.080,0.141,-0.941
12.194,-0.078,0.137,-0.939
12.204,-0.080,0.135,-0.939
12.214,-0.074,0.135,-0.943
12.224,-0.074,0.137,-0.941
12.234,-0.078,0.139,-0.943
12.244,-0.076,0.139,-0.943
12.254,-0.078,0.141,-0.939
12.264,-0.082,0.141,-0.941
12.274,-0.080,0.139,-0.941
12.284,-0.078,0.137,-0.939
12.294,-0.080,0.139,-0.945
12.304,-0.082,0.137,-0.943
12.314,-0.080,0.139,-0.939
12.324,-0.076,0.137,-0.939
12.334,-0.078,0.139,-0.939
12.343,-0.078,0.139,-0.941
12.353,-0.078,0.139,-0.939
12.363,-0.074,0.141,-0.943
12.373,-0.078,0.137,-0.943
12.383,-0.078,0.137,-0.939
12.393,-0.074,0.137,-0.941
12.403,-0.076,0.141,-0.943
12.413,-0.080,0.139,-0.939
12.423,-0.080,0.135,-0.939
12.433,-0.082,0.133,-0.943
12.443,-0.084,0.133,-0.945
12.453,-0.088,0.127,-0.945
12.463,-0.074,0.137,-0.941
12.473,-0.072,0.145,-0.943
12.483,-0.072,0.148,-0.938
12.492,-0.076,0.143,-0.943
12.502,-0.078,0.139,-0.939
12.512,-0.084,0.127,-0.943
12.522,-0.080,0.129,-0.941
12.532,-0.074,0.141,-0.945
12.542,-0.072,0.141,-0.934
12.552,-0.074,0.141,-0.943
12.562,-0.090,0.158,-0.916
12.572,-0.068,0.164,-0.996
12.582,-0.092,0.125,-0.947
12.592,-0.100,0.109,-0.900
12.602,-0.076,0.158,-0.998
12.612,-0.098,0.146,-0.906
12.622,-0.072,0.139,-0.939
12.632,-0.070,0.139,-0.975
12.641,-0.086,0.111,-0.900
12.651,-0.072,0.135,-0.965
12.661,-0.082,0.133,-0.943
12.671,-0.080,0.139,-0.920
12.681,-0.072,0.156,-0.959
12.691,-0.076,0.141,-0.918
12.701,-0.068,0.146,-0.947
12.711,-0.080,0.135,-0.955
12.721,-0.084,0.121,-0.936
12.731,-0.078,0.125,-0.955
12.741,-0.080,0.131,-0.936
12.751,-0.080,0.143,-0.941
12.761,-0.080,0.152,-0.951
12.771,-0.076,0.146,-0.932
12.781,-0.070,0.139,-0.941
12.790,-0.078,0.135,-0.945
12.800,-0.084,0.129,-0.941
12.810,-0.082,0.133,-0.953
12.820,-0.080,0.131,-0.938
12.830,-0.078,0.139,-0.938
12.840,-0.078,0.145,-0.941
12.850,-0.078,0.143,-0.941
12.860,-0.076,0.137,-0.941
12.870,-0.078,0.133,-0.932
12.880,-0.078,0.137,-0.949
12.890,-0.076,0.133,-0.951
12.900,-0.078,0.131,-0.936
12.910,-0.074,0.141,-0.938
12.920,-0.080,0.143,-0.945
12.930,-0.082,0.139,-0.943
12.940,-0.080,0.141,-0.943
12.949,-0.080,0.133,-0.941
12.959,-0.076,0.133,-0.947
12.969,-0.078,0.139,-0.943
12.979,-0.078,0.137,-0.943
12.989,-0.076,0.141,-0.941
12.999,-0.078,0.139,-0.938
13.009,-0.078,0.139,-0.939
13.019,-0.082,0.137,-0.943
13.029,-0.076,0.131,-0.945
13.039,-0.076,0.133,-0.943
13.049,-0.078,0.141,-0.939
13.059,-0.078,0.143,-0.943
13.069,-0.080,0.143,-0.941
13.079,-0.082,0.137,-0.941
13.089,-0.080,0.139,-0.943
13.098,-0.080,0.133,-0.943
13.108,-0.080,0.135,-0.943
13.118,-0.076,0.133,-0.943
13.128,-0.082,0.139,-0.941
13.138,-0.078,0.141,-0.939
13.148,-0.076,0.141,-0.941
13.158,-0.078,0.139,-0.943
13.168,-0.080,0.135,-0.938
13.178,-0.078,0.137,-0.941
13.188,-0.078,0.137,-0.941
13.198,-0.076,0.135,-0.943
13.208,-0.078,0.139,-0.941
13.218,-0.080,0.141,-0.943
13.228,-0.080,0.141,-0.943
13.238,-0.080,0.137,-0.943
13.247,-0.078,0.135,-0.943
13.257,-0.078,0.135,-0.947
13.267,-0.080,0.137,-0.943
13.277,-0.076,0.141,-0.945
13.287,-0.078,0.139,-0.943
13.297,-0.078,0.139,-0.941
13.307,-0.082,0.141,-0.943
13.317,-0.078,0.137,-0.941
13.327,-0.076,0.131,-0.945
13.337,-0.076,0.137,-0.943
13.347,-0.078,0.139,-0.941
13.357,-0.076,0.139,-0.941
13.367,-0.078,0.137,-0.939
13.377,-0.078,0.137,-0.943
13.387,-0.076,0.141,-0.943
13.397,-0.078,0.135,-0.941
13.406,-0.080,0.135,-0.941
13.416,-0.076,0.137,-0.943
13.426,-0.076,0.139,-0.943
13.436,-0.080,0.139,-0.941
13.446,-0.074,0.141,-0.941
13.456,-0.078,0.137,-0.939
13.466,-0.078,0.135,-0.941
13.476,-0.080,0.139,-0.941
13.486,-0.076,0.137,-0.939
13.496,-0.080,0.135,-0.945
13.506,-0.078,0.139,-0.941
13.516,-0.078,0.135,-0.941
13.526,-0.078,0.139,-0.939
13.536,-0.078,0.139,-0.941
13.546,-0.082,0.139,-0.949
13.555,-0.080,0.141,-0.941
13.565,-0.078,0.135,-0.936
13.575,-0.080,0.133,-0.947
13.585,-0.080,0.135,-0.949
13.595,-0.078,0.139,-0.936
13.605,-0.078,0.133,-0.938
13.615,-0.082,0.135,-0.947
13.625,-0.080,0.143,-0.939
13.635,-0.078,0.135,-0.943
13.645,-0.074,0.137,-0.939
13.655,-0.078,0.141,-0.936
13.665,-0.080,0.141,-0.943
13.675,-0.078,0.137,-0.938
13.685,-0.078,0.135,-0.941
13.695,-0.080,0.137,-0.939
13.704,-0.076,0.135,-0.941
13.714,-0.078,0.135,-0.939
13.724,-0.076,0.135,-0.945
13.734,-0.080,0.141,-0.941
13.744,-0.080,0.137,-0.936
13.754,-0.076,0.135,-0.947
13.764,-0.080,0.141,-0.943
13.774,-0.076,0.141,-0.941
13.784,-0.076,0.135,-0.939
13.794,-0.078,0.131,-0.943
13.804,-0.078,0.135,-0.943
13.814,-0.078,0.135,-0.943
13.824,-0.076,0.139,-0.941
13.834,-0.082,0.139,-0.943
13.844,-0.080,0.135,-0.938
13.853,-0.078,0.137,-0.936
13.863,-0.072,0.139,-0.943
13.873,-0.070,0.141,-0.945
13.883,-0.076,0.139,-0.941
13.893,-0.078,0.137,-0.943
13.903,-0.082,0.133,-0.941
13.913,-0.084,0.133,-0.941
13.923,-0.084,0.135,-0.936
13.933,-0.078,0.139,-0.945
13.943,-0.076,0.139,-0.941
13.953,-0.070,0.139,-0.938
13.963,-0.072,0.139,-0.945
13.973,-0.080,0.135,-0.941
13.983,-0.086,0.133,-0.947
13.993,-0.084,0.129,-0.939
14.003,-0.080,0.135,-0.941
14.012,-0.076,0.141,-0.945
14.022,-0.072,0.143,-0.939
14.032,-0.070,0.143,-0.939
14.042,-0.076,0.139,-0.941
14.052,-0.082,0.133,-0.943
14.062,-0.086,0.129,-0.943
14.072,-0.086,0.131,-0.941
14.082,-0.078,0.137,-0.941
14.092,-0.072,0.145,-0.939
14.102,-0.070,0.141,-0.939
14.112,-0.074,0.139,-0.941
14.122,-0.076,0.135,-0.945
14.132,-0.084,0.135,-0.945
14.142,-0.084,0.129,-0.939
14.152,-0.082,0.133,-0.939
14.161,-0.078,0.141,-0.941
14.171,-0.076,0.141,-0.943
14.181,-0.072,0.139,-0.939
14.191,-0.072,0.141,-0.945
14.201,-0.078,0.137,-0.941
14.211,-0.082,0.135,-0.943
14.221,-0.084,0.137,-0.941
14.231,-0.078,0.137,-0.941
14.241,-0.078,0.135,-0.939
14.251,-0.076,0.141,-0.943
14.261,-0.072,0.137,-0.939
14.271,-0.074,0.135,-0.941
14.281,-0.076,0.135,-0.939
14.291,-0.084,0.135,-0.943
14.301,-0.080,0.139,-0.941
14.310,-0.080,0.139,-0.939
14.320,-0.078,0.139,-0.941
14.330,-0.074,0.137,-0.939
14.340,-0.076,0.135,-0.941
14.350,-0.080,0.135,-0.943
14.360,-0.078,0.137,-0.945
14.370,-0.080,0.137,-0.943
14.380,-0.078,0.137,-0.941
14.390,-0.080,0.135,-0.941
14.400,-0.076,0.139,-0.941
14.410,-0.078,0.137,-0.939
14.420,-0.076,0.137,-0.939
14.430,-0.078,0.135,-0.943
14.440,-0.080,0.137,-0.939
14.450,-0.082,0.135,-0.941
14.459,-0.076,0.137,-0.932
14.469,-0.078,0.143,-0.938
14.479,-0.080,0.139,-0.943
14.489,-0.074,0.109,-0.867
14.499,-0.080,0.195,-0.996
14.509,-0.061,0.127,-1.031
14.519,-0.084,0.053,-0.947
14.529,-0.062,0.092,-0.855
14.539,-0.057,0.166,-0.916
14.549,-0.080,0.201,-0.990
14.559,-0.084,0.178,-0.943
14.569,-0.082,0.129,-0.910
14.579,-0.092,0.105,-0.949
14.589,-0.092,0.107,-0.971
14.599,-0.078,0.129,-0.951
14.609,-0.074,0.148,-0.938
14.618,-0.057,0.154,-0.951
14.628,-0.066,0.164,-0.930
14.638,-0.092,0.156,-0.896
14.648,-0.092,0.139,-0.969
14.658,-0.086,0.111,-0.977
14.668,-0.074,0.100,-0.928
14.678,-0.070,0.125,-0.918
14.688,-0.072,0.150,-0.941
14.698,-0.072,0.160,-0.959
14.708,-0.070,0.152,-0.920
14.718,-0.082,0.139,-0.930
14.728,-0.092,0.129,-0.971
14.738,-0.088,0.115,-0.955
14.748,-0.072,0.125,-0.939
14.758,-0.072,0.145,-0.926
14.767,-0.072,0.152,-0.943
14.777,-0.076,0.154,-0.951
14.787,-0.080,0.135,-0.928
14.797,-0.088,0.125,-0.934
14.807,-0.086,0.125,-0.951
14.817,-0.082,0.131,-0.955
14.827,-0.072,0.143,-0.947
14.837,-0.070,0.146,-0.934
14.847,-0.068,0.150,-0.936
14.857,-0.076,0.143,-0.939
14.867,-0.082,0.135,-0.939
14.877,-0.088,0.127,-0.938
14.887,-0.084,0.127,-0.943
14.897,-0.078,0.133,-0.943
14.907,-0.074,0.137,-0.945
14.916,-0.074,0.145,-0.945
14.926,-0.074,0.143,-0.941
14.936,-0.074,0.146,-0.939
14.946,-0.082,0.141,-0.939
14.956,-0.082,0.135,-0.945
14.966,-0.078,0.133,-0.945
14.976,-0.078,0.133,-0.945
14.986,-0.072,0.135,-0.945
14.996,-0.078,0.139,-0.945
15.006,-0.078,0.139,-0.939
15.016,-0.084,0.137,-0.938
15.026,-0.086,0.139,-0.938
15.036,-0.082,0.137,-0.943
15.046,-0.076,0.135,-0.938
15.056,-0.070,0.139,-0.941
15.065,-0.070,0.137,-0.945
15.075,-0.074,0.141,-0.945
15.085,-0.080,0.141,-0.939
15.095,-0.084,0.135,-0.939
15.105,-0.086,0.137,-0.943
15.115,-0.080,0.137,-0.945
15.125,-0.078,0.137,-0.945
15.135,-0.074,0.133,-0.945
15.145,-0.074,0.137,-0.941
15.155,-0.080,0.137,-0.939
15.165,-0.076,0.141,-0.941
15.175,-0.080,0.141,-0.939
15.185,-0.080,0.139,-0.941
15.195,-0.076,0.137,-0.941
15.205,-0.078,0.133,-0.945
15.215,-0.076,0.131,-0.949
15.224,-0.082,0.133,-0.943
15.234,-0.080,0.133,-0.943
15.244,-0.084,0.141,-0.941
15.254,-0.080,0.139,-0.939
15.264,-0.078,0.141,-0.939
15.274,-0.074,0.139,-0.943
15.284,-0.074,0.141,-0.941
15.294,-0.074,0.137,-0.941
15.304,-0.078,0.139,-0.939
15.314,-0.080,0.135,-0.941
15.324,-0.084,0.139,-0.939
15.334,-0.082,0.133,-0.941
15.344,-0.084,0.135,-0.943
15.354,-0.078,0.139,-0.945
15.364,-0.078,0.137,-0.941
15.373,-0.076,0.135,-0.941
15.383,-0.076,0.139,-0.939
15.393,-0.076,0.143,-0.939
15.403,-0.078,0.141,-0.941
15.413,-0.076,0.141,-0.941
15.423,-0.080,0.137,-0.939
15.433,-0.080,0.137,-0.941
15.443,-0.076,0.137,-0.947
15.453,-0.041,0.268,-0.988
15.463,0.135,0.299,-0.809
15.473,-0.211,-0.166,-0.766
15.483,0.373,0.268,-0.838
15.493,0.045,0.402,-1.064
15.503,-0.061,0.090,-0.771
15.513,-0.080,0.111,-1.037
15.522,-0.076,0.033,-1.053
15.532,-0.066,0.076,-0.932
15.542,0.039,0.123,-0.902
15.552,-0.053,0.100,-0.889
15.562,-0.025,0.096,-0.965
15.572,-0.051,0.117,-0.955
15.582,-0.080,0.080,-0.982
15.592,-0.059,0.088,-0.973
15.602,0.002,0.047,-0.949
15.612,0.045,0.041,-0.932
15.622,0.023,0.037,-0.949
15.632,-0.014,0.037,-0.938
15.642,-0.078,0.066,-0.926
15.652,-0.172,0.123,-0.922
15.662,-0.238,0.088,-0.965
15.671,-0.201,0.107,-0.893
15.681,-0.131,0.117,-0.992
15.691,-0.100,0.117,-0.961
15.701,-0.123,0.145,-0.969
15.711,-0.139,0.150,-0.920
15.721,-0.133,0.152,-0.900
15.731,-0.162,0.162,-0.984
15.741,-0.143,0.125,-0.939
15.751,-0.184,0.146,-0.936
15.761,-0.189,0.170,-0.939
15.771,-0.156,0.145,-0.955
15.781,-0.092,0.127,-0.963
15.791,-0.072,0.102,-0.961
15.801,-0.074,0.111,-0.930
15.811,-0.023,0.123,-0.939
15.821,-0.037,0.127,-0.951
15.830,-0.033,0.146,-0.971
15.840,-0.055,0.164,-0.926
15.850,-0.057,0.113,-0.930
15.860,-0.061,0.113,-0.939
15.870,-0.047,0.068,-0.941
15.880,-0.037,0.109,-0.967
15.890,-0.004,0.059,-0.930
15.900,-0.004,0.090,-0.969
15.910,0.025,0.066,-0.920
15.920,-0.004,0.078,-0.863
15.930,-0.027,0.105,-0.949
15.940,-0.025,0.090,-0.906
15.950,-0.051,0.154,-0.959
15.960,-0.088,0.117,-0.916
15.970,-0.178,0.141,-0.971
15.979,-0.172,0.121,-0.928
15.989,-0.164,0.139,-0.982
15.999,-0.160,0.164,-0.951
16.009,-0.137,0.164,-0.943
16.019,-0.135,0.213,-0.975
16.029,-0.117,0.227,-0.947
16.039,-0.088,0.133,-0.904
16.049,-0.092,0.174,-0.951
16.059,-0.037,0.152,-0.947
16.069,-0.055,0.096,-0.922
16.079,0.002,0.082,-0.975
16.089,0.066,0.021,-0.930
16.099,0.043,0.043,-0.949
16.109,0.016,0.129,-1.006
16.119,0.088,0.062,-0.932
16.128,0.068,0.074,-0.932
16.138,0.066,0.074,-0.938
16.148,-0.008,0.145,-0.943
16.158,-0.025,0.152,-0.926
16.168,-0.158,0.164,-0.988
16.178,-0.254,0.176,-0.951
16.188,-0.230,0.148,-0.883
16.198,-0.213,0.139,-0.980
16.208,-0.084,0.041,-0.994
16.218,-0.062,0.070,-1.002
16.228,-0.016,0.029,-0.953
16.238,-0.020,0.145,-0.965
16.248,-0.039,0.158,-0.953
16.258,-0.047,0.203,-0.893
16.268,-0.117,0.215,-0.885
16.278,-0.148,0.258,-0.918
16.287,-0.172,0.232,-0.938
16.297,-0.184,0.258,-0.967
16.307,-0.070,0.109,-0.904
16.317,-0.064,0.082,-0.898
16.327,-0.074,0.074,-0.961
16.337,-0.057,0.020,-0.941
16.347,0.000,0.029,-1.014
16.357,-0.057,0.107,-0.969
16.367,-0.037,0.150,-0.930
16.377,-0.115,0.279,-0.973
16.387,-0.125,0.271,-0.957
16.397,-0.137,0.275,-0.957
16.407,-0.154,0.275,-0.965
16.417,-0.145,0.229,-0.965
16.427,-0.115,0.178,-0.936
16.436,-0.061,0.150,-0.949
16.446,-0.057,0.090,-0.965
16.456,-0.133,0.207,-0.951
16.466,-0.127,0.270,-0.920
16.476,-0.084,0.188,-0.926
16.486,-0.057,0.139,-0.975
16.496,0.008,0.041,-0.934
16.506,-0.045,0.148,-0.932
16.516,-0.090,0.201,-0.924
16.526,-0.088,0.174,-0.877
16.536,-0.098,0.156,-0.938
16.546,-0.055,0.127,-0.965
16.556,-0.002,0.096,-0.953
16.566,0.021,0.059,-0.943
16.576,-0.047,0.117,-1.010
16.585,0.027,0.023,-0.895
16.595,-0.020,0.053,-0.930
16.605,-0.113,0.158,-0.975
16.615,-0.107,0.207,-0.959
16.625,-0.135,0.223,-0.918
16.635,-0.105,0.201,-0.898
16.645,-0.180,0.191,-0.920
16.655,-0.189,0.170,-0.928
16.665,-0.139,0.158,-0.953
16.675,-0.072,0.145,-0.982
16.685,-0.078,0.139,-0.934
16.695,-0.078,0.141,-0.943
16.705,-0.123,0.053,-0.932
16.715,-0.037,0.172,-0.980
16.725,-0.059,0.162,-0.926
16.734,-0.061,0.148,-0.906
16.744,-0.068,0.137,-0.947
16.754,-0.062,0.115,-0.947
16.764,-0.070,0.131,-0.941
16.774,-0.064,0.139,-0.941
16.784,-0.074,0.137,-0.941
16.794,-0.074,0.131,-0.943
16.804,-0.070,0.121,-0.939
16.814,-0.070,0.129,-0.955
16.824,-0.074,0.133,-0.938
16.834,-0.066,0.133,-0.941
16.844,-0.072,0.133,-0.943
16.854,-0.072,0.133,-0.943
16.864,-0.070,0.127,-0.941
16.874,-0.066,0.135,-0.945
16.884,-0.072,0.125,-0.941
16.893,-0.074,0.123,-0.945
16.903,-0.072,0.131,-0.941
16.913,-0.072,0.131,-0.938
16.923,-0.068,0.135,-0.945
16.933,-0.074,0.131,-0.945
16.943,-0.074,0.129,-0.939
16.953,-0.072,0.131,-0.939
16.963,-0.072,0.133,-0.945
16.973,-0.074,0.131,-0.943
16.983,-0.072,0.133,-0.939
16.993,-0.068,0.133,-0.941
17.003,-0.070,0.133,-0.939
17.013,-0.070,0.133,-0.943
17.023,-0.076,0.131,-0.939
17.033,-0.072,0.129,-0.945
17.042,-0.074,0.133,-0.945
17.052,-0.074,0.131,-0.945
17.062,-0.074,0.131,-0.943
17.072,-0.072,0.131,-0.939
17.082,-0.070,0.131,-0.941
17.092,-0.070,0.129,-0.947
17.102,-0.074,0.133,-0.941
17.112,-0.070,0.131,-0.943
17.122,-0.070,0.131,-0.943
17.132,-0.072,0.133,-0.945
17.142,-0.070,0.135,-0.941
17.152,-0.070,0.129,-0.941
17.162,-0.072,0.133,-0.943
17.172,-0.074,0.131,-0.941
17.182,-0.072,0.133,-0.943
17.191,-0.072,0.131,-0.939
17.201,-0.074,0.129,-0.941
17.211,-0.072,0.131,-0.943
17.221,-0.072,0.131,-0.943
17.231,-0.072,0.129,-0.943
17.241,-0.072,0.133,-0.947
17.251,-0.074,0.133,-0.941
17.261,-0.068,0.133,-0.943
17.271,-0.072,0.133,-0.941
17.281,-0.070,0.131,-0.939
17.291,-0.072,0.131,-0.943
17.301,-0.072,0.133,-0.947
17.311,-0.072,0.129,-0.947
17.321,-0.070,0.127,-0.947
17.331,-0.070,0.131,-0.943
17.340,-0.072,0.133,-0.945
17.350,-0.074,0.133,-0.943
17.360,-0.072,0.129,-0.941
17.370,-0.072,0.133,-0.945
17.380,-0.070,0.131,-0.943
17.390,-0.074,0.131,-0.945
17.400,-0.072,0.129,-0.945
17.410,-0.070,0.129,-0.943
17.420,-0.070,0.131,-0.941
17.430,-0.072,0.131,-0.941
17.440,-0.076,0.129,-0.941
17.450,-0.072,0.133,-0.941
17.460,-0.074,0.133,-0.941
17.470,-0.072,0.133,-0.945
17.480,-0.072,0.131,-0.945
17.490,-0.070,0.129,-0.943
17.499,-0.072,0.133,-0.943
17.509,-0.072,0.131,-0.941
17.519,-0.072,0.133,-0.943
17.529,-0.074,0.129,-0.941
17.539,-0.074,0.133,-0.943
17.549,-0.072,0.131,-0.945
17.559,-0.070,0.133,-0.945
17.569,-0.070,0.131,-0.943
17.579,-0.068,0.131,-0.941
17.589,-0.072,0.129,-0.941
17.599,-0.072,0.131,-0.941
17.609,-0.072,0.129,-0.943
17.619,-0.074,0.131,-0.941
17.629,-0.072,0.133,-0.943
17.639,-0.072,0.131,-0.943
17.648,-0.072,0.129,-0.945
17.658,-0.072,0.131,-0.943
17.668,-0.070,0.131,-0.941
17.678,-0.068,0.131,-0.947
17.688,-0.070,0.131,-0.947
17.698,-0.070,0.133,-0.938
17.708,-0.070,0.133,-0.941
17.718,-0.074,0.135,-0.939
17.728,-0.070,0.133,-0.947
17.738,-0.074,0.129,-0.945
17.748,-0.074,0.127,-0.947
17.758,-0.074,0.127,-0.941
17.768,-0.074,0.131,-0.945
17.778,-0.070,0.131,-0.943
17.788,-0.070,0.131,-0.945
17.797,-0.070,0.135,-0.939
17.807,-0.068,0.135,-0.938
17.817,-0.072,0.131,-0.945
17.827,-0.070,0.129,-0.941
17.837,-0.070,0.131,-0.941
17.847,-0.074,0.131,-0.941
17.857,-0.074,0.131,-0.947
17.867,-0.072,0.133,-0.945
17.877,-0.070,0.135,-0.943
17.887,-0.070,0.131,-0.943
17.897,-0.072,0.131,-0.945
17.907,-0.070,0.129,-0.943
17.917,-0.068,0.133,-0.939
17.927,-0.070,0.133,-0.941
17.937,-0.072,0.127,-0.943
17.946,-0.074,0.129,-0.945
17.956,-0.072,0.129,-0.941
17.966,-0.072,0.131,-0.943
17.976,-0.070,0.133,-0.945
17.986,-0.072,0.131,-0.941
17.996,-0.070,0.135,-0.947
18.006,-0.074,0.133,-0.941
18.016,-0.070,0.133,-0.943
18.026,-0.072,0.131,-0.947
18.036,-0.072,0.131,-0.943
18.046,-0.072,0.129,-0.941
18.056,-0.074,0.131,-0.941
18.066,-0.074,0.129,-0.941
18.076,-0.072,0.133,-0.943
18.086,-0.070,0.131,-0.939
18.096,-0.072,0.131,-0.943
18.105,-0.070,0.133,-0.945
18.115,-0.072,0.131,-0.945
18.125,-0.074,0.131,-0.945
18.135,-0.070,0.131,-0.943
18.145,-0.072,0.133,-0.939
18.155,-0.076,0.131,-0.943
18.165,-0.074,0.129,-0.939
18.175,-0.072,0.131,-0.941
18.185,-0.070,0.129,-0.943
18.195,-0.072,0.127,-0.943
18.205,-0.070,0.133,-0.945
18.215,-0.074,0.133,-0.943
18.225,-0.070,0.133,-0.943
18.235,-0.070,0.131,-0.941
18.245,-0.014,-0.125,-0.643
18.254,-0.213,-0.453,-1.023
18.264,0.094,-0.146,-1.139
18.274,0.008,-0.096,-0.994
18.284,0.018,0.113,-0.926
18.294,-0.055,-0.053,-1.006
18.304,0.064,0.654,-0.906
18.314,-0.137,0.387,-0.980
18.324,-0.340,0.135,-1.039
18.334,-0.398,0.279,-0.912
18.344,-0.117,0.123,-0.975
18.354,-0.170,0.100,-0.912
18.364,-0.186,0.031,-0.936
18.374,-0.230,-0.109,-1.008
18.384,-0.135,-0.332,-1.008
18.394,-0.041,-0.275,-0.982
18.403,-0.021,-0.193,-0.986
18.413,-0.084,-0.266,-1.043
18.423,-0.016,-0.320,-1.236
18.433,-0.082,-0.467,-1.230
18.443,-0.131,-0.486,-1.111
18.453,-0.180,-0.305,-1.023
18.463,-0.207,-0.270,-0.889
18.473,-0.164,-0.242,-0.871
18.483,0.027,-0.396,-0.670
18.493,0.012,-0.389,-0.826
18.503,-0.033,-0.486,-0.846
18.513,0.082,-0.416,-0.906
18.523,0.295,-0.451,-0.879
18.533,0.572,-0.420,-0.521
18.543,0.668,-0.355,-0.785
18.552,0.191,-0.520,-0.549
18.562,0.371,-0.914,-0.152
18.572,0.551,-0.975,0.191
18.582,0.545,-0.943,0.178
18.592,0.592,-0.869,0.016
18.602,0.883,-0.838,-0.137
18.612,0.930,-0.762,-0.357
18.622,0.609,-1.592,-0.152
18.632,0.818,-0.717,-0.359
18.642,0.932,-0.629,-0.299
18.652,0.789,-0.770,-0.324
18.662,0.758,-0.309,-1.188
18.672,0.846,-0.725,-0.256
18.682,0.717,-0.746,-0.650
18.692,0.982,-0.691,-0.496
18.702,0.859,-0.637,-0.578
18.711,0.721,-0.689,-0.709
18.721,0.883,-0.404,-0.736
18.731,0.795,-0.439,-0.633
18.741,0.768,-0.299,-0.520
18.751,0.566,-0.004,-0.234
18.761,0.834,-0.326,-0.105
18.771,0.959,-0.217,-0.254
18.781,1.041,-0.334,-0.299
18.791,1.076,-0.396,-0.453
18.801,0.953,-0.281,-0.652
18.811,1.039,-0.340,-0.771
18.821,1.119,-0.137,-0.688
18.831,1.102,-0.158,-0.719
18.841,0.824,-0.146,-0.801
18.851,0.637,-0.207,-0.771
18.860,0.500,-0.273,-0.732
18.870,0.715,-0.090,-0.822
18.880,0.652,-0.061,-0.689
18.890,0.643,-0.078,-0.561
18.900,0.668,0.023,-0.537
18.910,0.596,-0.006,-0.434
18.920,0.551,-0.154,-0.438
18.930,0.596,-0.209,-0.521
18.940,0.682,-0.143,-0.576
18.950,0.729,-0.160,-0.623
18.960,0.748,-0.209,-0.572
18.970,0.824,-0.260,-0.508
18.980,0.793,-0.303,-0.586
18.990,0.811,-0.312,-0.645
19.000,0.723,-0.303,-0.678
19.009,0.525,-0.232,-0.451
19.019,0.588,-0.162,-0.662
19.029,0.576,-0.232,-0.664
19.039,0.697,-0.197,-0.578
19.049,0.732,-0.311,-0.635
19.059,0.713,-0.283,-0.711
19.069,0.650,-0.297,-0.613
19.079,0.592,-0.289,-0.510
19.089,0.549,-0.293,-0.496
19.099,0.502,-0.328,-0.520
19.109,0.529,-0.342,-0.510
19.119,0.531,-0.385,-0.438
19.129,0.584,-0.322,-0.324
19.139,0.469,-0.375,-0.352
19.149,0.617,-0.414,-0.375
19.159,0.748,-0.391,-0.391
19.168,0.812,-0.414,-0.402
19.178,0.904,-0.381,-0.475
19.188,0.945,-0.402,-0.486
19.198,0.883,-0.424,-0.508
19.208,0.844,-0.375,-0.568
19.218,0.811,-0.332,-0.482
19.228,0.652,-0.391,-0.477
19.238,0.721,-0.316,-0.402
19.248,0.945,-0.209,-0.248
19.258,0.924,-0.234,-0.096
19.268,0.889,-0.326,0.111
19.278,0.850,-0.418,0.400
19.288,0.867,-0.406,0.400
19.298,0.992,-0.311,0.250
19.308,0.811,-0.547,0.141
19.317,0.801,-0.529,0.080
19.327,0.859,-0.396,-0.010
19.337,0.771,-0.543,-0.629
19.347,0.545,-0.465,-1.791
19.357,1.121,-0.230,-0.457
19.367,0.877,-0.301,-0.303
19.377,1.020,-0.324,-0.086
19.387,0.984,-0.264,0.672
19.397,1.150,-0.250,0.256
19.407,0.867,-0.295,-0.137
19.417,0.693,-0.312,-0.139
19.427,0.896,-0.336,0.092
19.437,0.672,-0.324,0.041
19.447,0.615,-0.420,-0.090
19.457,0.734,-0.479,-0.203
19.466,0.799,-0.475,-0.262
19.476,0.842,-0.467,-0.336
19.486,0.949,-0.465,-0.408
19.496,0.986,-0.480,-0.477
19.506,0.941,-0.482,-0.457
19.516,0.695,-0.408,-0.340
19.526,0.627,-0.357,-0.246
19.536,0.572,-0.344,-0.133
19.546,0.367,-0.299,-0.006
19.556,0.496,-0.238,0.191
19.566,0.598,-0.133,0.338
19.576,0.807,-0.078,0.283
19.586,1.002,-0.104,0.109
19.596,1.113,-0.098,-0.070
19.606,1.146,-0.051,-0.184
19.615,1.217,0.021,-0.301
19.625,1.326,0.080,-0.479
19.635,1.381,0.109,-0.643
19.645,1.264,0.154,-0.730
19.655,1.051,0.174,-0.676
19.665,0.688,0.504,-0.287
19.675,1.205,-0.014,-0.670
19.685,0.867,0.074,-0.387
19.695,0.934,0.125,-0.260
19.705,0.941,0.258,-0.033
19.715,1.000,0.297,-0.174
19.725,1.092,0.289,-0.244
19.735,0.975,0.275,-0.209
19.745,0.883,0.234,-0.205
19.755,0.965,0.209,-0.330
19.765,1.066,0.143,-0.383
19.774,1.057,0.115,-0.418
19.784,1.053,0.072,-0.404
19.794,0.957,0.047,-0.355
19.804,0.867,0.115,-0.254
19.814,0.867,0.139,-0.113
19.824,0.936,0.164,-0.041
19.834,1.035,0.188,-0.090
19.844,1.053,0.178,-0.158
19.854,1.135,0.230,-0.207
19.864,1.230,0.287,-0.266
19.874,1.184,0.201,-0.289
19.884,1.217,0.262,-0.307
19.894,1.266,0.252,-0.281
19.904,1.289,0.221,-0.252
19.914,1.244,0.201,-0.242
19.923,1.240,0.215,-0.230
19.933,1.219,0.168,-0.213
19.943,1.084,0.320,-0.209
19.953,0.801,0.199,-0.115
19.963,1.488,-0.023,-0.439
19.973,0.973,0.266,-0.398
19.983,1.100,0.176,-0.328
19.993,1.252,0.477,-0.338
20.003,1.115,0.688,-0.357
20.013,0.602,-0.127,-0.096
20.023,0.508,0.432,0.141
20.033,0.795,0.299,-0.004
20.043,0.580,0.561,-0.389
20.053,0.662,0.234,0.629
20.063,0.725,0.396,0.180
20.072,0.629,0.426,-0.104
20.082,0.803,0.449,-0.113
20.092,0.676,0.445,-0.016
20.102,0.594,0.475,0.242
20.112,0.764,0.293,0.449
20.122,0.729,0.404,0.377
20.132,0.676,0.404,0.357
20.142,0.592,0.357,0.375
20.152,0.576,0.379,0.441
20.162,0.516,0.412,0.422
20.172,0.648,0.621,0.258
20.182,0.705,0.549,0.268
20.192,0.617,0.500,0.254
20.202,0.691,0.479,0.314
20.212,0.689,0.492,0.256
20.221,0.709,0.508,0.299
20.231,0.781,0.453,0.227
20.241,0.658,0.449,0.148
20.251,0.592,0.539,0.357
20.261,0.426,0.418,0.350
20.271,0.609,0.566,0.430
20.281,0.711,0.428,0.451
20.291,0.705,0.371,0.355
20.301,0.717,0.420,0.443
20.311,0.693,0.494,0.482
20.321,0.668,0.521,0.467
20.331,0.646,0.533,0.357
20.341,0.668,0.539,0.326
20.351,0.676,0.516,0.398
20.361,0.686,0.494,0.479
20.371,0.707,0.498,0.488
20.380,0.740,0.494,0.471
20.390,0.766,0.451,0.479
20.400,0.742,0.410,0.516
20.410,0.742,0.416,0.492
20.420,0.752,0.455,0.457
20.430,0.729,0.488,0.469
20.440,0.729,0.484,0.473
20.450,0.795,0.471,0.416
20.460,0.787,0.416,0.441
20.470,0.803,0.465,0.381
20.480,0.758,0.506,0.383
20.490,0.729,0.555,0.477
20.500,0.787,0.465,0.445
20.510,0.762,0.480,0.396
20.520,0.752,0.465,0.438
20.529,0.805,0.516,0.447
20.539,0.822,0.521,0.434
20.549,0.828,0.521,0.361
20.559,0.844,0.467,0.262
20.569,0.855,0.592,0.467
20.579,0.928,0.604,0.576
20.589,0.834,0.637,0.627
20.599,0.750,0.570,0.549
20.609,0.734,0.562,0.551
20.619,0.674,0.516,0.623
20.629,0.631,0.504,0.746
20.639,0.584,0.562,0.783
20.649,0.523,0.602,0.811
20.659,0.465,0.623,0.760
20.669,0.482,0.570,0.709
20.678,0.479,0.441,0.621
20.688,0.455,0.404,0.559
20.698,0.457,0.449,0.535
20.708,0.383,0.510,0.615
20.718,0.297,0.584,0.709
20.728,0.348,0.551,0.635
20.738,0.344,0.484,0.484
20.748,0.264,0.521,0.479
20.758,0.242,0.572,0.471
20.768,0.252,0.645,0.529
20.778,0.225,0.691,0.592
20.788,0.236,0.699,0.609
20.798,0.250,0.678,0.594
20.808,0.307,0.615,0.631
20.818,0.314,0.564,0.654
20.827,0.365,0.543,0.811
20.837,0.375,0.602,0.643
20.847,0.387,0.611,0.656
20.857,0.447,0.580,0.637
20.867,0.498,0.561,0.592
20.877,0.482,0.602,0.625
20.887,0.531,0.641,0.635
20.897,0.545,0.652,0.662
20.907,0.578,0.609,0.633
20.917,0.559,0.635,0.666
20.927,0.637,0.672,0.697
20.937,0.645,0.600,0.656
20.947,0.662,0.551,0.564
20.957,0.662,0.529,0.416
20.967,0.650,0.559,0.393
20.977,0.641,0.555,0.402
20.986,0.645,0.600,0.414
20.996,0.650,0.602,0.451
21.006,0.643,0.609,0.480
21.016,0.660,0.586,0.422
21.026,0.646,0.562,0.424
21.036,0.639,0.570,0.377
21.046,0.648,0.594,0.375
21.056,0.625,0.586,0.518
21.066,0.672,0.525,0.564
21.076,0.689,0.451,0.527
21.086,0.688,0.447,0.473
21.096,0.684,0.490,0.391
21.106,0.711,0.500,0.404
21.116,0.773,0.447,0.426
21.126,0.764,0.379,0.455
21.135,0.789,0.422,0.475
21.145,0.773,0.426,0.398
21.155,0.783,0.430,0.408
21.165,0.791,0.441,0.445
21.175,0.781,0.422,0.389
21.185,0.768,0.480,0.371
21.195,0.779,0.518,0.369
21.205,0.762,0.502,0.389
21.215,0.787,0.471,0.367
21.225,0.803,0.439,0.367
21.235,0.811,0.428,0.426
21.245,0.816,0.424,0.447
21.255,0.781,0.404,0.449
21.265,0.799,0.396,0.445
21.275,0.812,0.436,0.404
21.284,0.850,0.443,0.307
21.294,0.777,0.412,0.393
21.304,0.812,0.340,0.367
21.314,0.793,0.283,0.252
21.324,0.820,0.291,0.250
21.334,0.807,0.330,0.305
21.344,0.812,0.371,0.338
21.354,0.842,0.334,0.365
21.364,0.826,0.322,0.348
21.374,0.812,0.342,0.307
21.384,0.807,0.309,0.271
21.394,0.822,0.266,0.223
21.404,0.818,0.252,0.207
21.414,0.814,0.266,0.215
21.424,0.850,0.287,0.271
21.433,0.863,0.314,0.287
21.443,0.871,0.283,0.256
21.453,0.846,0.250,0.203
21.463,0.873,0.289,0.197
21.473,0.861,0.256,0.141
21.483,0.893,0.287,0.199
21.493,0.867,0.297,0.100
21.503,0.875,0.236,0.174
21.513,0.939,0.314,0.258
21.523,1.105,0.184,0.486
21.533,0.955,0.172,0.381
21.543,0.998,0.135,0.250
21.553,0.986,0.166,0.232
21.563,0.980,0.146,0.191
21.573,1.025,0.068,0.021
21.583,0.830,0.133,0.107
21.592,0.904,0.314,0.186
21.602,0.902,0.332,-0.043
21.612,0.898,0.307,-0.064
21.622,0.848,0.285,0.270
21.632,0.914,0.211,0.383
21.642,0.883,0.227,0.297
21.652,0.934,0.320,0.215
21.662,0.963,0.385,0.217
21.672,0.881,0.320,-0.162
21.682,0.756,0.480,-0.090
21.692,0.895,0.348,-0.078
21.702,0.781,0.236,-0.148
21.712,1.170,-0.170,-0.121
21.722,1.086,0.129,0.572
21.732,0.959,0.227,-0.178
21.741,0.812,0.281,0.041
21.751,0.859,0.342,-0.086
21.761,0.883,0.299,0.039
21.771,0.963,0.217,0.254
21.781,0.980,0.139,0.131
21.791,1.141,0.139,0.141
21.801,1.062,0.156,0.221
21.811,1.023,0.209,0.090
21.821,1.000,0.268,0.064
21.831,1.029,0.320,-0.094
21.841,0.924,0.309,-0.037
21.851,0.934,0.334,0.135
21.861,0.955,0.289,0.211
21.871,0.887,0.209,0.088
21.881,0.945,0.152,0.062
21.890,0.865,0.088,-0.107
21.900,0.789,0.123,-0.223
21.910,0.861,0.225,-0.143
21.920,0.908,0.311,-0.062
21.930,0.893,0.320,-0.088
21.940,0.861,0.330,-0.070
21.950,0.873,0.316,-0.135
21.960,0.797,0.299,-0.279
21.970,0.861,0.359,-0.363
21.980,0.834,0.398,-0.311
21.990,0.973,0.393,-0.270
22.000,1.049,0.383,-0.182
22.010,0.918,0.365,-0.219
22.020,0.844,0.436,-0.262
22.030,0.789,0.449,-0.178
22.040,0.793,0.348,-0.234
22.049,0.719,0.307,-0.324
22.059,0.703,0.250,-0.346
22.069,0.781,0.287,-0.330
22.079,0.707,0.244,-0.309
22.089,0.785,0.258,-0.254
22.099,0.910,0.285,-0.320
22.109,0.887,0.232,-0.461
22.119,0.748,0.355,-0.367
22.129,0.785,0.449,-0.342
22.139,0.803,0.467,-0.244
22.149,0.787,0.400,-0.283
22.159,0.729,0.371,-0.324
22.169,0.660,0.383,-0.307
22.179,0.717,0.402,-0.410
22.189,0.686,0.414,-0.482
22.198,0.668,0.393,-0.418
22.208,0.727,0.336,-0.521
22.218,0.787,0.314,-0.414
22.228,0.834,0.379,-0.318
22.238,0.783,0.338,-0.277
22.248,0.814,0.340,-0.209
22.258,0.891,0.334,-0.160
22.268,1.006,0.406,-0.125
22.278,0.898,0.371,-0.111
22.288,0.896,0.430,0.027
22.298,0.281,0.354,0.014
22.308,0.854,0.479,0.008
22.318,0.883,0.408,-0.305
22.328,0.832,0.303,-0.230
22.338,0.820,-0.053,-0.773
22.347,0.617,0.439,-0.711
22.357,0.650,0.447,-0.025
22.367,0.834,0.449,-0.102
22.377,1.596,1.408,-0.152
22.387,1.061,-0.057,0.021
22.397,-0.059,0.732,0.322
22.407,-0.877,0.943,0.762
22.417,1.027,0.781,-1.238
22.427,0.979,0.010,-0.775
22.437,0.389,0.016,-0.021
22.447,2.004,-0.773,1.279
22.457,0.959,-0.545,1.270
22.467,1.051,0.270,0.342
22.477,1.217,0.289,-0.340
22.487,0.836,0.301,-0.537
22.496,0.850,0.301,-0.338
22.506,0.973,0.033,0.051
22.516,0.957,-0.008,0.221
22.526,0.957,0.160,0.238
22.536,1.084,0.146,0.303
22.546,0.947,0.111,0.188
22.556,1.098,0.609,-0.189
22.566,0.713,0.035,-0.199
22.576,1.072,0.375,-0.111
22.586,0.832,0.346,0.113
22.596,1.002,0.184,0.203
22.606,0.986,0.150,0.084
22.616,1.012,0.188,0.006
22.626,1.193,0.104,0.150
22.636,0.801,-0.387,-0.078
22.646,0.834,-0.555,-0.027
22.655,0.900,0.088,-0.123
22.665,1.102,0.580,-0.004
22.675,1.057,0.658,0.102
22.685,0.984,0.309,0.125
22.695,0.861,-0.152,0.133
22.705,0.969,-0.021,0.139
22.715,1.078,0.246,0.168
22.725,1.090,0.217,0.170
22.735,1.045,0.117,0.170
22.745,0.986,-0.023,0.217
22.755,0.986,0.039,0.201
22.765,0.939,0.104,0.084
22.775,0.900,0.174,-0.080
22.785,0.939,0.119,0.008
22.795,1.027,-0.031,0.242
22.804,1.047,-0.035,0.371
22.814,1.010,0.029,0.266
22.824,0.969,-0.010,0.117
22.834,0.943,-0.090,0.092
22.844,0.975,-0.035,0.229
22.854,1.027,0.020,0.312
22.864,0.975,0.018,0.291
22.874,0.939,0.018,0.164
22.884,0.955,-0.016,0.135
22.894,1.111,-0.137,0.225
22.904,1.076,-0.031,0.332
22.914,0.951,0.127,0.340
22.924,0.949,0.141,0.260
22.934,0.779,0.092,0.254
22.944,0.977,0.051,0.262
22.953,0.873,0.029,0.352
22.963,0.912,0.111,0.229
22.973,0.879,0.102,0.168
22.983,0.895,0.098,0.225
22.993,0.910,0.121,0.258
23.003,0.811,0.090,0.170
23.013,0.711,0.268,0.264
23.023,0.992,0.170,0.338
23.033,1.084,-0.119,0.598
23.043,0.842,0.359,0.189
23.053,1.127,0.215,0.160
23.063,0.924,-0.029,-0.113
23.073,0.785,0.271,-0.277
23.083,0.668,0.531,-0.008
23.093,0.359,0.562,0.287
23.102,0.684,0.410,0.348
23.112,1.188,0.352,0.201
23.122,0.947,0.340,0.289
23.132,0.789,0.143,0.193
23.142,0.895,0.250,0.199
23.152,0.959,0.121,0.326
23.162,0.939,0.121,0.426
23.172,1.055,0.121,0.338
23.182,1.049,0.254,0.199
23.192,1.029,0.104,0.230
23.202,0.838,0.064,0.064
23.212,0.961,0.062,0.184
23.222,1.014,0.531,0.143
23.232,0.096,0.184,-0.975
23.242,-0.002,-1.033,0.064
23.252,1.459,0.637,0.293
23.261,0.891,0.260,0.012
23.271,1.010,-0.039,0.148
23.281,1.518,0.078,0.254
23.291,1.104,0.357,0.297
23.301,1.062,0.389,0.119
23.311,0.996,0.297,-0.004
23.321,1.021,0.273,-0.109
23.331,1.027,0.225,-0.145
23.341,0.977,0.205,-0.369
23.351,0.811,0.318,-0.150
23.361,1.047,0.338,-0.111
23.371,0.953,0.244,-0.146
23.381,0.758,0.186,-0.031
23.391,1.150,0.305,0.006
23.401,0.729,0.150,-1.047
23.410,0.697,0.447,-0.318
23.420,0.729,0.475,0.043
23.430,0.938,0.377,-0.074
23.440,0.953,0.291,-0.236
23.450,0.908,0.344,-0.150
23.460,0.900,0.336,-0.141
23.470,0.770,0.396,-0.223
23.480,0.598,0.357,-0.305
23.490,0.676,0.443,-0.309
23.500,0.818,0.691,-0.164
23.510,0.752,0.764,-0.135
23.520,0.686,0.508,-0.172
23.530,0.986,0.424,-0.348
23.540,0.824,0.346,-0.230
23.550,0.564,0.533,-0.221
23.559,0.666,0.605,-0.271
23.569,0.760,0.562,-0.168
23.579,0.756,0.611,-0.182
23.589,0.666,0.605,-0.150
23.599,0.613,0.504,-0.209
23.609,0.684,0.539,-0.232
23.619,0.666,0.646,-0.225
23.629,0.693,0.627,-0.219
23.639,0.754,0.650,-0.184
23.649,0.697,0.648,-0.201
23.659,0.678,0.646,-0.225
23.669,0.629,0.689,-0.186
23.679,0.668,0.693,-0.201
23.689,0.762,0.686,-0.133
23.699,0.658,0.771,-0.145
23.708,0.600,0.732,-0.227
23.718,0.590,0.535,-0.197
23.728,0.566,0.510,-0.279
23.738,0.836,0.475,-0.316
23.748,0.637,0.605,-0.238
23.758,0.605,0.688,-0.271
23.768,0.594,0.619,-0.303
23.778,0.629,0.641,-0.303
23.788,0.709,0.666,-0.260
23.798,0.641,0.598,-0.195
23.808,0.592,0.537,-0.223
23.818,0.605,0.621,-0.197
23.828,0.605,0.736,-0.186
23.838,0.641,0.859,-0.203
23.848,0.629,0.795,-0.252
23.858,0.680,0.754,-0.217
23.867,0.744,0.764,-0.207
23.877,0.572,0.525,-0.133
23.887,0.336,0.512,-0.225
23.897,0.615,0.664,-0.221
23.907,0.570,0.678,-0.221
23.917,0.545,0.699,-0.211
23.927,0.504,0.730,-0.229
23.937,0.633,0.758,-0.217
23.947,0.645,0.686,-0.117
23.957,0.570,0.678,-0.170
23.967,0.523,0.783,-0.215
23.977,0.551,0.834,-0.160
23.987,0.627,0.811,-0.180
23.997,0.729,0.914,-0.219
24.007,0.680,0.609,-0.348
24.016,0.613,0.752,-0.434
24.026,0.746,0.432,-0.186
24.036,0.553,0.541,-0.270
24.046,0.395,0.883,-0.262
24.056,0.479,0.867,-0.217
24.066,0.439,0.832,-0.217
24.076,0.518,0.881,-0.217
24.086,0.486,0.715,-0.236
24.096,0.436,0.764,-0.240
24.106,0.398,0.918,-0.189
24.116,0.336,1.061,-0.213
24.126,0.438,1.129,-0.105
24.136,0.256,0.967,-0.104
24.146,0.133,0.947,-0.135
24.156,0.170,1.004,-0.168
24.165,0.115,0.877,-0.207
24.175,0.135,0.988,-0.207
24.185,0.041,0.965,-0.207
24.195,0.010,0.938,-0.152
24.205,-0.018,0.990,-0.277
24.215,0.021,0.705,-0.379
24.225,0.053,0.674,-0.350
24.235,0.000,0.766,-0.209
24.245,-0.041,0.902,-0.043
24.255,-0.150,0.793,-0.117
24.265,-0.285,0.613,-0.264
24.275,-0.350,0.676,-0.270
24.285,-0.309,1.082,-0.166
24.295,-0.414,0.947,-0.156
24.305,-0.357,0.912,-0.246
24.314,-0.416,0.896,-0.277
24.324,-0.492,0.859,-0.270
24.334,-0.465,0.938,-0.293
24.344,-0.518,0.930,-0.281
24.354,-0.523,0.852,-0.285
24.364,-0.553,0.750,-0.295
24.374,-0.568,0.725,-0.334
24.384,-0.484,0.740,-0.250
24.394,-0.439,0.664,0.133
24.404,-0.518,0.684,0.340
24.414,-0.564,0.660,-0.025
24.424,-0.756,0.686,-0.504
24.434,-1.031,0.809,-0.629
24.444,-0.742,0.678,-0.602
24.454,-0.756,0.619,-0.055
24.464,-0.500,0.611,-0.113
24.473,-0.340,0.695,0.199
24.483,-0.477,0.836,0.201
24.493,-0.648,0.848,-0.199
24.503,-0.676,0.762,-0.340
24.513,-0.701,0.625,-0.162
24.523,-0.721,0.617,-0.037
24.533,-0.771,0.654,-0.035
24.543,-0.807,0.740,-0.076
24.553,-0.754,0.934,-0.055
24.563,-0.719,0.943,-0.061
24.573,-0.691,0.873,-0.119
24.583,-0.641,0.670,-0.182
24.593,-0.316,0.723,-0.172
24.603,-0.479,0.523,-0.117
24.613,-0.730,0.650,-0.094
24.622,-0.729,0.793,0.016
24.632,-0.695,0.775,-0.055
24.642,-0.674,0.715,-0.129
24.652,-0.576,0.732,-0.092
24.662,-0.568,0.727,-0.076
24.672,-0.572,0.635,-0.113
24.682,-0.547,0.639,-0.107
24.692,-0.568,0.613,-0.152
24.702,-0.537,0.832,-0.141
24.712,-0.523,0.904,-0.146
24.722,-0.570,0.820,-0.137
24.732,-0.461,0.994,-0.113
24.742,-0.562,1.207,-0.062
24.752,-0.797,0.885,-0.205
24.762,-0.936,0.732,-0.166
24.771,-0.932,0.574,-0.096
24.781,-0.852,0.369,-0.254
24.791,-0.539,0.279,-0.152
24.801,-0.307,0.344,-0.051
24.811,-0.367,0.895,-0.244
24.821,-0.576,0.812,-0.297
24.831,-0.484,1.035,0.039
24.841,-0.373,1.062,0.088
24.851,-0.389,0.912,-0.098
24.861,-0.428,0.619,-0.180
24.871,-0.352,0.803,-0.158
24.881,-0.533,0.795,-0.035
24.891,-0.604,0.994,0.053
24.901,-0.619,0.900,-0.047
24.911,-0.410,1.025,-0.129
24.921,-0.363,0.994,-0.041
24.930,-0.229,0.939,0.070
24.940,-0.422,1.207,0.107
24.950,-0.402,0.961,-0.002
24.960,-0.318,0.795,0.014
24.970,-0.510,0.598,0.020
24.980,-0.537,0.803,-0.010
24.990,-0.424,1.008,-0.064
25.000,-0.238,0.926,-0.049
25.010,-0.006,0.896,-0.025
25.020,-0.039,0.867,-0.039
25.030,-0.197,0.730,-0.029
25.040,-0.355,0.670,0.004
25.050,-0.285,0.744,-0.016
25.060,-0.326,0.789,-0.047
25.070,-0.324,0.775,-0.230
25.079,-0.129,1.057,-0.342
25.089,0.027,1.193,-0.189
25.099,0.137,1.168,0.080
25.109,-0.006,1.070,0.137
25.119,0.191,1.184,-0.053
25.129,0.191,1.045,-0.045
25.139,0.154,1.016,-0.100
25.149,0.033,1.070,-0.176
25.159,0.141,1.068,-0.221
25.169,0.322,0.982,-0.332
25.179,0.348,0.494,-0.369
25.189,0.557,0.803,-0.094
25.199,0.568,1.027,0.107
25.209,0.623,0.863,-0.172
25.219,-1.471,1.518,0.004
25.228,0.496,1.184,-0.449
25.238,0.373,0.641,-0.252
25.248,0.412,0.922,-0.254
25.258,0.492,0.971,-0.303
25.268,0.410,0.953,-0.219
25.278,0.400,0.801,-0.207
25.288,0.396,0.734,-0.213
25.298,0.387,0.891,-0.307
25.308,0.406,0.895,-0.268
25.318,0.342,0.869,-0.268
25.328,0.344,0.998,-0.277
25.338,0.381,0.922,-0.242
25.348,0.408,0.781,-0.260
25.358,0.410,0.730,-0.250
25.368,0.408,0.738,-0.223
25.377,0.457,0.889,-0.301
25.387,0.350,0.742,-0.232
25.397,0.348,0.742,-0.254
25.407,0.420,0.705,-0.234
25.417,0.537,0.822,-0.230
25.427,0.244,0.721,-0.223
25.437,0.439,0.922,-0.455
25.447,0.400,0.871,-0.117
25.457,0.590,0.789,-0.227
25.467,0.529,0.908,-0.211
25.477,0.402,0.799,-0.240
25.487,0.402,0.713,-0.230
25.497,0.473,0.838,-0.215
25.507,0.451,0.820,-0.221
25.517,0.467,0.838,-0.213
25.527,0.342,0.863,-0.244
25.536,0.158,0.891,-0.316
25.546,-0.076,1.008,-0.406
25.556,0.969,1.104,-0.320
25.566,0.564,0.855,-0.268
25.576,0.508,0.910,-0.225
25.586,0.611,1.055,-0.145
25.596,0.359,0.416,-0.295
25.606,0.363,0.750,-0.266
25.616,0.285,0.818,-0.297
25.626,0.422,1.014,-0.215
25.636,0.328,0.969,-0.334
25.646,0.225,0.896,-0.270
25.656,0.094,0.572,-0.324
25.666,0.195,0.621,-0.252
25.676,0.141,0.971,-0.301
25.685,-0.027,0.377,-0.746
25.695,0.211,0.992,0.150
25.705,0.006,0.900,-0.145
25.715,0.246,0.793,-0.221
25.725,0.281,0.898,-0.221
25.735,0.273,0.926,-0.139
25.745,0.211,1.047,-0.131
25.755,0.445,1.156,0.217
25.765,0.250,0.709,-0.434
25.775,0.182,0.514,-0.490
25.785,-0.307,-0.039,-2.010
25.795,0.457,1.055,-0.588
25.805,1.080,1.615,1.992
25.815,0.322,0.875,-0.537
25.825,0.066,0.742,-0.840
25.834,0.182,0.818,-0.498
25.844,0.369,0.914,0.061
25.854,0.254,0.959,-0.170
25.864,0.150,0.912,-0.436
25.874,0.162,0.873,-0.393
25.884,0.232,0.891,-0.209
25.894,0.334,0.910,-0.113
25.904,0.393,0.900,-0.191
25.914,0.369,0.838,-0.301
25.924,0.422,0.877,-0.342
25.934,0.305,0.980,-0.076
25.944,-0.195,0.795,-0.193
25.954,-0.145,0.793,-0.467
25.964,0.119,0.936,-0.293
25.974,0.316,0.887,-0.131
25.983,0.182,0.854,-0.295
25.993,0.129,0.883,-0.314
26.003,0.203,0.879,-0.250
26.013,0.225,0.865,-0.262
26.023,0.201,0.871,-0.270
26.033,0.201,0.871,-0.264
26.043,0.221,0.881,-0.256
26.053,0.213,0.893,-0.250
26.063,0.197,0.895,-0.244
26.073,0.176,0.889,-0.240
26.083,0.145,0.900,-0.248
26.093,0.123,0.893,-0.246
26.103,0.111,0.898,-0.252
26.113,0.100,0.881,-0.248
26.123,0.150,0.926,-0.244
26.133,0.146,0.934,-0.244
26.142,0.143,0.945,-0.238
26.152,0.139,0.955,-0.230
26.162,0.137,0.953,-0.221
26.172,0.143,0.957,-0.221
26.182,0.180,0.943,-0.215
26.192,0.227,0.920,-0.205
26.202,0.227,0.908,-0.199
26.212,0.184,0.906,-0.211
26.222,0.148,0.898,-0.213
26.232,0.150,0.902,-0.219
26.242,0.156,0.908,-0.211
26.252,0.176,0.930,-0.199
26.262,0.199,0.922,-0.193
26.272,0.225,0.910,-0.199
26.282,0.221,0.902,-0.223
26.291,0.217,0.867,-0.254
26.301,0.250,0.824,-0.275
26.311,0.311,0.850,-0.264
26.321,0.316,0.902,-0.252
26.331,0.289,0.914,-0.246
26.341,0.264,0.896,-0.225
26.351,0.254,0.883,-0.213
26.361,0.244,0.863,-0.221
26.371,0.244,0.852,-0.215
26.381,0.234,0.838,-0.213
26.391,0.217,0.832,-0.232
26.401,0.191,0.824,-0.242
26.411,0.168,0.797,-0.246
26.421,0.172,0.777,-0.264
26.431,0.215,0.820,-0.270
26.440,0.209,0.912,-0.270
26.450,0.156,0.936,-0.270
26.460,0.166,0.938,-0.264
26.470,0.211,0.943,-0.270
26.480,0.238,0.916,-0.264
26.490,0.248,0.883,-0.246
26.500,0.238,0.859,-0.248
26.510,0.213,0.850,-0.254
26.520,0.172,0.811,-0.268
26.530,0.160,0.793,-0.283
26.540,0.178,0.840,-0.297
26.550,0.184,0.889,-0.291
26.560,0.182,0.916,-0.287
26.570,0.193,0.924,-0.281
26.580,0.203,0.914,-0.268
26.589,0.197,0.924,-0.260
26.599,0.174,0.912,-0.260
26.609,0.154,0.900,-0.258
26.619,0.152,0.895,-0.260
26.629,0.184,0.898,-0.244
26.639,0.049,0.881,-0.385
26.649,0.148,0.926,-0.240
26.659,0.039,0.754,-0.201
26.669,0.361,0.889,-0.299
26.679,0.145,0.984,-0.312
26.689,0.115,0.949,-0.277
26.699,0.215,0.887,-0.244
26.709,0.178,0.818,-0.262
26.719,0.176,0.820,-0.268
26.729,0.146,0.857,-0.285
26.739,0.100,0.904,-0.324
26.748,0.100,0.957,-0.338
26.758,0.168,0.975,-0.293
26.768,0.172,0.930,-0.275
26.778,0.211,0.926,-0.270
26.788,0.178,0.928,-0.271
26.798,0.197,0.863,-0.258
26.808,0.180,0.840,-0.242
26.818,0.135,0.857,-0.254
26.828,0.092,0.855,-0.242
26.838,0.016,0.834,-0.299
26.848,0.137,0.844,-0.260
26.858,0.199,1.010,-0.295
26.868,0.250,0.969,-0.246
26.878,0.242,0.875,-0.246
26.888,0.238,0.906,-0.262
26.897,0.240,0.928,-0.268
26.907,0.193,0.941,-0.283
26.917,0.225,1.012,-0.252
26.927,0.186,0.910,-0.277
26.937,0.055,0.771,-0.275
26.947,0.197,0.812,-0.242
26.957,0.176,0.879,-0.279
26.967,0.109,0.891,-0.355
26.977,0.113,0.861,-0.342
26.987,0.213,0.855,-0.232
26.997,0.268,0.881,-0.215
27.007,0.234,0.881,-0.289
27.017,0.197,0.875,-0.273
27.027,0.111,0.828,-0.248
27.037,0.146,0.828,-0.260
27.046,0.137,0.838,-0.262
27.056,0.182,0.848,-0.283
27.066,0.232,1.029,-0.330
27.076,0.342,1.020,-0.338
27.086,0.238,0.900,-0.258
27.096,0.268,0.906,-0.299
27.106,0.232,0.908,-0.312
27.116,0.201,0.875,-0.291
27.126,0.193,0.889,-0.301
27.136,0.197,0.910,-0.289
27.146,0.113,0.912,-0.301
27.156,0.121,0.871,-0.309
27.166,0.131,0.848,-0.301
27.176,0.150,0.676,-0.260
27.186,0.123,0.891,-0.334
27.195,0.090,0.920,-0.297
27.205,0.096,0.863,-0.268
27.215,0.113,0.744,-0.150
27.225,0.105,0.844,-0.441
27.235,0.102,0.871,-0.377
27.245,0.203,0.896,-0.352
27.255,0.154,0.904,-0.391
27.265,0.150,0.869,-0.441
27.275,0.039,0.879,-0.406
27.285,0.074,0.861,-0.414
27.295,0.010,0.801,-0.436
27.305,-0.004,0.746,-0.455
27.315,0.053,0.762,-0.506
27.325,0.072,0.766,-0.389
27.335,0.170,0.883,-0.408
27.345,0.082,0.939,-0.469
27.354,0.125,0.879,-0.424
27.364,0.076,0.914,-0.518
27.374,0.098,0.854,-0.410
27.384,0.145,0.865,-0.428
27.394,0.068,0.836,-0.398
27.404,0.078,0.826,-0.412
27.414,0.172,0.855,-0.426
27.424,0.078,0.836,-0.393
27.434,0.072,0.801,-0.416
27.444,0.107,0.820,-0.398
27.454,0.033,0.748,-0.336
27.464,0.020,0.785,-0.523
27.474,-0.146,0.703,-0.277
27.484,0.096,0.768,-0.449
27.494,0.170,0.848,-0.406
27.503,0.053,0.812,-0.479
27.513,0.096,0.824,-0.561
27.523,0.094,0.789,-0.615
27.533,0.184,0.869,-0.639
27.543,0.150,0.816,-0.568
27.553,0.199,0.807,-0.477
27.563,0.090,0.764,-0.521
27.573,0.094,0.814,-0.529
27.583,0.125,0.793,-0.486
27.593,0.096,0.734,-0.549
27.603,0.131,0.754,-0.545
27.613,0.195,0.842,-0.488
27.623,0.098,0.609,-0.326
27.633,0.062,0.490,-0.199
27.643,0.209,0.785,-0.457
27.652,0.301,0.836,-0.527
27.662,0.510,0.996,-0.279
27.672,0.402,0.885,-0.244
27.682,0.367,0.807,-0.387
27.692,0.465,0.865,-0.355
27.702,0.469,0.924,-0.381
27.712,0.430,0.975,-0.480
27.722,0.367,0.891,-0.500
27.732,0.260,0.615,-0.014
27.742,0.314,0.697,-0.189
27.752,0.312,0.836,-0.502
27.762,0.234,0.777,-0.340
27.772,0.398,0.838,-0.266
27.782,0.301,0.789,-0.354
27.792,0.289,0.691,-0.193
27.802,0.246,0.850,-0.107
27.811,0.316,0.867,-0.506
27.821,0.348,0.906,-0.400
27.831,0.377,0.822,-0.168
27.841,0.307,0.811,-0.145
27.851,0.252,0.742,-0.277
27.861,0.492,0.811,-0.275
27.871,0.346,0.828,-0.285
27.881,0.359,0.869,-0.268
27.891,0.299,0.852,-0.266
27.901,0.232,0.842,-0.293
27.911,0.242,0.871,-0.307
27.921,0.217,0.801,-0.258
27.931,0.164,0.830,-0.299
27.941,0.148,0.809,-0.357
27.951,0.129,0.818,-0.305
27.960,0.264,0.824,-0.525
27.970,0.072,0.740,-0.361
27.980,0.199,0.926,-0.314
27.990,0.236,0.963,-0.375
28.000,0.189,0.871,-0.418
28.010,0.201,0.904,-0.387
28.020,0.123,0.811,-0.342
28.030,0.105,0.762,-0.314
28.040,0.154,0.826,-0.324
28.050,0.117,0.787,-0.377
28.060,0.145,0.830,-0.418
28.070,0.219,1.002,-0.605
28.080,0.191,0.824,-0.521
28.090,0.238,0.945,-0.420
28.100,0.238,0.924,-0.424
28.109,0.135,0.850,-0.424
28.119,0.014,0.775,-0.406
28.129,0.066,0.785,-0.365
28.139,0.125,0.826,-0.355
28.149,0.229,0.848,-0.383
28.159,0.293,0.893,-0.416
28.169,0.268,0.898,-0.410
28.179,0.270,0.850,-0.375
28.189,0.230,0.830,-0.367
28.199,0.291,0.936,-0.455
28.209,0.070,0.820,-0.615
28.219,0.061,0.832,-0.562
28.229,0.129,0.756,-0.367
28.239,0.176,0.693,-0.383
28.249,0.260,0.832,-0.461
28.258,0.377,0.795,-0.471
28.268,0.441,0.764,-0.506
28.278,0.365,0.920,-0.432
28.288,0.336,0.980,-0.434
28.298,0.053,0.910,-0.537
28.308,0.016,0.705,-0.502
28.318,-0.039,0.625,-0.504
28.328,-0.020,0.615,-0.541
28.338,-0.150,0.572,-0.553
28.348,-0.143,0.660,-0.549
28.358,0.094,0.896,-0.555
28.368,0.227,0.891,-0.562
28.378,0.406,0.816,-0.506
28.388,0.578,0.781,-0.369
28.398,0.479,0.695,-0.256
28.408,0.273,0.680,-0.338
28.417,0.172,0.779,-0.398
28.427,0.074,0.865,-0.469
28.437,-0.041,0.779,-0.541
28.447,-0.072,0.775,-0.537
28.457,0.043,0.895,-0.457
28.467,0.119,0.984,-0.283
28.477,0.201,1.025,-0.119
28.487,0.322,1.053,-0.133
28.497,0.422,1.018,-0.221
28.507,0.236,0.740,-0.338
28.517,0.182,0.920,-0.295
28.527,0.354,1.188,-0.170
28.537,0.109,1.080,-0.076
28.547,0.172,1.107,-0.109
28.557,0.041,0.889,-0.189
28.566,0.082,0.756,-0.232
28.576,-0.076,1.012,-0.273
28.586,-0.023,0.656,-0.383
28.596,-0.115,0.781,-0.426
28.606,0.293,1.170,-0.283
28.616,0.098,1.139,0.000
28.626,0.094,0.969,0.148
28.636,-0.012,0.740,0.123
28.646,-0.018,0.789,-0.107
28.656,-0.078,0.799,-0.211
28.666,-0.141,0.725,-0.062
28.676,-0.045,0.799,0.113
28.686,0.398,1.008,0.215
28.696,0.137,1.055,0.252
28.706,0.150,0.838,0.199
28.715,-0.084,0.777,0.006
28.725,-0.109,0.875,-0.223
28.735,-0.064,1.012,-0.271
28.745,-0.145,0.852,-0.166
28.755,-0.061,0.855,-0.109
28.765,0.021,0.869,-0.111
28.775,0.076,0.967,-0.057
28.785,0.154,1.012,0.029
28.795,0.398,1.062,0.084
28.805,0.516,1.545,0.238
28.815,0.258,0.879,0.283
28.825,0.379,0.928,0.281
28.835,0.354,1.115,0.178
28.845,0.285,1.100,0.158
28.855,0.217,1.162,0.098
28.864,0.535,0.846,-0.035
28.874,-1.984,1.375,0.855
28.884,0.695,0.250,0.150
28.894,0.125,0.205,-0.271
28.904,0.330,-0.400,0.344
28.914,-0.064,-0.109,0.324
28.924,0.246,2.049,0.371
28.934,-0.018,0.270,-0.223
28.944,0.213,0.969,-0.828
28.954,0.471,0.666,0.027
28.964,1.059,0.654,-0.781
28.974,0.672,0.615,-0.100
28.984,0.482,0.758,-0.246
28.994,0.812,1.139,-0.020
29.004,1.047,0.779,-0.664
29.014,0.594,0.988,-0.713
29.023,0.719,0.928,-0.764
29.033,0.430,0.719,-0.779
29.043,-0.924,-0.033,0.107
29.053,-0.805,0.428,1.197
29.063,0.479,0.564,1.033
29.073,0.727,1.053,0.035
29.083,0.982,1.033,-0.541
29.093,0.838,0.807,-0.373
29.103,0.615,0.965,-0.127
29.113,0.713,1.273,-0.168
29.123,1.000,0.818,-0.107
29.133,0.914,0.861,0.021
29.143,0.783,0.795,-0.143
29.153,0.699,0.814,-0.293
29.163,0.209,0.785,-0.240
29.172,-0.035,0.775,-0.125
29.182,0.264,0.820,-0.193
29.192,0.457,0.863,-0.299
29.202,0.348,0.805,-0.193
29.212,0.285,0.754,-0.201
29.222,0.314,0.740,-0.148
29.232,0.453,0.750,-0.002
29.242,0.514,0.748,-0.092
29.252,0.559,0.742,-0.258
29.262,0.529,0.740,-0.342
29.272,0.520,0.812,-0.270
29.282,0.477,0.803,-0.211
29.292,0.502,0.824,-0.215
29.302,0.471,0.775,-0.170
29.312,0.334,0.725,-0.164
29.321,0.297,0.742,-0.205
29.331,0.291,0.791,-0.268
29.341,0.357,0.770,-0.305
29.351,0.346,0.779,-0.547
29.361,0.301,0.869,-0.602
29.371,0.242,0.756,-0.412
29.381,1.342,0.615,0.291
29.391,1.109,0.758,0.107
29.401,0.648,0.709,0.061
29.411,0.322,0.695,0.301
29.421,0.400,0.807,-0.068
29.431,0.436,0.910,-0.406
29.441,0.205,0.922,-0.445
29.451,-0.270,0.914,-0.383
29.461,-0.268,0.953,-0.340
29.470,0.021,0.867,-0.309
29.480,0.188,0.801,-0.258
29.490,0.410,0.770,-0.023
29.500,0.934,0.791,0.285
29.510,0.914,0.723,0.775
29.520,1.035,0.693,1.072
29.530,1.043,0.707,0.797
29.540,0.785,0.691,0.486
29.550,0.523,0.738,0.324
29.560,0.381,0.998,0.164
29.570,0.027,1.258,-0.135
29.580,-0.674,2.443,-0.506
29.590,0.709,0.045,-0.275
29.600,0.795,-0.379,-0.348
29.610,0.418,1.688,0.010
29.620,1.043,0.162,1.982
29.629,0.674,0.979,0.158
29.639,0.523,0.572,0.287
29.649,0.021,0.521,0.127
29.659,0.078,1.176,0.402
29.669,0.211,1.090,0.455
29.679,-0.145,1.469,0.449
29.689,0.172,1.303,0.316
29.699,-0.209,0.842,-0.150
29.709,-0.072,0.893,-0.205
29.719,-0.295,0.932,-0.340
29.729,-0.121,0.809,0.201
29.739,-0.236,1.164,0.508
29.749,0.008,1.379,-0.307
29.759,-0.064,1.098,-0.088
29.769,0.000,0.861,0.184
29.778,-0.215,1.002,-0.088
29.788,-0.367,0.973,-0.119
29.798,-0.404,1.006,-0.109
29.808,0.066,1.320,-0.131
29.818,-0.674,0.451,-0.098
29.828,-0.338,0.793,0.139
29.838,-0.295,0.984,-0.070
29.848,-0.266,1.064,-0.088
29.858,-0.324,1.066,-0.146
29.868,-0.381,1.104,-0.139
29.878,-0.271,1.100,-0.201
29.888,-0.180,1.199,-0.322
29.898,-0.416,0.896,-0.352
29.908,-0.795,0.414,-0.396
29.918,-0.568,0.984,0.020
29.927,0.326,-1.064,0.266
29.937,-0.137,0.221,-0.031
29.947,-2.178,1.771,0.215
29.957,-0.377,0.555,0.227
29.967,-0.840,0.547,-0.012
29.977,-0.512,1.041,0.072
29.987,-0.285,0.861,-0.156
29.997,-0.471,0.559,0.129
30.007,-0.719,0.758,-0.398
30.017,-0.840,0.594,0.416
30.027,-0.234,1.102,0.225
30.037,-0.705,0.916,-0.047
30.047,-0.551,0.861,0.166
30.057,-0.494,0.846,0.238
30.067,-0.324,0.857,0.219
30.076,-0.473,0.781,0.049
30.086,-0.576,0.814,-0.016
30.096,-0.496,0.893,0.049
30.106,-0.439,0.838,-0.070
30.116,-0.488,1.010,-0.061
30.126,-0.562,0.828,0.000
30.136,-0.570,0.932,0.014
30.146,-0.494,0.770,-0.408
30.156,-0.123,0.875,-0.398
30.166,-0.490,0.984,0.213
30.176,-0.506,0.977,0.127
30.186,-0.393,0.908,0.240
30.196,-0.416,0.803,0.568
30.206,-0.533,0.850,0.287
30.216,-0.672,1.018,0.109
30.226,-0.549,0.871,-0.135
30.235,-0.482,0.814,-0.207
30.245,-0.438,0.504,0.188
30.255,-0.555,0.633,0.061
30.265,-0.752,0.979,0.047
30.275,-0.605,1.250,0.311
30.285,-0.666,1.047,-0.090
30.295,-0.600,0.967,-0.168
30.305,-0.221,0.746,0.305
30.315,-0.400,0.826,-0.150
30.325,0.035,0.367,0.121
30.335,-0.371,1.133,-0.350
30.345,-0.498,0.883,-0.193
30.355,-0.393,0.924,-0.047
30.365,-0.262,0.814,0.059
30.375,-0.195,0.916,-0.258
30.384,-0.186,0.893,-0.324
30.394,-0.049,0.846,-0.213
30.404,0.033,0.809,-0.217
30.414,-0.207,0.812,-0.301
30.424,-0.396,0.393,-0.402
30.434,-0.160,0.730,-0.395
30.444,0.689,0.965,-0.318
30.454,1.020,1.332,-0.420
30.464,0.273,1.689,-1.717
30.474,0.129,0.859,-0.551
30.484,0.291,0.598,-0.199
30.494,0.418,0.311,-0.486
30.504,0.404,0.316,-0.709
30.514,0.078,0.445,-0.582
30.524,0.066,0.582,-0.771
30.533,0.154,0.646,-0.715
30.543,0.248,0.555,-0.543
30.553,0.316,0.508,-0.406
30.563,0.312,0.477,-0.393
30.573,0.240,0.447,-0.469
30.583,0.350,0.613,-0.564
30.593,0.180,0.545,-0.637
30.603,0.213,0.320,-0.531
30.613,0.303,0.195,-0.361
30.623,0.354,0.396,-0.434
30.633,0.441,0.523,-0.316
30.643,0.682,0.865,-0.193
30.653,0.902,0.883,-0.018
30.663,0.908,0.947,0.027
30.673,0.746,0.896,-0.102
30.683,0.711,0.992,0.023
30.692,0.758,1.090,0.016
30.702,0.920,1.152,-0.109
30.712,0.699,0.883,-0.285
30.722,0.387,0.582,-0.396
30.732,-0.010,0.443,-0.627
30.742,0.238,0.547,-0.789
30.752,0.023,0.477,-0.506
30.762,-0.223,0.404,-0.518
30.772,-0.268,0.398,-0.523
30.782,-0.107,0.557,-0.574
30.792,0.016,0.660,-0.619
30.802,0.141,0.865,-0.670
30.812,0.150,0.756,-0.623
30.822,0.289,0.691,-0.564
30.832,0.152,0.562,-0.551
30.841,0.002,0.461,-0.523
30.851,-0.111,0.432,-0.662
30.861,-0.053,0.539,-0.832
30.871,0.133,0.719,-0.939
30.881,0.201,1.008,-0.971
30.891,0.148,1.156,-0.852
30.901,0.256,1.094,-0.625
30.911,0.398,1.012,-0.488
30.921,0.314,1.029,-0.500
30.931,0.234,1.148,-0.533
30.941,0.209,1.174,-0.498
30.951,0.139,1.125,-0.510
30.961,0.121,1.053,-0.602
30.971,0.102,0.959,-0.705
30.981,0.102,0.887,-0.744
30.990,0.162,0.852,-0.709
31.000,0.203,0.834,-0.676
31.010,0.221,0.807,-0.646
31.020,0.195,0.760,-0.604
31.030,0.158,0.578,-0.502
31.040,0.240,0.588,-0.459
31.050,0.359,0.609,-0.504
31.060,0.283,0.609,-0.557
31.070,0.158,0.744,-0.566
31.080,0.209,0.699,-0.449
31.090,0.246,0.607,-0.254
31.100,0.297,0.615,-0.199
31.110,0.113,0.750,-0.418
31.120,0.158,0.773,-0.605
31.130,0.129,0.674,-0.674
31.139,0.068,0.619,-0.652
31.149,0.088,0.658,-0.570
31.159,0.086,0.795,-0.510
31.169,0.129,0.850,-0.486
31.179,0.178,0.807,-0.490
31.189,0.168,0.740,-0.518
31.199,0.182,0.756,-0.537
31.209,0.201,0.773,-0.516
31.219,0.221,0.766,-0.502
31.229,0.207,0.744,-0.523
31.239,0.219,0.629,-0.521
31.249,0.184,0.615,-0.545
31.259,0.174,0.668,-0.566
31.269,0.207,0.711,-0.541
31.279,0.232,0.791,-0.488
31.289,0.242,0.846,-0.434
31.298,0.271,0.881,-0.420
31.308,0.277,0.854,-0.428
31.318,0.232,0.799,-0.459
31.328,0.188,0.797,-0.527
31.338,0.166,0.822,-0.584
31.348,0.145,0.861,-0.545
31.358,0.240,0.904,-0.518
31.368,0.221,0.941,-0.492
31.378,0.148,0.955,-0.506
31.388,0.111,0.938,-0.492
31.398,0.143,0.910,-0.480
31.408,0.203,0.924,-0.475
31.418,0.172,1.008,-0.496
31.428,0.158,0.947,-0.430
31.438,0.045,0.873,-0.404
31.447,-0.166,0.762,-0.414
31.457,-0.252,0.615,-0.406
31.467,-0.238,0.588,-0.420
31.477,-0.098,0.699,-0.496
31.487,-0.264,0.648,-0.461
31.497,-0.352,0.658,-0.473
31.507,-0.379,0.980,-0.547
31.517,-0.066,1.037,-0.453
31.527,0.062,1.020,-0.172
31.537,0.061,1.043,0.023
31.547,0.098,1.197,0.000
31.557,0.096,1.127,0.064
31.567,-0.037,0.838,0.105
31.577,0.258,1.188,0.117
31.587,0.049,0.691,0.100
31.596,0.064,0.871,0.215
31.606,-0.455,1.514,0.088
31.616,0.129,1.389,0.021
31.626,0.164,1.080,0.104
31.636,0.096,0.785,0.238
31.646,0.096,0.785,0.154
31.656,-0.102,0.707,-0.139
31.666,-0.299,0.598,-0.398
31.676,-0.209,0.787,-0.465
31.686,-0.010,0.857,-0.238
31.696,-0.016,0.836,-0.027
31.706,-0.006,0.855,0.053
31.716,-0.012,0.809,0.053
31.726,-0.041,0.885,-0.080
31.736,-0.131,1.033,-0.287
31.745,-0.354,1.146,-0.422
31.755,-0.332,1.193,-0.408
31.765,-0.227,1.205,-0.377
31.775,-0.250,1.047,-0.279
31.785,-0.195,0.848,0.049
31.795,-0.312,0.736,0.303
31.805,-0.186,0.932,0.195
31.815,0.000,1.041,0.176
31.825,-0.184,0.936,0.219
31.835,-0.232,0.914,0.084
31.845,-0.205,0.879,0.045
31.855,-0.102,1.023,0.039
31.865,-0.246,1.186,0.121
31.875,-0.252,0.953,0.078
31.885,-0.166,0.838,0.039
31.895,-0.545,0.758,-0.131
31.904,-0.158,0.738,-0.336
31.914,-0.350,0.941,-0.404
31.924,-0.549,1.055,-0.322
31.934,-0.191,1.016,-0.143
31.944,-0.438,0.818,-0.072
31.954,-0.254,0.869,-0.072
31.964,0.174,0.883,0.260
31.974,0.070,0.809,0.283
31.984,-0.348,0.535,0.221
31.994,-0.451,0.508,0.268
32.004,-0.449,0.814,0.354
32.014,-0.514,1.119,0.096
32.024,-0.447,1.535,-0.285
32.034,-0.225,1.078,-0.592
32.044,-0.361,1.166,-0.346
32.053,-0.590,1.156,-0.047
32.063,-0.209,1.010,0.164
32.073,0.230,0.793,0.789
32.083,-0.393,0.715,-0.848
32.093,-0.633,0.596,-0.922
32.103,-0.342,0.787,-0.305
32.113,-0.170,0.914,0.135
32.123,-0.311,1.256,0.721
32.133,-0.484,1.090,0.416
32.143,-0.385,1.002,0.207
32.153,-0.508,0.906,-0.051
32.163,-0.588,0.734,-0.111
32.173,-0.518,0.762,-0.164
32.183,-0.357,0.928,-0.279
32.193,-0.438,0.977,-0.318
32.202,-0.488,0.822,-0.369
32.212,-0.500,0.848,-0.445
32.222,-0.561,0.803,-0.539
32.232,-0.586,0.740,-0.619
32.242,-0.570,0.678,-0.664
32.252,-0.619,0.592,-0.541
32.262,-0.613,0.643,-0.355
32.272,-0.617,0.705,-0.244
32.282,-0.682,0.648,-0.221
32.292,-0.746,0.543,-0.240
32.302,-0.807,0.500,-0.260
32.312,-0.795,0.656,-0.291
32.322,-0.812,0.730,-0.227
32.332,-0.840,0.676,-0.219
32.342,-0.842,0.645,-0.293
32.351,-0.857,0.512,-0.297
32.361,-0.836,0.422,-0.305
32.371,-0.812,0.355,-0.270
32.381,-0.771,0.365,-0.191
32.391,-0.705,0.334,-0.139
32.401,-0.639,0.328,-0.119
32.411,-0.605,0.281,-0.037
32.421,-0.695,0.379,-0.094
32.431,-0.771,0.445,-0.088
32.441,-0.803,0.445,-0.117
32.451,-0.793,0.482,-0.119
32.461,-0.869,0.332,-0.156
32.471,-0.893,0.354,-0.176
32.481,-1.191,0.350,-0.285
32.491,-1.057,0.482,-0.316
32.501,-1.057,0.432,-0.229
32.510,-1.072,0.428,-0.314
32.520,-1.033,0.336,-0.225
32.530,-0.938,0.461,-0.121
32.540,-0.947,0.463,-0.098
32.550,-0.941,0.336,-0.117
32.560,-0.947,0.297,-0.160
32.570,-1.002,0.287,-0.131
32.580,-0.945,0.254,-0.133
32.590,-0.932,0.338,-0.072
32.600,-0.969,0.393,-0.111
32.610,-0.961,0.396,-0.076
32.620,-0.969,0.494,-0.057
32.630,-0.943,0.557,-0.047
32.640,-0.908,0.473,-0.055
32.650,-0.896,0.473,-0.021
32.659,-0.879,0.350,-0.047
32.669,-0.891,0.338,-0.076
32.679,-0.855,0.355,-0.041
32.689,-0.814,0.477,-0.008
32.699,-0.840,0.510,0.027
32.709,-0.918,0.688,0.045
32.719,-0.900,0.732,-0.006
32.729,-0.855,0.822,-0.107
32.739,-0.842,0.807,0.066
32.749,-0.777,0.686,0.068
32.759,-0.730,0.654,0.074
32.769,-0.766,0.613,-0.018
32.779,-0.738,0.559,-0.002
32.789,-0.730,0.555,-0.141
32.799,-0.666,0.771,0.154
32.808,-0.688,0.826,0.090
32.818,-0.678,0.955,-0.008
32.828,-0.643,0.871,0.049
32.838,-0.537,0.770,-0.023
32.848,-0.525,0.658,0.041
32.858,-0.586,0.561,-0.076
32.868,-0.498,0.607,0.078
32.878,-0.506,0.689,0.084
32.888,-0.531,0.736,0.039
32.898,-0.557,0.865,0.047
32.908,-0.623,0.887,-0.020
32.918,-0.590,0.932,0.012
32.928,-0.584,0.922,-0.006
32.938,-0.541,0.797,-0.047
32.948,-0.576,0.639,-0.148
32.957,-0.643,0.570,-0.416
32.967,-2.656,1.406,-3.666
32.977,-0.238,1.506,0.924
32.987,-0.607,0.732,0.219
32.997,-0.562,0.791,0.176
33.007,-0.572,0.750,0.166
33.017,-0.521,0.828,0.178
33.027,-0.523,0.779,0.176
33.037,-0.592,0.742,0.137
33.047,-0.629,0.689,0.064
33.057,-0.688,0.658,0.061
33.067,-0.645,0.656,0.129
33.077,-0.666,0.609,0.129
33.087,-0.744,0.705,0.102
33.097,-0.777,0.766,0.174
33.107,-0.818,0.744,0.111
33.116,-0.781,0.812,0.182
33.126,-0.814,0.541,0.107
33.136,-0.738,0.477,0.111
33.146,-0.637,0.689,0.150
33.156,-0.730,0.898,0.135
33.166,-0.834,1.035,-0.014
33.176,-0.861,0.779,0.193
33.186,-0.873,0.633,0.178
33.196,-0.873,0.520,0.127
33.206,-0.893,0.631,0.072
33.216,-0.688,0.637,0.102
33.226,-0.664,0.635,0.035
33.236,-0.738,0.645,0.096
33.246,-0.775,0.697,0.047
33.256,-0.715,0.705,0.066
33.265,-0.732,0.689,0.055
33.275,-0.750,0.471,0.037
33.285,-0.689,0.521,-0.109
33.295,-0.615,0.625,-0.055
33.305,-0.564,0.504,0.021
33.315,-0.475,0.572,0.059
33.325,-0.312,0.527,0.033
33.335,-0.668,1.365,0.129
33.345,-0.191,0.621,-0.129
33.355,-0.828,1.182,0.137
33.365,-0.578,1.113,0.051
33.375,-0.260,0.963,0.041
33.385,-2.240,0.416,1.963
33.395,0.029,1.021,-0.785
33.405,-0.832,0.904,0.244
33.414,-0.248,0.951,0.223
33.424,-0.428,0.926,0.080
33.434,-0.391,0.820,0.066
33.444,-0.361,0.926,0.217
33.454,-0.564,0.979,0.215
33.464,-0.477,0.941,0.125
33.474,-0.371,1.057,0.219
33.484,-0.373,0.932,0.119
33.494,-0.574,0.906,0.021
33.504,-0.625,0.965,0.088
33.514,-0.506,1.068,0.229
33.524,-0.018,0.816,0.180
33.534,-0.373,0.740,0.111
33.544,-0.533,0.951,0.129
33.554,-0.447,0.977,0.180
33.564,-0.551,0.889,0.166
33.573,-0.494,0.805,0.211
33.583,-0.600,0.908,0.164
33.593,-0.547,0.996,0.273
33.603,-0.453,0.857,0.281
33.613,-0.311,0.787,-0.041
33.623,-0.258,0.623,-0.162
33.633,-0.180,1.367,0.182
33.643,-0.746,1.072,0.510
33.653,-0.648,0.877,0.266
33.663,-0.273,0.852,0.074
33.673,-0.244,0.754,0.131
33.683,-0.443,0.908,0.232
33.693,-0.529,0.865,0.199
33.703,-0.449,0.555,-0.062
33.713,-0.385,0.814,0.186
33.722,-0.551,0.920,0.256
33.732,-0.412,0.994,0.213
33.742,-0.342,0.861,0.215
33.752,-0.490,0.832,0.189
33.762,-0.514,0.885,0.211
33.772,-0.465,0.865,0.213
33.782,-0.434,0.809,0.184
33.792,-0.400,0.855,0.184
33.802,-0.428,0.891,0.236
33.812,-0.441,0.922,0.229
33.822,-0.496,0.953,0.262
33.832,-0.582,0.938,0.227
33.842,-0.588,0.873,0.182
33.852,-0.586,0.789,0.182
33.862,-0.543,0.787,0.154
33.871,-0.498,0.865,0.162
33.881,-0.562,0.863,0.143
33.891,-0.668,0.861,0.213
33.901,-0.654,0.787,-0.268
33.911,-0.508,0.885,0.332
33.921,-0.430,0.846,0.191
33.931,-0.492,0.818,0.244
33.941,-0.504,0.812,0.252
33.951,-0.496,0.916,0.141
33.961,-0.459,0.846,0.229
33.971,-0.432,0.838,0.229
33.981,-0.424,0.818,0.256
33.991,-0.367,0.840,0.195
34.001,-0.457,0.861,0.232
34.011,-0.420,0.889,0.205
34.020,-0.420,0.869,0.232
34.030,-0.531,0.955,0.248
34.040,-0.432,0.869,0.252
34.050,-0.312,0.957,0.246
34.060,-0.615,0.941,0.305
34.070,-0.414,0.844,0.205
34.080,-0.451,0.859,0.230
34.090,-0.391,0.926,0.236
34.100,-0.340,0.996,0.301
34.110,-0.338,1.139,0.268
34.120,-0.355,0.816,0.178
34.130,-0.375,0.715,0.127
34.140,-0.381,0.822,0.162
34.150,-0.533,0.814,0.221
34.160,-0.537,0.846,0.205
34.170,-0.428,0.828,0.184
34.179,-0.338,0.768,0.107
34.189,-0.373,0.807,0.168
34.199,-0.299,0.910,0.152
34.209,-0.277,0.924,0.152
34.219,-0.318,0.885,0.158
34.229,-0.348,0.916,0.176
34.239,-0.264,0.828,0.107
34.249,-0.275,0.832,0.061
34.259,-0.385,0.854,0.123
34.269,-0.443,0.912,0.139
34.279,-0.428,0.969,0.133
34.289,-0.416,1.004,0.139
34.299,-0.428,0.953,0.129
34.309,-0.381,0.904,0.107
34.319,-0.266,1.006,0.135
34.328,-0.281,1.002,0.109
34.338,-0.355,1.027,0.176
34.348,-0.477,0.922,0.053
34.358,-0.508,0.906,0.137
34.368,-0.449,0.877,0.127
34.378,-0.410,0.836,0.117
34.388,-0.467,0.828,0.111
34.398,-0.443,0.910,0.115
34.408,-0.426,0.932,0.105
34.418,-0.375,0.889,0.129
34.428,-0.605,1.314,0.053
34.438,-0.334,0.740,0.672
34.448,-0.221,0.846,0.051
34.458,-0.504,0.930,0.131
34.468,-0.318,0.975,0.068
34.477,-0.102,1.043,0.164
34.487,-0.242,1.113,0.143
34.497,-0.447,0.955,0.111
34.507,-0.355,0.861,0.068
34.517,-0.311,0.936,0.137
34.527,-0.336,1.008,0.119
34.537,-0.338,0.932,0.123
34.547,-0.289,0.896,0.104
34.557,-0.289,0.910,0.119
34.567,-0.336,0.924,0.125
34.577,-0.336,0.885,0.133
34.587,-0.285,0.881,0.131
34.597,-0.342,0.934,0.127
34.607,-0.240,0.959,0.131
34.617,-0.205,0.965,0.105
34.626,-0.318,0.926,0.068
34.636,-0.387,0.916,0.100
34.646,-0.361,0.889,0.088
34.656,-0.385,0.926,0.092
34.666,-0.383,0.938,0.088
34.676,-0.340,0.930,0.100
34.686,-0.326,0.904,0.115
34.696,-0.295,0.949,0.084
34.706,-0.383,0.834,0.156
34.716,-0.438,0.715,0.113
34.726,-0.414,0.732,0.086
34.736,-0.320,0.955,0.123
34.746,-0.266,1.023,0.127
34.756,-0.229,1.031,0.115
34.766,-0.318,0.957,0.109
34.776,-0.193,0.998,0.107
34.785,-0.250,0.900,0.109
34.795,-0.230,0.934,0.074
34.805,-0.223,0.949,0.082
34.815,-0.352,0.824,0.088
34.825,-0.160,0.949,0.029
34.835,-0.201,0.871,-0.111
34.845,-0.217,1.057,0.043
34.855,-0.285,1.016,0.043
34.865,-0.199,1.068,0.012
34.875,-0.209,1.070,0.033
34.885,-0.297,0.984,0.025
34.895,-0.299,0.910,-0.010
34.905,-0.240,0.941,0.053
34.915,-0.195,0.979,0.053
34.925,-0.207,0.936,0.043
34.934,-0.113,1.006,0.066
34.944,-0.230,0.895,0.062
34.954,-0.244,0.977,0.090
34.964,-0.178,0.928,0.064
34.974,-0.199,0.926,0.053
34.984,-0.238,0.947,0.061
34.994,-0.238,0.957,0.059
35.004,-0.312,0.975,0.102
35.014,-0.215,1.033,0.078
35.024,-0.178,1.002,0.129
35.034,-0.301,0.875,0.184
35.044,-0.535,0.980,0.129
35.054,0.039,0.959,0.078
35.064,0.031,0.900,0.096
35.074,-0.221,0.936,0.127
35.083,-0.293,1.039,0.088
35.093,-0.211,0.877,0.115
35.103,-0.244,0.693,0.191
35.113,-0.270,0.961,0.115
35.123,-0.172,0.885,0.104
35.133,-0.139,0.922,0.135
35.143,-0.182,0.965,0.166
35.153,-0.236,1.037,0.086
35.163,-0.328,0.986,0.217
35.173,-0.361,0.988,0.146
35.183,-0.330,0.865,0.172
35.193,-0.246,0.949,0.111
35.203,-0.213,0.963,0.133
35.213,-0.227,0.957,0.105
35.223,-0.221,0.926,0.123
35.232,-0.268,0.895,0.129
35.242,-0.268,0.893,0.125
35.252,-0.270,0.922,0.125
35.262,-0.318,0.875,0.125
35.272,-0.227,0.941,0.088
35.282,-0.121,0.947,0.094
35.292,-0.221,0.998,0.129
35.302,-0.279,1.016,0.145
35.312,-0.400,0.908,0.084
35.322,-0.367,0.924,0.098
35.332,-0.344,0.938,0.070
35.342,-0.479,0.895,0.096
35.352,-0.412,0.854,0.084
35.362,-0.318,0.922,0.100
35.372,-0.436,0.873,0.145
35.382,-0.262,0.889,0.086
35.391,-0.387,0.895,0.125
35.401,-0.287,0.898,0.119
35.411,-0.297,0.922,0.123
35.421,-0.336,0.949,0.148
35.431,-0.322,0.986,0.111
35.441,-0.338,1.004,0.123
35.451,-0.170,1.219,0.234
35.461,-0.344,0.961,0.105
35.471,-0.383,0.939,0.109
35.481,-0.408,0.945,0.180
35.491,-0.385,0.902,0.176
35.501,-0.381,0.920,0.145
35.511,-0.369,0.766,0.102
35.521,-0.404,0.691,0.072
35.531,-0.373,0.865,0.100
35.540,-0.389,0.867,0.133
35.550,-0.322,0.941,0.135
35.560,-0.344,0.889,0.125
35.570,-0.348,0.967,0.148
35.580,-0.371,0.863,0.117
35.590,-0.400,0.898,0.133
35.600,-0.459,0.871,0.137
35.610,-0.428,0.898,0.131
35.620,-0.363,0.895,0.148
35.630,-0.395,0.943,0.143
35.640,-0.312,0.934,0.137
35.650,-0.424,0.883,0.121
35.660,-0.438,0.826,0.084
35.670,-0.377,0.854,0.164
35.680,-0.299,0.979,0.080
35.689,-0.443,0.949,0.119
35.699,-0.074,1.107,0.131
35.709,-0.404,0.957,0.088
35.719,-0.254,0.994,0.121
35.729,-0.297,0.932,0.121
35.739,-0.355,0.949,0.123
35.749,-0.328,0.924,0.135
35.759,-0.510,1.023,0.023
35.769,-0.361,0.918,0.139
35.779,-0.340,0.865,0.098
35.789,-0.289,0.900,0.125
35.799,-0.316,0.906,0.141
35.809,-0.303,0.885,0.127
35.819,-0.213,0.900,0.150
35.829,-0.334,0.914,0.162
35.838,-0.297,0.979,0.119
35.848,-0.395,0.527,-0.133
35.858,-0.227,1.203,0.402
35.868,-0.248,1.168,0.109
35.878,-0.297,0.943,0.072
35.888,-0.234,0.943,0.125
35.898,-0.275,0.832,0.160
35.908,-0.281,0.775,0.070
35.918,-0.199,0.904,0.109
35.928,-0.268,0.980,0.121
35.938,-0.295,0.980,0.143
35.948,-0.271,0.943,0.156
35.958,-0.283,0.928,0.143
35.968,-0.391,0.945,0.178
35.978,-0.168,1.195,0.076
35.988,-0.203,0.971,0.270
35.997,-0.242,0.926,0.164
36.007,-0.318,0.846,0.096
36.017,-0.285,0.959,0.068
36.027,-0.211,0.928,0.145
36.037,-0.186,1.090,0.176
36.047,-0.266,0.963,0.158
36.057,-0.271,0.977,0.133
36.067,-0.311,0.953,0.148
36.077,-0.270,0.936,0.117
36.087,-0.277,0.908,0.139
36.097,-0.277,0.928,0.152
36.107,-0.275,0.963,0.170
36.117,-0.244,0.914,0.166
36.127,-0.230,0.975,0.152
36.137,-0.277,0.990,0.152
36.146,-0.270,0.922,0.119
36.156,-0.293,1.053,0.164
36.166,-0.328,0.955,0.129
36.176,-0.293,0.975,0.150
36.186,-0.299,0.947,0.158
36.196,-0.307,0.986,0.186
36.206,-0.322,0.900,0.150
36.216,-0.320,0.908,0.115
36.226,-0.285,0.830,0.125
36.236,-0.221,0.943,0.156
36.246,-0.262,0.949,0.174
36.256,-0.240,0.963,0.176
36.266,-0.227,0.910,0.154
36.276,-0.377,0.818,0.162
36.286,-0.211,0.898,0.145
36.295,-0.291,0.852,0.184
36.305,-0.332,0.891,0.158
36.315,-0.260,0.902,0.139
36.325,-0.316,0.957,0.143
36.335,-0.311,0.930,0.178
36.345,-0.242,0.943,0.139
36.355,-0.262,0.938,0.150
36.365,-0.234,0.982,0.148
36.375,-0.213,0.957,0.162
36.385,-0.189,0.941,0.146
36.395,-0.266,0.930,0.143
36.405,-0.248,0.939,0.127
36.415,-0.291,0.938,0.119
36.425,-0.289,0.908,0.129
36.435,-0.289,0.928,0.154
36.444,-0.311,0.957,0.145
36.454,-0.270,0.924,0.152
36.464,-0.320,0.963,0.174
36.474,-0.322,0.943,0.127
36.484,-0.328,0.912,0.146
36.494,-0.350,0.906,0.119
36.504,-0.344,0.953,0.156
36.514,-0.391,0.895,0.170
36.524,-0.318,0.932,0.123
36.534,-0.291,0.900,0.127
36.544,-0.428,0.855,0.150
36.554,-0.357,0.926,0.156
36.564,-0.338,0.914,0.152
36.574,-0.297,0.977,0.152
36.584,-0.318,0.930,0.131
36.594,-0.320,0.975,0.119
36.603,-0.307,0.979,0.102
36.613,-0.357,0.945,0.145
36.623,-0.287,0.943,0.150
36.633,-0.268,0.900,0.117
36.643,-0.246,0.941,0.137
36.653,-0.248,0.930,0.158
36.663,-0.242,0.939,0.172
36.673,-0.230,0.949,0.170
36.683,-0.262,0.934,0.148
36.693,-0.232,0.939,0.172
36.703,-0.223,0.943,0.172
36.713,-0.266,0.941,0.141
36.723,-0.215,0.908,0.113
36.733,-0.270,0.863,0.105
36.743,-0.316,0.900,0.121
36.752,-0.281,0.936,0.160
36.762,-0.309,1.031,0.145
36.772,-0.301,0.967,0.104
36.782,-0.268,0.998,0.100
36.792,-0.287,0.957,0.145
36.802,-0.236,0.963,0.139
36.812,-0.357,0.902,0.105
36.822,-0.418,0.873,0.105
36.832,-0.232,1.041,0.123
36.842,-0.305,0.965,0.070
36.852,-0.355,1.035,0.092
36.862,-0.207,0.896,0.053
36.872,-0.180,0.895,0.215
36.882,-0.209,0.977,0.125
36.892,-0.262,0.965,0.115
36.901,-0.209,0.984,0.135
36.911,-0.193,0.979,0.111
36.921,-0.191,0.926,0.123
36.931,-0.252,0.998,0.143
36.941,-0.244,0.982,0.141
36.951,-0.217,0.951,0.131
36.961,-0.246,0.854,0.111
36.971,-0.277,0.932,0.133
36.981,-0.184,0.994,0.143
36.991,-0.150,1.047,0.170
37.001,-0.260,0.959,0.150
37.011,-0.264,0.949,0.131
37.021,-0.268,0.975,0.168
37.031,-0.275,0.779,0.078
37.041,-0.279,0.963,0.158
37.051,-0.371,0.941,0.109
37.060,-0.344,0.988,0.098
37.070,-0.219,0.941,0.111
37.080,-0.234,0.924,0.098
37.090,-0.244,1.047,0.117
37.100,-0.119,0.969,0.135
37.110,-0.305,0.932,0.090
37.120,-0.238,0.887,0.105
37.130,-0.461,0.789,0.115
37.140,-0.119,0.957,0.117
37.150,-0.189,0.936,0.107
37.160,-0.242,0.961,0.117
37.170,-0.320,0.994,0.146
37.180,-0.395,0.936,0.121
37.190,-0.318,0.953,0.125
37.200,-0.361,0.887,0.098
37.209,-0.365,0.865,0.107
37.219,-0.412,0.924,0.111
37.229,-0.332,0.869,0.104
37.239,-0.410,0.943,0.113
37.249,-0.363,0.924,0.113
37.259,-0.312,0.955,0.121
37.269,-0.354,0.912,0.135
37.279,-0.352,0.877,0.115
37.289,-0.350,0.936,0.131
37.299,-0.301,0.967,0.141
37.309,-0.314,0.986,0.125
37.319,-0.305,0.965,0.066
37.329,-0.387,0.879,0.141
37.339,-0.314,0.922,0.135
37.349,-0.346,0.883,0.107
37.358,-0.312,0.967,0.127
37.368,-0.262,1.016,0.133
37.378,-0.207,0.965,0.115
37.388,-0.248,0.959,0.139
37.398,-0.283,0.963,0.129
37.408,-0.240,0.994,0.125
37.418,-0.289,0.906,0.131
37.428,-0.314,0.971,0.174
37.438,-0.379,0.955,0.123
37.448,-0.320,0.920,0.078
37.458,-0.359,0.887,0.107
37.468,-0.357,0.926,0.129
37.478,-0.305,0.945,0.160
37.488,-0.234,0.926,0.143
37.498,-0.205,0.934,0.125
37.507,-0.277,0.869,0.086
37.517,-0.191,0.957,0.117
37.527,-0.252,0.947,0.113
37.537,-0.285,0.990,0.160
37.547,-0.287,0.994,0.174
37.557,-0.301,0.979,0.176
37.567,-0.244,0.928,0.141
37.577,-0.189,0.992,0.117
37.587,-0.213,0.953,0.031
37.597,-0.139,0.521,0.877
37.607,-0.236,0.914,-0.082
37.617,-0.338,1.023,0.223
37.627,-0.182,0.967,0.113
37.637,-0.248,0.979,0.143
37.647,-0.242,0.979,0.131
37.657,-0.275,0.980,0.137
37.666,-0.252,0.973,0.109
37.676,-0.252,0.955,0.121
37.686,-0.326,0.928,0.133
37.696,-0.305,0.908,0.137
37.706,-0.236,0.922,0.135
37.716,-0.248,0.936,0.135
37.726,-0.266,0.924,0.146
37.736,-0.250,0.916,0.135
37.746,-0.260,0.928,0.133
37.756,-0.279,0.926,0.125
37.766,-0.246,0.947,0.127
37.776,-0.289,0.938,0.152
37.786,-0.369,0.797,0.088
37.796,-0.074,1.143,0.348
37.806,-0.301,0.934,0.111
37.815,-0.279,0.941,0.117
37.825,-0.207,0.926,0.137
37.835,-0.248,0.920,0.135
37.845,-0.275,0.947,0.143
37.855,-0.270,0.945,0.154
37.865,-0.293,0.947,0.146
37.875,-0.271,0.941,0.133
37.885,-0.223,0.926,0.158
37.895,-0.326,0.900,0.168
37.905,-0.264,0.957,0.139
37.915,-0.230,0.936,0.139
37.925,-0.375,0.922,0.172
37.935,-0.295,0.914,0.139
37.945,-0.076,1.115,0.109
37.955,-0.166,0.945,0.145
37.964,-0.178,0.949,0.125
37.974,-0.266,0.947,0.146
37.984,-0.328,0.916,0.158
37.994,-0.320,0.941,0.143
38.004,-0.221,0.926,0.146
38.014,-0.297,0.961,0.168
38.024,-0.283,0.959,0.145
38.034,-0.236,0.973,0.141
38.044,-0.256,0.982,0.135
38.054,-0.256,0.926,0.143
38.064,-0.266,0.941,0.143
38.074,-0.355,0.896,0.184
38.084,-0.266,0.934,0.145
38.094,-0.197,0.961,0.141
38.104,-0.199,0.924,0.119
38.113,-0.184,0.900,0.115
38.123,-0.268,0.984,0.145
38.133,-0.250,0.967,0.148
38.143,-0.309,0.900,0.170
38.153,-0.266,0.980,0.160
38.163,-0.312,0.932,0.148
38.173,-0.342,0.975,0.137
38.183,-0.264,0.945,0.127
38.193,-0.324,0.914,0.158
38.203,-0.258,0.920,0.162
38.213,-0.186,0.963,0.117
38.223,-0.252,0.904,0.131
38.233,-0.318,0.943,0.158
38.243,-0.248,0.984,0.148
38.253,-0.314,0.928,0.141
38.263,-0.254,0.922,0.123
38.272,-0.252,0.996,0.143
38.282,-0.309,0.922,0.139
38.292,-0.293,0.906,0.150
38.302,-0.328,0.885,0.150
38.312,-0.324,0.918,0.129
38.322,-0.320,0.945,0.154
38.332,-0.639,1.010,0.203
38.342,-0.330,1.014,0.162
38.352,-0.430,1.055,0.197
38.362,-0.230,0.949,0.148
38.372,-0.303,0.932,0.125
38.382,-0.340,0.916,0.166
38.392,-0.236,0.869,0.135
38.402,-0.213,0.893,0.137
38.412,-0.191,0.873,0.127
38.421,-0.232,0.930,0.148
38.431,-0.225,0.957,0.125
38.441,-0.182,0.951,0.133
38.451,-0.211,0.994,0.170
38.461,-0.055,1.092,0.139
38.471,-0.158,1.031,0.145
38.481,-0.195,0.953,0.135
38.491,-0.318,0.957,0.180
38.501,-0.375,0.854,0.113
38.511,-0.379,0.857,0.133
38.521,-0.441,0.826,0.156
38.531,-0.396,0.955,0.172
38.541,-0.234,0.982,0.123
38.551,-0.293,1.039,0.158
38.561,-0.275,0.980,0.146
38.570,-0.215,0.953,0.146
38.580,-0.287,0.904,0.146
38.590,-0.305,0.914,0.146
38.600,-0.301,0.938,0.129
38.610,-0.271,0.910,0.129
38.620,-0.281,0.930,0.113
38.630,-0.295,0.943,0.117
38.640,-0.293,0.941,0.129
38.650,-0.311,0.953,0.115
38.660,-0.262,0.957,0.111
38.670,-0.285,0.955,0.113
38.680,-0.258,0.953,0.129
38.690,-0.242,0.945,0.129
38.700,-0.254,0.936,0.121
38.710,-0.234,0.951,0.123
38.719,-0.246,0.959,0.115
38.729,-0.238,0.934,0.119
38.739,-0.248,0.941,0.121
38.749,-0.287,0.936,0.113
38.759,-0.285,0.932,0.119
38.769,-0.264,0.939,0.100
38.779,-0.262,0.973,0.109
38.789,-0.283,0.971,0.203
38.799,-0.236,0.941,0.094
38.809,-0.199,0.941,0.051
38.819,-0.209,0.955,0.145
38.829,-0.262,0.953,0.121
38.839,-0.221,0.863,0.027
38.849,-0.221,0.861,0.068
38.859,-0.285,0.900,0.064
38.869,-0.291,0.912,0.045
38.878,-0.273,0.998,0.094
38.888,-0.289,0.994,0.092
38.898,-0.291,0.959,0.062
38.908,-0.299,0.979,0.072
38.918,-0.314,1.004,0.074
38.928,-0.299,0.969,0.070
38.938,-0.291,0.955,0.100
38.948,-0.191,0.938,0.068
38.958,-0.252,0.941,0.080
38.968,-0.250,0.924,0.088
38.978,-0.223,0.906,0.092
38.988,-0.260,0.938,0.084
38.998,-0.238,0.924,0.078
39.008,-0.188,0.887,0.131
39.018,-0.279,0.898,0.057
39.027,-0.264,0.930,0.057
39.037,-0.262,0.945,0.086
39.047,-0.277,0.963,0.096
39.057,-0.295,0.959,0.080
39.067,-0.293,0.949,0.062
39.077,-0.285,0.965,0.086
39.087,-0.270,0.979,0.102
39.097,-0.262,1.006,0.133
39.107,-0.295,0.955,0.117
39.117,-0.262,0.941,0.111
39.127,-0.246,0.936,0.133
39.137,-0.230,0.967,0.109
39.147,-0.250,0.930,0.109
39.157,-0.223,0.957,0.104
39.167,-0.250,0.943,0.109
39.176,-0.260,0.979,0.076
39.186,-0.275,0.953,0.098
39.196,-0.311,0.908,0.088
39.206,-0.287,0.936,0.098
39.216,-0.291,0.945,0.094
39.226,-0.291,0.969,0.076
39.236,-0.246,0.984,0.105
39.246,-0.219,0.938,0.098
39.256,-0.232,0.932,0.094
39.266,-0.266,0.975,0.078
39.276,-0.312,0.980,0.080
39.286,-0.320,0.912,0.092
39.296,-0.332,0.918,0.064
39.306,-0.311,0.939,0.066
39.316,-0.303,0.953,0.088
39.326,-0.289,0.955,0.090
39.335,-0.285,0.963,0.082
39.345,-0.305,0.943,0.064
39.355,-0.307,0.928,0.059
39.365,-0.305,0.922,0.076
39.375,-0.258,0.939,0.086
39.385,-0.285,0.910,0.078
39.395,-0.336,0.816,0.020
39.405,-0.170,1.033,0.111
39.415,-0.320,0.902,0.096
39.425,-0.266,0.957,0.084
39.435,-0.299,0.947,0.082
39.445,-0.309,0.939,0.096
39.455,-0.295,0.912,0.102
39.465,-0.287,0.951,0.098
39.475,-0.346,0.910,0.086
39.484,-0.266,0.934,0.084
39.494,-0.279,0.939,0.109
39.504,-0.299,0.922,0.096
39.514,-0.277,0.963,0.086
39.524,-0.303,0.932,0.107
39.534,-0.289,0.938,0.084
39.544,-0.320,0.895,0.105
39.554,-0.328,0.906,0.072
39.564,-0.312,0.932,0.070
39.574,-0.252,0.994,0.107
39.584,-0.318,0.943,0.096
39.594,-0.338,0.877,0.076
39.604,-0.283,0.965,0.070
39.614,-0.361,0.912,0.066
39.624,-0.320,0.914,0.062
39.633,-0.229,0.973,0.055
39.643,-0.111,1.025,0.045
39.653,-0.162,1.039,0.053
39.663,-0.160,0.947,0.059
39.673,-0.234,0.973,0.047
39.683,-0.270,0.996,0.086
39.693,-0.309,0.881,0.109
39.703,-0.244,0.924,0.059
39.713,-0.174,0.885,0.068
39.723,-0.234,0.857,-0.016
39.733,-0.262,1.008,0.104
39.743,-0.279,1.023,0.117
39.753,-0.289,0.949,0.111
39.763,-0.406,1.051,0.088
39.773,-0.236,0.891,0.174
39.782,-0.092,1.041,0.184
39.792,-0.262,1.033,0.123
39.802,-0.277,0.871,0.104
39.812,-0.184,0.873,0.113
39.822,-0.180,0.867,0.121
39.832,-0.256,0.949,0.184
39.842,-0.354,0.982,0.152
39.852,-0.268,0.939,0.137
39.862,-0.240,0.961,0.154
39.872,-0.201,0.980,0.164
39.882,-0.416,0.934,0.152
39.892,-0.111,0.941,0.199
39.902,-0.250,0.949,0.127
39.912,-0.256,0.943,0.180
39.922,-0.316,0.930,0.146
39.932,-0.322,0.961,0.150
39.941,-0.244,0.943,0.135
39.951,-0.199,0.922,0.139
39.961,-0.270,0.902,0.154
39.971,-0.229,0.920,0.148
39.981,-0.303,0.945,0.127
39.991,-0.355,0.977,0.127
40.001,-0.176,1.041,0.104
40.011,-0.238,0.932,0.143
40.021,-0.242,1.016,0.090
40.031,-0.246,0.969,0.119
40.041,-0.211,0.949,0.219
40.051,-0.238,0.969,0.184
40.061,-0.264,0.924,0.154
40.071,-0.258,0.920,0.152
40.081,-0.225,0.916,0.160
40.090,-0.264,0.916,0.184
40.100,-0.316,0.910,0.193
40.110,-0.266,0.924,0.188
40.120,-0.227,0.912,0.172
40.130,-0.170,0.947,0.178
40.140,-0.283,0.951,0.166
40.150,-0.246,0.969,0.162
40.160,-0.240,0.961,0.148
40.170,-0.217,0.961,0.152
40.180,-0.188,0.992,0.152
40.190,-0.234,0.951,0.168
40.200,-0.221,0.951,0.154
40.210,-0.150,0.926,0.150
40.220,-0.193,0.947,0.162
40.230,-0.193,0.945,0.154
40.239,-0.225,0.900,0.156
40.249,-0.227,0.922,0.148
40.259,-0.240,0.918,0.156
40.269,-0.244,0.939,0.160
40.279,-0.230,0.975,0.164
40.289,-0.248,0.998,0.176
40.299,-0.309,0.969,0.168
40.309,-0.248,0.984,0.150
40.319,-0.270,0.934,0.127
40.329,-0.201,0.957,0.121
40.339,-0.191,0.961,0.123
40.349,-0.160,0.973,0.105
40.359,-0.109,0.990,0.129
40.369,-0.188,1.084,0.148
40.379,-0.174,1.000,0.094
40.388,-0.404,0.789,0.092
40.398,-0.285,0.922,0.100
40.408,-0.232,0.973,0.121
40.418,-0.152,1.018,0.117
40.428,-0.180,0.971,0.115
40.438,-0.143,0.979,0.117
40.448,-0.176,0.975,0.127
40.458,-0.268,0.945,0.117
40.468,-0.287,0.895,0.121
40.478,-0.320,0.873,0.123
40.488,-0.219,0.922,0.121
40.498,-0.207,0.939,0.145
40.508,-0.199,0.979,0.133
40.518,-0.207,0.986,0.143
40.528,-0.213,0.986,0.117
40.538,-0.195,0.980,0.092
40.547,-0.301,0.914,0.117
40.557,-0.207,0.977,0.115
40.567,-0.311,0.912,0.090
40.577,-0.322,0.875,0.104
40.587,-0.270,0.934,0.084
40.597,-0.244,0.945,0.105
40.607,-0.238,0.959,0.113
40.617,-0.234,1.021,0.117
40.627,-0.223,0.934,0.102
40.637,-0.209,0.986,0.105
40.647,-0.281,0.951,0.109
40.657,-0.344,0.912,0.105
40.667,-0.268,0.965,0.111
40.677,-0.299,0.936,0.107
40.687,-0.270,0.947,0.111
40.696,-0.281,0.926,0.117
40.706,-0.307,0.922,0.146
40.716,-0.240,0.998,0.088
40.726,-0.240,0.928,0.105
40.736,-0.271,0.973,0.123
40.746,-0.262,0.980,0.102
40.756,-0.248,1.002,0.100
40.766,-0.262,0.977,0.096
40.776,-0.324,0.799,0.092
40.786,-0.283,0.955,0.109
40.796,-0.350,0.961,0.117
40.806,-0.295,0.920,0.111
40.816,-0.348,0.926,0.133
40.826,-0.279,0.908,0.107
40.836,-0.223,0.963,0.117
40.845,-0.277,0.973,0.119
40.855,-0.279,0.941,0.137
40.865,-0.355,0.910,0.109
40.875,-0.330,0.910,0.109
40.885,-0.303,0.932,0.109
40.895,-0.359,0.930,0.119
40.905,-0.291,0.924,0.111
40.915,-0.359,0.906,0.111
40.925,-0.195,0.980,0.123
40.935,-0.275,0.963,0.104
40.945,-0.279,0.955,0.104
40.955,-0.312,0.945,0.115
40.965,-0.295,0.934,0.129
40.975,-0.328,0.910,0.133
40.985,-0.301,0.965,0.129
40.994,-0.264,0.932,0.105
41.004,-0.248,0.957,0.127
41.014,-0.275,0.938,0.117
41.024,-0.307,0.922,0.123
41.034,-0.361,0.887,0.141
41.044,-0.316,0.922,0.145
41.054,-0.330,0.902,0.141
41.064,-0.312,0.883,0.133
41.074,-0.330,0.891,0.121
41.084,-0.238,0.998,0.133
41.094,-0.176,1.023,0.090
41.104,-0.250,0.990,0.111
41.114,-0.291,0.910,0.107
41.124,-0.350,1.070,0.166
41.134,-0.504,0.793,0.176
41.144,-0.418,0.883,0.143
41.153,-0.127,0.947,0.078
41.163,-0.180,1.045,0.119
41.173,-0.145,1.059,0.129
41.183,-0.188,0.980,0.146
41.193,-0.232,0.928,0.121
41.203,-0.289,0.904,0.146
41.213,-0.301,0.916,0.154
41.223,-0.301,0.920,0.191
41.233,-0.314,0.918,0.133
41.243,-0.219,0.959,0.102
41.253,-0.285,0.928,0.145
41.263,-0.287,0.943,0.139
41.273,-0.273,0.936,0.129
41.283,-0.242,0.947,0.133
41.293,-0.229,0.977,0.150
41.302,-0.262,0.965,0.139
41.312,-0.062,1.115,0.125
41.322,-0.215,0.914,0.127
41.332,-0.230,1.045,0.002
41.342,-0.293,0.871,0.117
41.352,-0.301,0.924,0.146
41.362,-0.207,1.053,0.170
41.372,-0.188,1.018,0.158
41.382,-0.361,0.846,0.189
41.392,-0.438,0.779,0.143
41.402,-0.361,0.873,0.127
41.412,-0.324,0.871,0.133
41.422,-0.275,0.891,0.146
41.432,-0.250,0.941,0.141
41.442,-0.207,0.980,0.146
41.451,-0.193,0.955,0.129
41.461,-0.139,0.930,0.123
41.471,-0.430,0.963,0.180
41.481,-0.328,0.971,0.119
41.491,-0.166,0.889,0.416
41.501,-0.285,0.902,0.086
41.511,-0.234,0.910,0.141
41.521,-0.160,0.945,0.131
41.531,-0.346,0.926,0.143
41.541,-0.244,0.967,0.137
41.551,-0.273,0.951,0.143
41.561,-0.324,0.932,0.150
41.571,-0.258,0.941,0.143
41.581,-0.275,0.947,0.145
41.591,-0.227,0.951,0.152
41.600,-0.270,0.955,0.162
41.610,-0.248,0.951,0.154
41.620,-0.242,0.951,0.139
41.630,-0.238,0.947,0.131
41.640,-0.232,0.951,0.131
41.650,-0.244,0.967,0.139
41.660,-0.234,0.936,0.135
41.670,-0.215,0.928,0.139
41.680,-0.246,0.957,0.146
41.690,-0.252,0.932,0.139
41.700,-0.238,0.939,0.162
41.710,-0.264,0.936,0.139
41.720,-0.283,0.939,0.143
41.730,-0.254,0.936,0.139
41.740,-0.410,0.893,0.086
41.750,-0.199,0.941,0.145
41.759,-0.271,0.895,0.123
41.769,-0.307,0.930,0.145
41.779,-0.279,0.936,0.141
41.789,-0.201,0.936,0.158
41.799,-0.289,0.914,0.148
41.809,-0.408,0.895,0.209
41.819,-0.260,0.986,0.094
41.829,-0.592,0.656,0.334
41.839,-0.320,0.971,0.018
41.849,-0.211,0.996,0.229
41.859,-0.279,0.924,0.094
41.869,-0.318,0.949,0.154
41.879,-0.250,0.984,0.104
41.889,-0.322,1.010,0.152
41.899,-0.291,0.947,0.137
41.908,-0.301,0.969,0.141
41.918,-0.293,0.953,0.129
41.928,-0.270,0.971,0.135
41.938,-0.240,0.959,0.166
41.948,-0.262,0.965,0.117
41.958,-0.209,0.992,0.088
41.968,-0.289,0.914,0.131
41.978,-0.316,0.900,0.137
41.988,-0.281,0.910,0.139
41.998,-0.275,0.928,0.131
42.008,-0.301,0.869,0.129
42.018,-0.312,0.883,0.158
42.028,-0.309,0.906,0.186
42.038,-0.355,0.916,0.166
42.048,-0.330,0.912,0.117
42.057,-0.320,0.920,0.133
42.067,-0.365,0.920,0.137
42.077,-0.299,0.965,0.176
42.087,-0.332,0.953,0.150
42.097,-0.312,0.947,0.168
42.107,-0.305,0.945,0.146
42.117,-0.314,0.949,0.152
42.127,-0.295,0.945,0.152
42.137,-0.301,0.945,0.146
42.147,-0.305,0.941,0.139
42.157,-0.301,0.930,0.146
42.167,-0.311,0.932,0.145
42.177,-0.314,0.936,0.137
42.187,-0.311,0.938,0.146
42.197,-0.314,0.938,0.146
42.207,-0.320,0.943,0.141
42.216,-0.322,0.939,0.129
42.226,-0.309,0.922,0.143
42.236,-0.305,0.926,0.148
42.246,-0.314,0.934,0.139
42.256,-0.311,0.934,0.121
42.266,-0.309,0.924,0.125
42.276,-0.307,0.926,0.131
42.286,-0.311,0.928,0.125
42.296,-0.314,0.926,0.123
42.306,-0.316,0.934,0.135
42.316,-0.314,0.938,0.135
42.326,-0.318,0.932,0.137
42.336,-0.318,0.930,0.145
42.346,-0.318,0.938,0.137
42.356,-0.328,0.934,0.141
42.365,-0.318,0.930,0.139
42.375,-0.367,0.848,-0.049
42.385,-0.299,1.027,0.266
42.395,-0.320,0.928,0.221
42.405,-0.301,0.902,0.158
42.415,-0.330,0.906,0.143
42.425,-0.365,0.932,0.102
42.435,-0.346,0.924,0.100
42.445,-0.338,0.904,0.092
42.455,-0.354,0.914,0.113
42.465,-0.344,0.953,0.203
42.475,-0.342,0.973,0.199
42.485,-0.289,1.004,0.215
42.495,-0.133,0.945,0.246
42.505,-0.543,0.955,-0.025
42.514,-0.449,0.932,0.100
42.524,-0.371,1.148,0.152
42.534,0.205,0.719,-0.199
42.544,-0.510,0.621,-0.271
42.554,-0.281,0.943,0.811
42.564,0.037,1.244,0.111
42.574,-0.436,1.025,0.043
42.584,-0.318,0.877,0.148
42.594,-0.203,0.938,0.131
42.604,-0.283,0.963,0.135
42.614,-0.314,0.939,0.121
42.624,-0.270,0.939,0.137
42.634,-0.277,0.938,0.139
42.644,-0.287,0.941,0.127
42.654,-0.289,0.943,0.129
42.663,-0.285,0.941,0.133
42.673,-0.283,0.936,0.129
42.683,-0.283,0.934,0.131
42.693,-0.277,0.936,0.129
42.703,-0.277,0.936,0.127
42.713,-0.279,0.939,0.127
42.723,-0.279,0.939,0.133
42.733,-0.279,0.943,0.133
42.743,-0.277,0.939,0.133
42.753,-0.281,0.945,0.137
42.763,-0.281,0.945,0.135
42.773,-0.283,0.941,0.135
42.783,-0.289,0.934,0.131
42.793,-0.291,0.934,0.133
42.803,-0.293,0.938,0.135
42.813,-0.295,0.939,0.137
42.822,-0.299,0.938,0.139
42.832,-0.299,0.936,0.141
42.842,-0.299,0.930,0.137
42.852,-0.301,0.928,0.139
42.862,-0.299,0.932,0.141
42.872,-0.295,0.936,0.139
42.882,-0.291,0.930,0.133
42.892,-0.293,0.932,0.141
42.902,-0.283,0.941,0.139
42.912,-0.279,0.939,0.137
42.922,-0.283,0.936,0.137
42.932,-0.281,0.928,0.127
42.942,-0.275,0.922,0.121
42.952,-0.273,0.920,0.119
42.962,-0.279,0.926,0.121
42.971,-0.283,0.930,0.119
42.981,-0.281,0.936,0.115
42.991,-0.283,0.930,0.109
43.001,-0.283,0.912,0.107
43.011,-0.250,0.918,0.109
43.021,-0.244,0.928,0.104
43.031,-0.258,0.934,0.100
43.041,-0.264,0.930,0.094
43.051,-0.279,0.928,0.088
43.061,-0.309,0.920,0.068
43.071,-0.340,0.924,0.059
43.081,-0.369,0.934,0.045
43.091,-0.504,0.943,0.068
43.101,-0.279,0.965,0.102
43.111,-0.357,0.916,0.031
43.120,-0.387,0.896,0.066
43.130,-0.418,0.877,0.041
43.140,-0.428,0.879,0.012
43.150,-0.424,0.867,-0.031
43.160,-0.467,0.873,-0.039
43.170,-0.469,0.949,0.012
43.180,-0.480,0.947,0.000
43.190,-0.434,0.908,0.029
43.200,-0.342,0.939,0.062
43.210,-0.396,0.922,0.010
43.220,-0.547,0.857,-0.033
43.230,-0.471,0.898,-0.035
43.240,-0.604,0.914,-0.209
43.250,-0.291,0.953,0.098
43.260,-0.443,0.900,-0.021
43.269,-0.438,0.902,-0.008
43.279,-0.395,0.908,0.002
43.289,-0.410,0.912,-0.010
43.299,-0.406,0.910,-0.010
43.309,-0.395,0.906,-0.006
43.319,-0.395,0.904,-0.012
43.329,-0.402,0.904,-0.020
43.339,-0.396,0.902,-0.016
43.349,-0.398,0.900,-0.020
43.359,-0.398,0.906,-0.016
43.369,-0.395,0.908,-0.018
43.379,-0.402,0.906,-0.020
43.389,-0.404,0.906,-0.021
43.399,-0.404,0.910,-0.025
43.409,-0.402,0.918,-0.023
43.419,-0.398,0.914,-0.023
43.428,-0.395,0.910,-0.021
43.438,-0.389,0.908,-0.023
43.448,-0.387,0.906,-0.021
43.458,-0.389,0.908,-0.023
43.468,-0.389,0.910,-0.018
43.478,-0.391,0.910,-0.018
43.488,-0.393,0.912,-0.018
43.498,-0.393,0.914,-0.014
43.508,-0.391,0.914,-0.010
43.518,-0.393,0.906,-0.012
43.528,-0.385,0.906,-0.016
43.538,-0.381,0.910,-0.016
43.548,-0.375,0.910,-0.018
43.558,-0.363,0.914,-0.016
43.568,-0.348,0.908,-0.016
43.577,-0.346,0.908,-0.018
43.587,-0.334,0.918,-0.018
43.597,-0.336,0.932,-0.010
43.607,-0.336,0.939,-0.008
43.617,-0.311,0.908,-0.031
43.627,-0.357,0.932,-0.006
43.637,-0.355,0.934,-0.010
43.647,-0.428,0.949,-0.010
43.657,-0.334,0.904,-0.021
43.667,-0.336,0.957,0.027
43.677,-0.344,0.910,-0.025
43.687,-0.373,0.967,0.004
43.697,-0.385,0.922,0.020
43.707,-0.387,0.977,0.031
43.717,-0.438,0.912,-0.016
43.726,-0.352,0.918,0.004
43.736,-0.346,0.926,-0.008
43.746,-0.396,0.908,-0.025
43.756,-0.361,0.934,0.010
43.766,-0.307,0.959,0.027
43.776,-0.354,0.953,0.004
43.786,-0.381,0.910,0.010
43.796,-0.447,0.859,0.023
43.806,-0.438,0.881,-0.004
43.816,-0.387,0.916,-0.023
43.826,-0.447,0.881,0.008
43.836,-0.451,0.812,-0.020
43.846,-0.363,0.891,0.008
43.856,-0.381,0.918,0.023
43.866,-0.434,0.912,0.006
43.875,-0.377,0.908,0.020
43.885,-0.400,0.957,0.016
43.895,-0.434,0.896,-0.008
43.905,-0.326,0.863,0.018
43.915,-0.387,0.887,0.014
43.925,-0.416,0.848,-0.010
43.935,-0.410,0.826,0.002
43.945,-0.414,0.783,-0.045
43.955,-0.436,0.795,-0.018
43.965,-0.398,0.875,0.020
43.975,-0.354,0.980,0.008
43.985,-0.365,1.035,0.000
43.995,-0.359,0.969,-0.008
44.005,-0.377,0.895,-0.014
44.015,-0.385,0.875,-0.029
44.025,-0.430,0.928,-0.033
44.034,-0.365,0.867,-0.010
44.044,-0.334,0.908,0.000
44.054,-0.328,0.949,-0.020
44.064,-0.340,0.971,-0.023
44.074,-0.316,0.947,-0.043
44.084,-0.287,0.938,-0.025
44.094,-0.270,0.943,-0.031
44.104,-0.316,0.918,-0.014
44.114,-0.336,0.947,-0.016
44.124,-0.412,0.887,-0.021
44.134,-0.424,0.859,-0.004
44.144,-0.316,0.900,0.000
44.154,-0.291,0.900,0.025
44.164,-0.219,0.938,-0.004
44.174,-0.262,0.971,-0.014
44.183,-0.287,0.936,-0.008
44.193,-0.244,0.953,-0.049
44.203,-0.031,0.926,-0.049
44.213,-0.197,0.990,0.027
44.223,-0.299,0.883,-0.018
44.233,-0.311,0.965,-0.025
44.243,-0.275,1.029,0.010
44.253,-0.299,1.002,-0.018
44.263,-0.268,0.980,-0.004
44.273,-0.283,0.982,-0.020
44.283,-0.262,0.986,-0.014
44.293,-0.209,0.990,-0.012
44.303,-0.211,0.957,-0.012
44.313,-0.205,0.959,-0.004
44.323,-0.207,0.949,0.000
44.332,-0.201,0.980,0.002
44.342,-0.211,0.996,0.000
44.352,-0.227,0.980,0.027
44.362,-0.227,0.982,0.002
44.372,-0.168,1.008,0.002
44.382,-0.340,0.992,0.025
44.392,-0.299,1.014,-0.016
44.402,-0.246,1.047,0.002
44.412,-0.252,1.000,0.037
44.422,-0.277,0.854,-0.037
44.432,-0.268,0.768,0.062
44.442,-0.234,0.791,-0.018
44.452,-0.207,0.902,0.078
44.462,-0.373,0.994,0.043
44.472,-0.322,0.979,0.014
44.481,-0.275,0.959,0.045
44.491,-0.316,0.900,0.018
44.501,-0.281,0.938,0.025
44.511,-0.281,0.945,0.035
44.521,-0.275,0.930,0.025
44.531,-0.268,0.932,0.025
44.541,-0.266,0.928,0.027
44.551,-0.275,0.939,0.029
44.561,-0.277,0.945,0.031
44.571,-0.285,0.949,0.033
44.581,-0.287,0.947,0.031
44.591,-0.281,0.945,0.031
44.601,-0.281,0.945,0.029
44.611,-0.281,0.943,0.029
44.621,-0.277,0.945,0.029
44.631,-0.279,0.939,0.029
44.640,-0.277,0.936,0.039
44.650,-0.279,0.941,0.029
44.660,-0.283,0.941,0.033
44.670,-0.279,0.930,0.031
44.680,-0.271,0.934,0.029
44.690,-0.270,0.936,0.033
44.700,-0.275,0.939,0.033
44.710,-0.291,0.938,0.029
44.720,-0.299,0.941,0.031
44.730,-0.293,0.939,0.033
44.740,-0.285,0.936,0.035
44.750,-0.277,0.943,0.037
44.760,-0.279,0.949,0.043
44.770,-0.281,0.951,0.045
44.780,-0.375,0.844,-0.051
44.789,-0.150,0.990,0.080
44.799,-0.338,0.943,0.070
44.809,-0.268,0.916,-0.016
44.819,-0.219,0.961,0.102
44.829,-0.258,0.951,0.053
44.839,-0.277,0.936,0.055
44.849,-0.264,0.932,0.072
44.859,-0.293,0.984,0.076
44.869,-0.316,0.975,0.064
44.879,-0.332,0.932,0.064
44.889,-0.760,0.955,0.055
44.899,-0.295,0.893,0.016
44.909,-0.271,0.893,0.113
44.919,-0.389,0.900,0.020
44.929,-0.367,0.918,0.027
44.938,-0.320,0.934,0.027
44.948,-0.328,0.928,0.006
44.958,-0.424,0.938,0.008
44.968,-0.350,0.926,-0.012
44.978,-0.287,0.922,0.006
44.988,-0.283,0.908,0.025
44.998,-0.242,0.924,-0.002
45.008,-0.295,0.924,-0.023
45.018,-0.408,0.934,-0.062
45.028,-0.387,0.912,-0.119
45.038,-0.395,0.945,-0.102
45.048,-0.426,0.949,-0.086
45.058,-0.311,0.885,-0.088
45.068,-0.273,0.875,-0.082
45.078,-0.344,0.904,-0.125
45.088,-0.348,0.902,-0.137
45.097,-0.273,0.930,-0.033
45.107,-0.246,0.961,0.055
45.117,-0.273,0.951,-0.010
45.127,-0.316,0.957,-0.039
45.137,-0.291,0.943,-0.006
45.147,-0.297,0.939,-0.004
45.157,-0.316,0.932,-0.020
45.167,-0.311,0.939,-0.002
45.177,-0.336,0.973,0.014
45.187,-0.334,0.947,-0.004
45.197,-0.287,0.951,0.020
45.207,-0.299,0.975,0.025
45.217,-0.338,0.973,0.027
45.227,-0.330,0.945,0.027
45.237,-0.387,0.934,0.043
45.246,-0.340,0.959,0.045
45.256,-0.320,0.975,0.033
45.266,-0.238,0.926,0.006
45.276,0.154,0.689,0.344
45.286,-0.691,0.840,0.047
45.296,-0.447,1.014,-0.098
45.306,-0.205,1.008,0.154
45.316,-0.283,0.902,0.004
45.326,-0.355,0.938,-0.010
45.336,-0.295,0.926,0.025
45.346,-0.336,0.889,-0.006
45.356,-0.402,0.877,-0.006
45.366,-0.404,0.920,0.020
45.376,-0.402,0.949,0.031
45.386,-0.381,0.943,0.025
45.395,-0.344,0.938,0.016
45.405,-0.330,0.877,-0.010
45.415,-0.383,0.812,-0.031
45.425,-0.443,0.807,-0.020
45.435,-0.424,0.879,0.002
45.445,-0.363,0.924,0.010
45.455,-0.312,0.930,-0.008
45.465,-0.299,0.947,-0.027
45.475,-0.283,0.973,-0.035
45.485,-0.256,0.980,-0.047
45.495,-0.244,0.975,-0.051
45.505,-0.273,0.961,-0.057
45.515,-0.250,1.000,-0.100
45.525,-0.141,1.018,-0.123
45.535,-0.047,0.998,-0.154
45.544,-0.014,0.994,-0.166
45.554,0.020,0.988,-0.164
45.564,0.096,0.980,-0.168
45.574,0.328,0.887,-0.229
45.584,0.473,0.777,-0.189
45.594,0.393,0.842,-0.127
45.604,0.236,0.963,-0.092
45.614,0.146,0.984,-0.076
45.624,0.133,0.980,-0.082
45.634,0.049,0.982,-0.043
45.644,-0.088,0.996,-0.012
45.654,-0.209,1.008,0.006
45.664,-0.260,1.012,0.002
45.674,-0.217,1.027,-0.010
45.684,-0.178,1.047,-0.010
45.694,-0.141,1.055,-0.039
45.703,-0.098,1.041,-0.061
45.713,-0.049,1.035,-0.090
45.723,-0.014,1.027,-0.107
45.733,-0.018,1.008,-0.125
45.743,-0.002,0.979,-0.145
45.753,0.061,0.967,-0.146
45.763,0.074,0.979,-0.135
45.773,0.072,0.984,-0.129
45.783,0.043,0.953,-0.123
45.793,0.006,0.928,-0.119
45.803,-0.023,0.932,-0.113
45.813,-0.033,0.949,-0.105
45.823,0.020,0.971,-0.104
45.833,0.064,0.959,-0.121
45.843,0.082,0.930,-0.150
45.852,0.072,0.912,-0.137
45.862,0.035,0.928,-0.123
45.872,-0.014,0.951,-0.115
45.882,-0.029,0.967,-0.104
45.892,-0.029,0.969,-0.104
45.902,-0.025,0.961,-0.104
45.912,-0.018,0.953,-0.109
45.922,-0.010,0.953,-0.104
45.932,-0.014,0.951,-0.092
45.942,-0.016,0.961,-0.096
45.952,-0.008,0.971,-0.100
45.962,0.000,0.975,-0.098
45.972,0.002,0.982,-0.100
45.982,0.018,0.986,-0.102
45.992,0.033,0.980,-0.109
46.001,0.045,0.977,-0.121
46.011,0.039,0.969,-0.125
46.021,0.035,0.973,-0.137
46.031,0.035,0.963,-0.143
46.041,0.059,0.949,-0.152
46.051,0.074,0.945,-0.146
46.061,0.057,0.943,-0.141
46.071,0.035,0.928,-0.145
46.081,0.010,0.922,-0.133
46.091,-0.021,0.939,-0.113
46.101,-0.053,0.959,-0.102
46.111,-0.059,0.965,-0.096
46.121,-0.057,0.977,-0.082
46.131,-0.055,0.996,-0.078
46.141,-0.051,0.996,-0.074
46.150,-0.043,0.979,-0.084
46.160,-0.025,0.977,-0.088
46.170,-0.016,0.973,-0.092
46.180,0.000,0.955,-0.102
46.190,0.016,0.934,-0.104
46.200,0.020,0.936,-0.100
46.210,0.012,0.951,-0.090
46.220,0.016,0.959,-0.100
46.230,0.037,0.941,-0.109
46.240,0.066,0.924,-0.123
46.250,0.057,0.936,-0.133
46.260,0.043,0.973,-0.123
46.270,0.012,1.010,-0.105
46.280,-0.014,1.008,-0.098
46.290,-0.074,1.008,-0.059
46.300,-0.084,1.004,-0.086
46.309,-0.027,1.006,-0.072
46.319,-0.004,1.000,-0.064
46.329,-0.025,0.971,-0.068
46.339,-0.027,0.936,-0.068
46.349,-0.010,0.916,-0.072
46.359,0.010,0.928,-0.084
46.369,0.016,0.936,-0.070
46.379,0.041,0.949,-0.072
46.389,0.049,0.969,-0.068
46.399,0.020,0.980,-0.072
46.409,-0.018,0.996,-0.066
46.419,-0.037,0.994,-0.066
46.429,-0.049,0.980,-0.066
46.439,-0.053,0.971,-0.074
46.449,-0.043,0.961,-0.082
46.458,-0.033,0.959,-0.084
46.468,-0.021,0.963,-0.080
46.478,-0.008,0.955,-0.080
46.488,-0.008,0.947,-0.076
46.498,0.000,0.941,-0.088
46.508,0.006,0.943,-0.080
46.518,0.004,0.945,-0.078
46.528,-0.006,0.951,-0.076
46.538,-0.012,0.955,-0.076
46.548,-0.018,0.957,-0.070
46.558,-0.023,0.957,-0.070
46.568,-0.031,0.959,-0.068
46.578,-0.025,0.963,-0.062
46.588,-0.018,0.965,-0.059
46.598,-0.021,0.963,-0.066
46.607,-0.018,0.973,-0.061
46.617,-0.023,0.982,-0.059
46.627,-0.039,0.977,-0.062
46.637,-0.033,0.973,-0.062
46.647,-0.039,0.967,-0.059
46.657,-0.037,0.957,-0.062
46.667,-0.035,0.951,-0.070
46.677,-0.033,0.949,-0.074
46.687,-0.023,0.957,-0.072
46.697,-0.020,0.961,-0.076
46.707,-0.018,0.969,-0.072
46.717,-0.012,0.977,-0.070
46.727,-0.002,0.969,-0.068
46.737,0.002,0.965,-0.066
46.747,0.004,0.961,-0.066
46.756,0.002,0.963,-0.066
46.766,0.002,0.979,-0.062
46.776,0.010,0.986,-0.055
46.786,0.012,0.984,-0.053
46.796,0.021,0.977,-0.049
46.806,0.023,0.965,-0.051
46.816,0.016,0.951,-0.053
46.826,0.008,0.957,-0.049
46.836,0.002,0.963,-0.043
46.846,-0.002,0.967,-0.037
46.856,0.004,0.973,-0.033
46.866,0.018,0.992,-0.035
46.876,0.012,1.018,-0.027
46.886,-0.023,1.020,-0.014
46.896,-0.064,1.014,-0.006
46.906,-0.092,1.008,-0.004
46.915,-0.102,0.996,0.000
46.925,-0.088,0.977,-0.006
46.935,-0.045,0.951,-0.016
46.945,0.006,0.943,-0.020
46.955,0.043,0.963,-0.020
46.965,0.057,0.965,-0.025
46.975,0.061,0.955,-0.033
46.985,0.049,0.945,-0.033
46.995,0.018,0.959,-0.031
47.005,-0.012,0.984,-0.023
47.015,-0.027,0.988,-0.021
47.025,-0.021,0.990,-0.025
47.035,-0.037,0.977,-0.021
47.045,-0.041,0.967,-0.027
47.055,-0.035,0.963,-0.027
47.064,-0.033,0.955,-0.037
47.074,-0.055,0.922,-0.045
47.084,-0.088,0.924,-0.047
47.094,-0.119,0.939,-0.049
47.104,-0.129,0.938,-0.061
47.114,-0.135,0.939,-0.066
47.124,-0.143,0.943,-0.068
47.134,-0.168,0.961,-0.059
47.144,-0.178,0.973,-0.062
47.154,-0.164,0.980,-0.051
47.164,-0.146,0.979,-0.051
47.174,-0.139,0.967,-0.049
47.184,-0.121,0.969,-0.057
47.194,-0.109,0.963,-0.059
47.204,-0.090,0.955,-0.064
47.213,-0.107,0.705,-0.408
47.223,-0.090,0.902,0.129
47.233,0.213,1.174,0.051
47.243,0.098,0.760,-0.254
47.253,-0.127,0.881,-0.039
47.263,0.045,1.039,-0.080
47.273,-0.021,1.027,-0.051
47.283,-0.148,0.951,-0.117
47.293,-0.010,0.979,-0.053
47.303,-0.090,1.025,-0.016
47.313,-0.143,1.021,-0.078
47.323,-0.080,0.986,-0.062
47.333,-0.105,1.014,-0.010
47.343,-0.131,1.029,-0.059
47.353,-0.332,0.986,-0.139
47.362,-0.039,0.898,-0.150
47.372,0.309,0.814,0.008
47.382,-0.016,0.861,-0.092
47.392,-0.158,0.996,-0.123
47.402,-0.053,1.018,-0.006
47.412,0.000,0.977,-0.047
47.422,-0.029,0.977,-0.074
47.432,-0.023,1.004,-0.039
47.442,-0.012,0.998,-0.037
47.452,-0.018,0.979,-0.049
47.462,-0.014,0.961,-0.047
47.472,0.271,0.590,-0.156
47.482,-0.100,0.906,-0.002
47.492,0.076,1.254,0.209
47.502,-0.064,0.828,-0.221
47.512,-0.094,0.881,-0.080
47.521,0.029,0.990,0.000
47.531,0.010,1.010,-0.045
47.541,-0.045,1.029,-0.047
47.551,-0.059,1.041,-0.033
47.561,-0.055,1.010,-0.043
47.571,0.027,0.998,-0.062
47.581,0.074,0.992,-0.045
47.591,0.027,0.984,-0.037
47.601,0.031,0.984,-0.041
47.611,0.084,0.953,-0.086
47.621,0.076,0.898,-0.062
47.631,0.053,0.889,-0.070
47.641,-0.004,1.006,-0.080
47.651,0.002,0.982,-0.076
47.661,-0.002,0.994,-0.068
47.670,0.004,1.057,-0.078
47.680,0.000,1.096,-0.076
47.690,0.023,1.051,-0.045
47.700,0.049,0.959,-0.031
47.710,0.014,0.951,-0.029
47.720,-0.021,0.840,-0.105
47.730,-0.027,0.807,-0.186
47.740,-0.074,0.875,-0.137
47.750,-0.094,0.936,-0.076
47.760,-0.109,0.934,-0.094
47.770,-0.096,0.910,-0.092
47.780,-0.072,0.926,-0.045
47.790,-0.053,0.912,-0.037
47.800,-0.039,0.975,-0.031
47.810,-0.045,0.994,-0.018
47.819,-0.023,1.012,-0.010
47.829,-0.033,1.018,-0.008
47.839,-0.049,1.025,-0.008
47.849,-0.039,0.984,-0.023
47.859,-0.035,0.957,-0.031
47.869,-0.041,0.949,-0.047
47.879,-0.059,0.932,-0.066
47.889,-0.092,0.941,-0.078
47.899,-0.064,0.959,-0.084
47.909,-0.025,0.967,-0.047
47.919,-0.031,0.977,-0.047
47.929,-0.043,0.992,-0.045
47.939,-0.041,1.016,-0.014
47.949,-0.045,1.029,0.021
47.959,-0.037,1.031,0.021
47.969,-0.049,0.994,-0.031
47.978,-0.010,0.971,-0.016
47.988,-0.010,0.967,-0.012
47.998,-0.012,0.973,-0.025
48.008,0.010,0.994,-0.008
48.018,-0.018,1.020,-0.025
48.028,-0.035,1.012,-0.035
48.038,-0.031,0.971,-0.035
48.048,-0.045,0.922,-0.047
48.058,-0.039,0.902,-0.047
48.068,-0.045,0.912,-0.041
48.078,-0.062,0.965,-0.025
48.088,-0.061,0.967,-0.029
48.098,-0.055,0.943,-0.023
48.108,-0.047,0.922,-0.031
48.118,-0.018,0.934,-0.006
48.127,-0.021,0.920,-0.074
48.137,-0.033,0.895,-0.047
48.147,-0.031,0.939,-0.037
48.157,-0.025,0.947,-0.035
48.167,-0.045,0.973,-0.023
48.177,-0.064,0.998,-0.021
48.187,-0.062,0.977,-0.021
48.197,-0.066,0.971,-0.039
48.207,-0.076,0.973,-0.055
48.217,-0.045,0.975,-0.025
48.227,-0.023,0.971,0.010
48.237,-0.035,0.986,-0.012
48.247,-0.053,0.963,-0.039
48.257,-0.062,0.947,-0.051
48.267,-0.016,0.975,-0.020
48.276,-0.006,0.996,0.020
48.286,-0.006,1.004,0.012
48.296,-0.016,1.016,0.006
48.306,0.006,1.025,0.014
48.316,-0.018,1.010,0.010
48.326,-0.014,0.973,-0.029
48.336,0.004,0.963,-0.006
48.346,-0.008,0.961,-0.014
48.356,-0.004,0.963,-0.029
48.366,-0.004,0.963,-0.014
48.376,-0.012,0.969,-0.029
48.386,-0.012,0.953,-0.027
48.396,-0.004,0.953,-0.021
48.406,-0.012,0.957,-0.014
48.416,-0.025,0.959,-0.025
48.425,-0.023,0.975,-0.018
48.435,-0.021,0.988,-0.012
48.445,-0.004,1.000,-0.012
48.455,0.006,0.988,-0.010
48.465,0.002,0.980,-0.020
48.475,0.006,0.980,-0.021
48.485,-0.018,0.967,-0.021
48.495,-0.023,0.961,-0.033
48.505,-0.027,0.955,-0.025
48.515,-0.027,0.977,-0.018
48.525,-0.037,1.006,-0.008
48.535,-0.062,1.035,-0.004
48.545,-0.064,1.029,0.000
48.555,-0.033,0.973,0.002
48.565,0.029,0.908,0.010
48.575,-0.016,0.904,0.027
48.584,-0.016,0.898,-0.012
48.594,-0.010,0.885,-0.041
48.604,-0.061,0.943,-0.002
48.614,-0.059,1.002,0.018
48.624,-0.025,1.006,0.006
48.634,-0.031,1.008,0.012
48.644,-0.064,1.041,-0.006
48.654,-0.102,1.021,-0.002
48.664,-0.045,1.000,-0.014
48.674,0.154,0.820,-0.180
48.684,-0.309,1.043,0.080
48.694,-0.072,1.070,-0.053
48.704,-0.006,0.965,0.035
48.714,-0.037,0.959,-0.025
48.724,-0.057,0.973,-0.004
48.733,-0.053,0.994,0.004
48.743,-0.047,0.973,-0.014
48.753,-0.051,0.945,-0.020
48.763,-0.057,0.945,-0.020
48.773,-0.064,0.953,-0.021
48.783,-0.061,0.957,-0.016
48.793,-0.064,0.961,-0.016
48.803,-0.061,0.967,-0.020
48.813,-0.057,0.975,-0.021
48.823,-0.047,0.980,-0.023
48.833,0.082,0.941,-0.080
48.843,-0.148,1.020,0.035
48.853,0.021,0.980,-0.068
48.863,-0.008,0.969,-0.010
48.873,-0.029,0.975,-0.053
48.882,-0.020,0.975,-0.043
48.892,-0.016,0.979,-0.035
48.902,-0.012,0.973,-0.047
48.912,-0.023,0.979,-0.041
48.922,-0.025,0.979,-0.041
48.932,-0.025,0.973,-0.033
48.942,-0.029,0.967,-0.041
48.952,-0.029,0.980,-0.043
48.962,-0.021,0.984,-0.041
48.972,-0.084,1.062,-0.070
48.982,0.158,1.002,-0.014
48.992,0.109,0.871,0.006
49.002,-0.029,0.945,-0.082
49.012,-0.033,0.992,-0.031
49.022,-0.020,0.969,-0.027
49.031,-0.035,0.957,-0.045
49.041,-0.035,0.971,-0.025
49.051,-0.047,0.980,-0.027
49.061,-0.039,0.984,-0.027
49.071,-0.012,0.990,-0.020
49.081,0.000,0.982,-0.031
49.091,-0.002,0.965,-0.035
49.101,0.176,0.861,-0.166
49.111,-0.182,0.979,0.098
49.121,0.002,0.951,-0.111
49.131,-0.018,0.932,-0.018
49.141,-0.059,1.006,-0.035
49.151,-0.293,1.135,-0.164
49.161,0.148,0.896,-0.072
49.171,0.047,0.904,0.066
49.181,-0.053,0.941,-0.129
49.190,-0.033,0.965,-0.037
49.200,0.020,0.941,-0.070
49.210,0.068,0.904,-0.111
49.220,0.039,0.914,-0.102
49.230,-0.074,0.986,-0.078
49.240,-0.150,1.008,-0.061
49.250,-0.096,0.975,-0.064
49.260,-0.066,0.953,-0.057
49.270,-0.113,0.984,-0.039
49.280,-0.160,1.012,-0.029
49.290,-0.158,1.016,-0.031
49.300,-0.154,1.023,-0.029
49.310,-0.113,1.049,-0.037
49.320,-0.084,1.057,-0.031
49.330,-0.037,1.053,-0.055
49.339,0.023,0.998,-0.064
49.349,0.072,0.936,-0.070
49.359,0.078,0.916,-0.062
49.369,0.080,0.959,-0.062
49.379,0.127,0.984,-0.061
49.389,0.125,0.963,-0.062
49.399,0.115,0.949,-0.076
49.409,0.094,0.965,-0.066
49.419,0.080,0.975,-0.064
49.429,0.066,0.967,-0.066
49.439,0.072,0.955,-0.066
49.449,0.066,0.943,-0.053
49.459,0.051,0.943,-0.047
49.469,0.035,0.951,-0.033
49.479,0.012,0.953,-0.027
49.488,-0.023,0.941,-0.021
49.498,-0.062,0.926,-0.018
49.508,-0.084,0.914,-0.012
49.518,-0.090,0.914,-0.014
49.528,-0.094,0.918,-0.010
49.538,-0.107,0.928,-0.010
49.548,-0.123,0.945,-0.008
49.558,-0.145,0.922,-0.010
49.568,-0.191,0.912,-0.006
49.578,-0.232,0.918,-0.004
49.588,-0.242,0.912,0.000
49.598,-0.234,0.887,-0.004
49.608,-0.227,0.896,-0.014
49.618,-0.219,0.930,-0.004
49.628,-0.225,0.975,-0.002
49.637,-0.240,1.031,0.002
49.647,-0.264,1.084,0.000
49.657,-0.289,1.059,-0.020
49.667,-0.289,1.000,-0.027
49.677,-0.266,0.945,-0.033
49.687,-0.221,0.926,-0.027
49.697,-0.172,0.953,-0.027
49.707,-0.150,0.988,-0.025
49.717,-0.143,1.010,-0.016
49.727,-0.139,1.016,-0.006
49.737,-0.131,1.014,0.004
49.747,-0.137,1.006,0.012
49.757,-0.141,0.992,0.021
49.767,-0.135,0.984,0.031
49.777,-0.123,0.963,0.020
49.787,-0.098,0.953,0.020
49.796,-0.092,0.939,0.025
49.806,-0.088,0.949,0.031
49.816,-0.088,0.949,0.031
49.826,-0.080,0.963,0.039
49.836,-0.072,0.979,0.051
49.846,-0.074,0.986,0.061
49.856,-0.074,0.990,0.064
49.866,-0.078,0.984,0.066
49.876,-0.080,0.971,0.061
49.886,-0.090,0.955,0.053
49.896,-0.086,0.955,0.053
49.906,-0.088,0.949,0.045
49.916,-0.076,0.939,0.037
49.926,-0.066,0.930,0.043
49.936,-0.066,0.939,0.045
49.945,-0.066,0.947,0.047
49.955,-0.068,0.947,0.051
49.965,-0.072,0.939,0.059
49.975,-0.080,0.947,0.057
49.985,-0.080,0.945,0.059
49.995,-0.090,0.943,0.062
50.005,-0.104,0.938,0.070
50.015,-0.111,0.951,0.080
50.025,-0.117,0.971,0.094
50.035,-0.115,0.986,0.102
