df_hash,22ZHK4.E4K1RV
device,HZ2X61
project_hash,29R7
project_name,istanbul_aydin_university
person_hash,29R7.2N0T
person_label,V14
date_time_start,2025-05-22_11-28-58.854000_+03
date_time_start_unix,1747902538.854
date_time_end,2025-05-22_11-34-10.018000_+03
length_difference_noticed,no

time,acc_x,acc_y,acc_z
4.219,-0.471,0.760,-0.102
4.229,-0.492,0.758,-0.104
4.239,-0.531,0.762,-0.102
4.249,-0.564,0.762,-0.096
4.259,-0.570,0.812,-0.100
4.269,-0.588,0.807,-0.100
4.279,-0.580,0.812,-0.109
4.289,-0.570,0.822,-0.100
4.299,-0.582,0.809,-0.105
4.309,-0.564,0.799,-0.113
4.318,-0.562,0.809,-0.111
4.328,-0.568,0.805,-0.109
4.338,-0.561,0.801,-0.111
4.348,-0.555,0.812,-0.105
4.358,-0.557,0.822,-0.104
4.368,-0.570,0.830,-0.104
4.378,-0.572,0.832,-0.100
4.388,-0.588,0.822,-0.096
4.398,-0.584,0.826,-0.090
4.408,-0.578,0.826,-0.084
4.418,-0.568,0.824,-0.084
4.428,-0.553,0.820,-0.084
4.438,-0.547,0.818,-0.080
4.448,-0.537,0.807,-0.080
4.458,-0.543,0.799,-0.076
4.467,-0.545,0.791,-0.080
4.477,-0.557,0.787,-0.076
4.487,-0.568,0.783,-0.078
4.497,-0.564,0.795,-0.072
4.507,-0.564,0.795,-0.072
4.517,-0.564,0.811,-0.070
4.527,-0.559,0.807,-0.066
4.537,-0.561,0.807,-0.066
4.547,-0.559,0.822,-0.068
4.557,-0.549,0.830,-0.062
4.567,-0.549,0.828,-0.064
4.577,-0.557,0.826,-0.066
4.587,-0.561,0.820,-0.068
4.597,-0.572,0.803,-0.068
4.607,-0.576,0.799,-0.066
4.616,-0.572,0.791,-0.070
4.626,-0.566,0.787,-0.070
4.636,-0.564,0.795,-0.072
4.646,-0.555,0.811,-0.066
4.656,-0.545,0.824,-0.062
4.666,-0.557,0.842,-0.061
4.676,-0.559,0.852,-0.062
4.686,-0.562,0.844,-0.070
4.696,-0.566,0.826,-0.072
4.706,-0.566,0.811,-0.076
4.716,-0.568,0.801,-0.078
4.726,-0.568,0.795,-0.072
4.736,-0.561,0.807,-0.070
4.746,-0.559,0.809,-0.068
4.755,-0.564,0.799,-0.078
4.765,-0.566,0.793,-0.076
4.775,-0.568,0.799,-0.080
4.785,-0.570,0.793,-0.084
4.795,-0.584,0.795,-0.094
4.805,-0.592,0.795,-0.096
4.815,-0.596,0.799,-0.098
4.825,-0.602,0.807,-0.098
4.835,-0.592,0.814,-0.090
4.845,-0.576,0.830,-0.084
4.855,-0.561,0.836,-0.090
4.865,-0.551,0.836,-0.086
4.875,-0.545,0.826,-0.084
4.885,-0.553,0.807,-0.090
4.895,-0.561,0.799,-0.092
4.904,-0.574,0.785,-0.094
4.914,-0.584,0.773,-0.096
4.924,-0.586,0.781,-0.086
4.934,-0.574,0.779,-0.082
4.944,-0.570,0.789,-0.082
4.954,-0.568,0.795,-0.082
4.964,-0.568,0.803,-0.078
4.974,-0.572,0.812,-0.074
4.984,-0.574,0.820,-0.072
4.994,-0.572,0.836,-0.064
5.004,-0.559,0.854,-0.061
5.014,-0.545,0.854,-0.055
5.024,-0.537,0.861,-0.053
5.034,-0.525,0.859,-0.051
5.044,-0.523,0.848,-0.059
5.053,-0.529,0.818,-0.068
5.063,-0.547,0.801,-0.068
5.073,-0.555,0.787,-0.066
5.083,-0.564,0.787,-0.057
5.093,-0.559,0.797,-0.055
5.103,-0.555,0.816,-0.045
5.113,-0.541,0.834,-0.035
5.123,-0.525,0.838,-0.037
5.133,-0.521,0.840,-0.039
5.143,-0.531,0.834,-0.045
5.153,-0.535,0.824,-0.051
5.163,-0.553,0.809,-0.061
5.173,-0.584,0.783,-0.064
5.183,-0.586,0.781,-0.061
5.192,-0.594,0.777,-0.064
5.202,-0.611,0.764,-0.061
5.212,-0.617,0.758,-0.053
5.222,-0.617,0.764,-0.057
5.232,-0.627,0.758,-0.053
5.242,-0.625,0.764,-0.053
5.252,-0.621,0.766,-0.049
5.262,-0.613,0.764,-0.053
5.272,-0.617,0.760,-0.047
5.282,-0.611,0.762,-0.045
5.292,-0.609,0.770,-0.041
5.302,-0.600,0.775,-0.033
5.312,-0.594,0.789,-0.029
5.322,-0.588,0.809,-0.021
5.332,-0.574,0.824,-0.014
5.341,-0.572,0.830,-0.016
5.351,-0.568,0.826,-0.014
5.361,-0.566,0.822,-0.018
5.371,-0.568,0.826,-0.014
5.381,-0.572,0.820,-0.020
5.391,-0.580,0.814,-0.018
5.401,-0.586,0.812,-0.018
5.411,-0.582,0.805,-0.018
5.421,-0.584,0.799,-0.014
5.431,-0.584,0.797,-0.014
5.441,-0.580,0.793,-0.014
5.451,-0.582,0.791,-0.012
5.461,-0.584,0.793,-0.014
5.471,-0.582,0.793,-0.014
5.481,-0.582,0.793,-0.016
5.490,-0.584,0.797,-0.012
5.500,-0.582,0.799,-0.014
5.510,-0.580,0.801,-0.016
5.520,-0.578,0.809,-0.012
5.530,-0.572,0.811,-0.012
5.540,-0.574,0.812,-0.010
5.550,-0.568,0.816,-0.012
5.560,-0.566,0.812,-0.018
5.570,-0.568,0.818,-0.012
5.580,-0.568,0.816,-0.016
5.590,-0.568,0.811,-0.018
5.600,-0.572,0.818,-0.020
5.610,-0.568,0.812,-0.018
5.620,-0.572,0.814,-0.025
5.630,-0.572,0.812,-0.020
5.639,-0.574,0.811,-0.021
5.649,-0.576,0.811,-0.023
5.659,-0.566,0.812,-0.025
5.669,-0.576,0.811,-0.021
5.679,-0.576,0.803,-0.027
5.689,-0.568,0.799,-0.023
5.699,-0.576,0.799,-0.025
5.709,-0.578,0.797,-0.025
5.719,-0.584,0.797,-0.029
5.729,-0.578,0.799,-0.029
5.739,-0.582,0.799,-0.023
5.749,-0.582,0.805,-0.027
5.759,-0.594,0.805,-0.033
5.769,-0.592,0.809,-0.027
5.778,-0.588,0.814,-0.027
5.788,-0.582,0.822,-0.025
5.798,-0.586,0.814,-0.025
5.808,-0.586,0.809,-0.027
5.818,-0.586,0.799,-0.031
5.828,-0.590,0.793,-0.035
5.838,-0.590,0.795,-0.035
5.848,-0.596,0.787,-0.035
5.858,-0.602,0.785,-0.035
5.868,-0.602,0.787,-0.035
5.878,-0.602,0.789,-0.033
5.888,-0.598,0.789,-0.033
5.898,-0.598,0.791,-0.031
5.908,-0.596,0.789,-0.033
5.918,-0.586,0.795,-0.033
5.927,-0.584,0.795,-0.035
5.937,-0.580,0.795,-0.037
5.947,-0.578,0.795,-0.035
5.957,-0.584,0.789,-0.033
5.967,-0.580,0.793,-0.033
5.977,-0.582,0.797,-0.037
5.987,-0.578,0.799,-0.037
5.997,-0.574,0.805,-0.031
6.007,-0.570,0.797,-0.035
6.017,-0.570,0.799,-0.035
6.027,-0.564,0.795,-0.037
6.037,-0.555,0.795,-0.039
6.047,-0.553,0.793,-0.039
6.057,-0.549,0.797,-0.035
6.067,-0.543,0.801,-0.031
6.076,-0.555,0.787,-0.039
6.086,-0.557,0.791,-0.039
6.096,-0.561,0.785,-0.041
6.106,-0.564,0.785,-0.051
6.116,-0.572,0.777,-0.062
6.126,-0.586,0.760,-0.078
6.136,-0.604,0.756,-0.088
6.146,-0.619,0.758,-0.094
6.156,-0.633,0.768,-0.100
6.166,-0.643,0.775,-0.102
6.176,-0.648,0.787,-0.107
6.186,-0.652,0.795,-0.107
6.196,-0.643,0.809,-0.105
6.206,-0.625,0.816,-0.111
6.215,-0.615,0.818,-0.111
6.225,-0.600,0.824,-0.113
6.235,-0.588,0.826,-0.113
6.245,-0.576,0.824,-0.109
6.255,-0.574,0.820,-0.113
6.265,-0.568,0.818,-0.111
6.275,-0.561,0.820,-0.107
6.285,-0.559,0.814,-0.109
6.295,-0.562,0.811,-0.107
6.305,-0.557,0.799,-0.105
6.315,-0.561,0.793,-0.111
6.325,-0.566,0.781,-0.113
6.335,-0.574,0.779,-0.113
6.345,-0.572,0.783,-0.117
6.355,-0.582,0.783,-0.115
6.364,-0.590,0.785,-0.107
6.374,-0.588,0.787,-0.111
6.384,-0.582,0.793,-0.105
6.394,-0.584,0.791,-0.105
6.404,-0.582,0.797,-0.105
6.414,-0.578,0.809,-0.100
6.424,-0.580,0.812,-0.105
6.434,-0.578,0.809,-0.104
6.444,-0.582,0.797,-0.104
6.454,-0.584,0.797,-0.104
6.464,-0.580,0.795,-0.104
6.474,-0.584,0.797,-0.102
6.484,-0.582,0.795,-0.100
6.494,-0.584,0.795,-0.098
6.504,-0.578,0.795,-0.100
6.513,-0.578,0.801,-0.096
6.523,-0.570,0.811,-0.088
6.533,-0.562,0.809,-0.096
6.543,-0.568,0.811,-0.096
6.553,-0.562,0.811,-0.090
6.563,-0.562,0.805,-0.092
6.573,-0.568,0.801,-0.098
6.583,-0.568,0.795,-0.098
6.593,-0.568,0.787,-0.100
6.603,-0.568,0.793,-0.096
6.613,-0.568,0.795,-0.098
6.623,-0.570,0.797,-0.100
6.633,-0.570,0.797,-0.096
6.643,-0.570,0.803,-0.094
6.653,-0.568,0.809,-0.096
6.662,-0.564,0.811,-0.096
6.672,-0.566,0.814,-0.094
6.682,-0.570,0.812,-0.096
6.692,-0.568,0.809,-0.096
6.702,-0.570,0.809,-0.096
6.712,-0.570,0.795,-0.098
6.722,-0.570,0.793,-0.096
6.732,-0.574,0.797,-0.098
6.742,-0.572,0.793,-0.094
6.752,-0.570,0.797,-0.094
6.762,-0.574,0.795,-0.094
6.772,-0.576,0.799,-0.096
6.782,-0.576,0.799,-0.092
6.792,-0.574,0.801,-0.090
6.801,-0.574,0.803,-0.092
6.811,-0.580,0.803,-0.092
6.821,-0.576,0.801,-0.096
6.831,-0.578,0.795,-0.094
6.841,-0.580,0.801,-0.094
6.851,-0.580,0.799,-0.094
6.861,-0.584,0.797,-0.096
6.871,-0.586,0.805,-0.092
6.881,-0.584,0.797,-0.092
6.891,-0.582,0.797,-0.092
6.901,-0.578,0.793,-0.094
6.911,-0.582,0.795,-0.092
6.921,-0.578,0.791,-0.086
6.931,-0.574,0.803,-0.084
6.941,-0.574,0.799,-0.080
6.950,-0.566,0.791,-0.088
6.960,-0.568,0.789,-0.088
6.970,-0.572,0.789,-0.088
6.980,-0.576,0.793,-0.090
6.990,-0.582,0.789,-0.092
7.000,-0.592,0.795,-0.088
7.010,-0.596,0.795,-0.088
7.020,-0.592,0.801,-0.086
7.030,-0.598,0.797,-0.086
7.040,-0.602,0.795,-0.088
7.050,-0.600,0.787,-0.084
7.060,-0.598,0.781,-0.090
7.070,-0.598,0.779,-0.090
7.080,-0.594,0.781,-0.092
7.090,-0.594,0.779,-0.092
7.099,-0.596,0.779,-0.086
7.109,-0.598,0.785,-0.084
7.119,-0.596,0.783,-0.088
7.129,-0.602,0.781,-0.084
7.139,-0.602,0.793,-0.084
7.149,-0.600,0.789,-0.084
7.159,-0.605,0.785,-0.090
7.169,-0.605,0.777,-0.092
7.179,-0.605,0.775,-0.090
7.189,-0.609,0.781,-0.090
7.199,-0.609,0.783,-0.084
7.209,-0.604,0.789,-0.080
7.219,-0.605,0.795,-0.082
7.229,-0.600,0.797,-0.078
7.239,-0.596,0.793,-0.080
7.248,-0.596,0.787,-0.078
7.258,-0.602,0.783,-0.082
7.268,-0.590,0.787,-0.076
7.278,-0.598,0.787,-0.080
7.288,-0.600,0.787,-0.080
7.298,-0.596,0.785,-0.074
7.308,-0.596,0.785,-0.072
7.318,-0.594,0.787,-0.072
7.328,-0.594,0.783,-0.070
7.338,-0.598,0.783,-0.066
7.348,-0.596,0.783,-0.074
7.358,-0.598,0.781,-0.072
7.368,-0.602,0.781,-0.078
7.378,-0.604,0.777,-0.078
7.387,-0.607,0.779,-0.082
7.397,-0.609,0.779,-0.084
7.407,-0.607,0.779,-0.080
7.417,-0.604,0.777,-0.082
7.427,-0.604,0.781,-0.082
7.437,-0.604,0.783,-0.076
7.447,-0.602,0.783,-0.078
7.457,-0.605,0.785,-0.076
7.467,-0.602,0.785,-0.078
7.477,-0.602,0.785,-0.076
7.487,-0.604,0.781,-0.074
7.497,-0.602,0.785,-0.082
7.507,-0.602,0.777,-0.078
7.517,-0.604,0.775,-0.082
7.527,-0.605,0.771,-0.082
7.536,-0.602,0.773,-0.076
7.546,-0.604,0.773,-0.076
7.556,-0.605,0.777,-0.078
7.566,-0.607,0.781,-0.084
7.576,-0.609,0.779,-0.084
7.586,-0.604,0.779,-0.086
7.596,-0.605,0.775,-0.084
7.606,-0.609,0.775,-0.082
7.616,-0.611,0.785,-0.078
7.626,-0.611,0.793,-0.078
7.636,-0.607,0.797,-0.080
7.646,-0.609,0.791,-0.074
7.656,-0.611,0.783,-0.078
7.666,-0.607,0.779,-0.078
7.676,-0.605,0.770,-0.078
7.685,-0.605,0.768,-0.078
7.695,-0.607,0.770,-0.080
7.705,-0.611,0.766,-0.078
7.715,-0.611,0.770,-0.080
7.725,-0.615,0.770,-0.076
7.735,-0.615,0.773,-0.080
7.745,-0.617,0.773,-0.082
7.755,-0.617,0.777,-0.078
7.765,-0.619,0.779,-0.080
7.775,-0.615,0.781,-0.080
7.785,-0.621,0.783,-0.076
7.795,-0.619,0.781,-0.076
7.805,-0.611,0.775,-0.076
7.815,-0.617,0.775,-0.072
7.824,-0.617,0.775,-0.074
7.834,-0.613,0.773,-0.072
7.844,-0.609,0.768,-0.076
7.854,-0.611,0.764,-0.074
7.864,-0.617,0.764,-0.068
7.874,-0.617,0.770,-0.074
7.884,-0.619,0.773,-0.074
7.894,-0.621,0.770,-0.057
7.904,-0.617,0.781,-0.084
7.914,-0.617,0.781,-0.088
7.924,-0.623,0.768,-0.076
7.934,-0.621,0.773,-0.092
7.944,-0.619,0.768,-0.094
7.954,-0.617,0.770,-0.084
7.964,-0.615,0.768,-0.094
7.973,-0.627,0.766,-0.090
7.983,-0.621,0.766,-0.086
7.993,-0.621,0.768,-0.088
8.003,-0.625,0.764,-0.086
8.013,-0.623,0.768,-0.088
8.023,-0.623,0.760,-0.090
8.033,-0.625,0.768,-0.078
8.043,-0.625,0.770,-0.088
8.053,-0.623,0.771,-0.080
8.063,-0.623,0.762,-0.094
8.073,-0.621,0.768,-0.082
8.083,-0.627,0.764,-0.094
8.093,-0.621,0.764,-0.074
8.103,-0.627,0.773,-0.084
8.113,-0.625,0.766,-0.080
8.122,-0.623,0.771,-0.080
8.132,-0.627,0.766,-0.080
8.142,-0.625,0.764,-0.082
8.152,-0.629,0.766,-0.078
8.162,-0.627,0.768,-0.072
8.172,-0.623,0.760,-0.080
8.182,-0.627,0.750,-0.074
8.192,-0.623,0.764,-0.066
8.202,-0.621,0.768,-0.070
8.212,-0.625,0.766,-0.076
8.222,-0.623,0.777,-0.070
8.232,-0.625,0.773,-0.066
8.242,-0.631,0.771,-0.066
8.252,-0.631,0.775,-0.068
8.262,-0.635,0.770,-0.072
8.271,-0.635,0.758,-0.070
8.281,-0.635,0.760,-0.068
8.291,-0.635,0.756,-0.068
8.301,-0.637,0.752,-0.064
8.311,-0.631,0.760,-0.064
8.321,-0.635,0.760,-0.062
8.331,-0.637,0.766,-0.064
8.341,-0.635,0.770,-0.062
8.351,-0.635,0.764,-0.064
8.361,-0.633,0.764,-0.062
8.371,-0.635,0.768,-0.064
8.381,-0.635,0.764,-0.062
8.391,-0.633,0.764,-0.064
8.401,-0.637,0.768,-0.062
8.410,-0.635,0.771,-0.061
8.420,-0.633,0.766,-0.059
8.430,-0.629,0.768,-0.055
8.440,-0.633,0.768,-0.059
8.450,-0.629,0.768,-0.057
8.460,-0.625,0.762,-0.061
8.470,-0.627,0.756,-0.055
8.480,-0.621,0.760,-0.059
8.490,-0.623,0.768,-0.061
8.500,-0.627,0.768,-0.057
8.510,-0.627,0.770,-0.055
8.520,-0.625,0.771,-0.057
8.530,-0.627,0.770,-0.059
8.540,-0.629,0.770,-0.057
8.550,-0.625,0.764,-0.055
8.559,-0.631,0.762,-0.059
8.569,-0.633,0.758,-0.059
8.579,-0.629,0.764,-0.059
8.589,-0.627,0.762,-0.059
8.599,-0.631,0.764,-0.059
8.609,-0.633,0.764,-0.057
8.619,-0.631,0.766,-0.059
8.629,-0.631,0.770,-0.059
8.639,-0.629,0.771,-0.055
8.649,-0.627,0.768,-0.059
8.659,-0.625,0.770,-0.059
8.669,-0.625,0.771,-0.061
8.679,-0.625,0.764,-0.061
8.689,-0.627,0.766,-0.061
8.699,-0.627,0.766,-0.062
8.708,-0.627,0.768,-0.062
8.718,-0.627,0.770,-0.061
8.728,-0.629,0.770,-0.061
8.738,-0.629,0.768,-0.061
8.748,-0.623,0.771,-0.061
8.758,-0.625,0.771,-0.061
8.768,-0.623,0.770,-0.059
8.778,-0.627,0.770,-0.061
8.788,-0.621,0.773,-0.059
8.798,-0.623,0.770,-0.062
8.808,-0.625,0.770,-0.064
8.818,-0.625,0.768,-0.062
8.828,-0.623,0.766,-0.062
8.838,-0.625,0.760,-0.061
8.847,-0.625,0.764,-0.061
8.857,-0.625,0.762,-0.064
8.867,-0.625,0.770,-0.064
8.877,-0.631,0.766,-0.066
8.887,-0.633,0.758,-0.066
8.897,-0.635,0.762,-0.064
8.907,-0.633,0.768,-0.066
8.917,-0.637,0.775,-0.062
8.927,-0.639,0.773,-0.062
8.937,-0.631,0.775,-0.059
8.947,-0.629,0.764,-0.061
8.957,-0.627,0.762,-0.064
8.967,-0.623,0.764,-0.059
8.977,-0.631,0.764,-0.057
8.987,-0.633,0.760,-0.062
8.996,-0.631,0.758,-0.064
9.006,-0.629,0.764,-0.066
9.016,-0.635,0.762,-0.062
9.026,-0.635,0.760,-0.061
9.036,-0.639,0.764,-0.061
9.046,-0.639,0.768,-0.059
9.056,-0.637,0.768,-0.062
9.066,-0.639,0.764,-0.062
9.076,-0.639,0.768,-0.064
9.086,-0.635,0.766,-0.061
9.096,-0.633,0.764,-0.062
9.106,-0.631,0.768,-0.059
9.116,-0.635,0.762,-0.062
9.126,-0.629,0.760,-0.062
9.136,-0.633,0.750,-0.062
9.145,-0.639,0.750,-0.064
9.155,-0.635,0.760,-0.062
9.165,-0.641,0.762,-0.062
9.175,-0.641,0.764,-0.062
9.185,-0.643,0.764,-0.061
9.195,-0.639,0.768,-0.061
9.205,-0.641,0.762,-0.059
9.215,-0.639,0.762,-0.055
9.225,-0.635,0.762,-0.057
9.235,-0.635,0.766,-0.057
9.245,-0.631,0.762,-0.057
9.255,-0.635,0.758,-0.061
9.265,-0.633,0.758,-0.057
9.275,-0.631,0.758,-0.055
9.285,-0.631,0.758,-0.057
9.294,-0.637,0.754,-0.057
9.304,-0.637,0.760,-0.061
9.314,-0.637,0.762,-0.059
9.324,-0.635,0.754,-0.061
9.334,-0.635,0.754,-0.064
9.344,-0.629,0.760,-0.062
9.354,-0.627,0.760,-0.064
9.364,-0.623,0.756,-0.064
9.374,-0.623,0.762,-0.068
9.384,-0.623,0.773,-0.068
9.394,-0.621,0.777,-0.066
9.404,-0.627,0.775,-0.066
9.414,-0.625,0.773,-0.068
9.424,-0.615,0.768,-0.066
9.433,-0.611,0.766,-0.068
9.443,-0.598,0.766,-0.068
9.453,-0.592,0.768,-0.064
9.463,-0.586,0.773,-0.061
9.473,-0.580,0.781,-0.061
9.483,-0.578,0.785,-0.059
9.493,-0.580,0.783,-0.059
9.503,-0.580,0.787,-0.061
9.513,-0.576,0.795,-0.061
9.523,-0.582,0.797,-0.061
9.533,-0.582,0.801,-0.057
9.543,-0.588,0.811,-0.057
9.553,-0.586,0.814,-0.057
9.563,-0.586,0.816,-0.053
9.573,-0.584,0.818,-0.053
9.582,-0.584,0.812,-0.053
9.592,-0.590,0.809,-0.051
9.602,-0.594,0.812,-0.051
9.612,-0.596,0.803,-0.047
9.622,-0.596,0.805,-0.049
9.632,-0.594,0.805,-0.047
9.642,-0.602,0.805,-0.055
9.652,-0.609,0.801,-0.061
9.662,-0.605,0.789,-0.062
9.672,-0.613,0.760,-0.074
9.682,-0.625,0.740,-0.082
9.692,-0.631,0.734,-0.090
9.702,-0.645,0.721,-0.090
9.712,-0.664,0.725,-0.098
9.722,-0.670,0.736,-0.096
9.731,-0.682,0.738,-0.096
9.741,-0.693,0.744,-0.098
9.751,-0.689,0.750,-0.102
9.761,-0.680,0.748,-0.109
9.771,-0.666,0.748,-0.115
9.781,-0.658,0.748,-0.111
9.791,-0.652,0.752,-0.109
9.801,-0.648,0.756,-0.105
9.811,-0.641,0.760,-0.109
9.821,-0.639,0.750,-0.113
9.831,-0.637,0.756,-0.113
9.841,-0.631,0.762,-0.109
9.851,-0.631,0.764,-0.111
9.861,-0.627,0.764,-0.107
9.870,-0.621,0.768,-0.104
9.880,-0.623,0.752,-0.107
9.890,-0.639,0.738,-0.107
9.900,-0.641,0.732,-0.115
9.910,-0.645,0.732,-0.119
9.920,-0.645,0.730,-0.127
9.930,-0.646,0.717,-0.129
9.940,-0.645,0.719,-0.129
9.950,-0.645,0.736,-0.125
9.960,-0.645,0.744,-0.119
9.970,-0.639,0.756,-0.113
9.980,-0.631,0.775,-0.109
9.990,-0.629,0.795,-0.102
10.000,-0.617,0.768,-0.090
10.010,-0.643,0.746,-0.115
10.019,-0.639,0.744,-0.113
10.029,-0.643,0.727,-0.104
10.039,-0.648,0.732,-0.121
10.049,-0.635,0.734,-0.127
10.059,-0.646,0.709,-0.129
10.069,-0.652,0.717,-0.131
10.079,-0.650,0.734,-0.133
10.089,-0.660,0.734,-0.133
10.099,-0.666,0.725,-0.139
10.109,-0.658,0.746,-0.141
10.119,-0.664,0.742,-0.146
10.129,-0.676,0.742,-0.154
10.139,-0.660,0.748,-0.148
10.149,-0.678,0.734,-0.131
10.159,-0.670,0.752,-0.170
10.168,-0.672,0.740,-0.154
10.178,-0.650,0.742,-0.131
10.188,-0.643,0.752,-0.145
10.198,-0.646,0.750,-0.135
10.208,-0.664,0.727,-0.131
10.218,-0.660,0.736,-0.135
10.228,-0.688,0.684,-0.146
10.238,-0.688,0.691,-0.154
10.248,-0.656,0.730,-0.139
10.258,-0.627,0.781,-0.139
10.268,-0.598,0.795,-0.137
10.278,-0.590,0.787,-0.137
10.288,-0.613,0.748,-0.115
10.298,-0.615,0.740,-0.113
10.308,-0.623,0.752,-0.102
10.317,-0.637,0.742,-0.115
10.327,-0.654,0.740,-0.117
10.337,-0.646,0.754,-0.115
10.347,-0.639,0.775,-0.135
10.357,-0.635,0.766,-0.127
10.367,-0.627,0.783,-0.129
10.377,-0.625,0.777,-0.131
10.387,-0.627,0.781,-0.125
10.397,-0.627,0.752,-0.129
10.407,-0.605,0.773,-0.127
10.417,-0.617,0.779,-0.117
10.427,-0.633,0.777,-0.115
10.437,-0.666,0.748,-0.113
10.447,-0.670,0.713,-0.115
10.456,-0.664,0.693,-0.111
10.466,-0.648,0.709,-0.125
10.476,-0.652,0.723,-0.131
10.486,-0.666,0.711,-0.117
10.496,-0.652,0.748,-0.115
10.506,-0.648,0.748,-0.104
10.516,-0.643,0.742,-0.094
10.526,-0.637,0.752,-0.098
10.536,-0.637,0.740,-0.094
10.546,-0.619,0.758,-0.102
10.556,-0.619,0.744,-0.113
10.566,-0.662,0.691,-0.117
10.576,-0.631,0.730,-0.123
10.586,-0.619,0.754,-0.109
10.596,-0.629,0.752,-0.121
10.605,-0.625,0.758,-0.123
10.615,-0.611,0.777,-0.131
10.625,-0.615,0.795,-0.139
10.635,-0.613,0.787,-0.135
10.645,-0.611,0.801,-0.141
10.655,-0.605,0.789,-0.141
10.665,-0.621,0.752,-0.141
10.675,-0.629,0.754,-0.135
10.685,-0.645,0.744,-0.125
10.695,-0.646,0.758,-0.115
10.705,-0.637,0.746,-0.123
10.715,-0.621,0.754,-0.115
10.725,-0.615,0.773,-0.115
10.735,-0.627,0.760,-0.123
10.745,-0.639,0.746,-0.123
10.754,-0.633,0.746,-0.123
10.764,-0.625,0.758,-0.117
10.774,-0.623,0.766,-0.117
10.784,-0.629,0.773,-0.117
10.794,-0.621,0.781,-0.119
10.804,-0.633,0.775,-0.125
10.814,-0.625,0.760,-0.123
10.824,-0.621,0.785,-0.105
10.834,-0.617,0.775,-0.115
10.844,-0.619,0.785,-0.102
10.854,-0.539,0.812,-0.168
10.864,-0.834,0.469,-0.078
10.874,-0.443,0.957,-0.150
10.884,-0.680,0.691,-0.053
10.894,-0.604,0.750,-0.143
10.903,-0.607,0.777,-0.074
10.913,-0.596,0.762,-0.111
10.923,-0.605,0.777,-0.090
10.933,-0.600,0.775,-0.100
10.943,-0.625,0.760,-0.117
10.953,-0.629,0.773,-0.104
10.963,-0.623,0.777,-0.105
10.973,-0.613,0.791,-0.094
10.983,-0.604,0.803,-0.098
10.993,-0.623,0.779,-0.105
11.003,-0.623,0.777,-0.105
11.013,-0.615,0.785,-0.100
11.023,-0.617,0.779,-0.104
11.033,-0.619,0.781,-0.105
11.042,-0.609,0.787,-0.098
11.052,-0.605,0.793,-0.092
11.062,-0.607,0.793,-0.088
11.072,-0.605,0.789,-0.092
11.082,-0.596,0.797,-0.086
11.092,-0.592,0.791,-0.082
11.102,-0.590,0.791,-0.082
11.112,-0.582,0.783,-0.076
11.122,-0.572,0.787,-0.076
11.132,-0.572,0.797,-0.078
11.142,-0.568,0.797,-0.066
11.152,-0.570,0.801,-0.064
11.162,-0.572,0.795,-0.072
11.172,-0.572,0.793,-0.070
11.182,-0.582,0.791,-0.068
11.191,-0.580,0.793,-0.068
11.201,-0.584,0.793,-0.068
11.211,-0.590,0.789,-0.070
11.221,-0.590,0.785,-0.068
11.231,-0.596,0.779,-0.068
11.241,-0.607,0.762,-0.072
11.251,-0.604,0.760,-0.074
11.261,-0.613,0.754,-0.076
11.271,-0.617,0.758,-0.072
11.281,-0.623,0.762,-0.066
11.291,-0.631,0.773,-0.068
11.301,-0.623,0.781,-0.061
11.311,-0.619,0.789,-0.057
11.321,-0.617,0.799,-0.055
11.331,-0.613,0.801,-0.053
11.340,-0.615,0.795,-0.053
11.350,-0.613,0.797,-0.057
11.360,-0.611,0.791,-0.053
11.370,-0.609,0.779,-0.053
11.380,-0.607,0.770,-0.053
11.390,-0.611,0.768,-0.057
11.400,-0.600,0.768,-0.057
11.410,-0.594,0.770,-0.057
11.420,-0.588,0.768,-0.055
11.430,-0.586,0.771,-0.055
11.440,-0.588,0.771,-0.055
11.450,-0.584,0.775,-0.057
11.460,-0.584,0.777,-0.053
11.470,-0.592,0.793,-0.051
11.479,-0.602,0.807,-0.051
11.489,-0.609,0.818,-0.053
11.499,-0.621,0.820,-0.047
11.509,-0.627,0.811,-0.047
11.519,-0.625,0.805,-0.047
11.529,-0.623,0.789,-0.053
11.539,-0.611,0.771,-0.053
11.549,-0.600,0.762,-0.053
11.559,-0.598,0.758,-0.053
11.569,-0.594,0.764,-0.053
11.579,-0.602,0.770,-0.051
11.589,-0.609,0.773,-0.047
11.599,-0.615,0.781,-0.049
11.609,-0.615,0.785,-0.043
11.619,-0.613,0.787,-0.045
11.628,-0.604,0.777,-0.043
11.638,-0.598,0.781,-0.045
11.648,-0.584,0.781,-0.047
11.658,-0.586,0.783,-0.041
11.668,-0.596,0.783,-0.041
11.678,-0.598,0.781,-0.043
11.688,-0.613,0.779,-0.045
11.698,-0.621,0.777,-0.051
11.708,-0.625,0.770,-0.051
11.718,-0.637,0.762,-0.055
11.728,-0.631,0.762,-0.057
11.738,-0.631,0.764,-0.059
11.748,-0.629,0.770,-0.062
11.758,-0.627,0.777,-0.051
11.768,-0.621,0.785,-0.041
11.777,-0.613,0.789,-0.041
11.787,-0.615,0.789,-0.051
11.797,-0.627,0.803,-0.062
11.807,-0.637,0.797,-0.066
11.817,-0.645,0.791,-0.072
11.827,-0.639,0.775,-0.074
11.837,-0.637,0.758,-0.076
11.847,-0.633,0.750,-0.078
11.857,-0.625,0.748,-0.078
11.867,-0.619,0.744,-0.080
11.877,-0.611,0.746,-0.078
11.887,-0.611,0.750,-0.080
11.897,-0.607,0.756,-0.080
11.907,-0.607,0.771,-0.078
11.917,-0.605,0.785,-0.070
11.926,-0.605,0.795,-0.068
11.936,-0.607,0.799,-0.066
11.946,-0.607,0.805,-0.062
11.956,-0.607,0.807,-0.062
11.966,-0.609,0.805,-0.062
11.976,-0.605,0.801,-0.059
11.986,-0.604,0.791,-0.059
11.996,-0.605,0.787,-0.061
12.006,-0.604,0.781,-0.061
12.016,-0.598,0.775,-0.059
12.026,-0.596,0.770,-0.059
12.036,-0.590,0.771,-0.061
12.046,-0.594,0.781,-0.059
12.056,-0.596,0.779,-0.053
12.065,-0.596,0.787,-0.055
12.075,-0.600,0.781,-0.059
12.085,-0.604,0.783,-0.061
12.095,-0.609,0.787,-0.059
12.105,-0.611,0.791,-0.057
12.115,-0.611,0.793,-0.057
12.125,-0.609,0.793,-0.057
12.135,-0.605,0.795,-0.057
12.145,-0.602,0.787,-0.053
12.155,-0.602,0.785,-0.055
12.165,-0.600,0.781,-0.057
12.175,-0.604,0.779,-0.055
12.185,-0.596,0.777,-0.057
12.195,-0.600,0.775,-0.057
12.205,-0.602,0.773,-0.059
12.214,-0.604,0.775,-0.057
12.224,-0.605,0.777,-0.059
12.234,-0.607,0.779,-0.061
12.244,-0.605,0.781,-0.059
12.254,-0.609,0.785,-0.061
12.264,-0.609,0.787,-0.057
12.274,-0.615,0.785,-0.059
12.284,-0.611,0.785,-0.059
12.294,-0.611,0.783,-0.061
12.304,-0.611,0.785,-0.061
12.314,-0.609,0.781,-0.062
12.324,-0.613,0.785,-0.061
12.334,-0.613,0.781,-0.062
12.344,-0.613,0.775,-0.057
12.354,-0.613,0.777,-0.061
12.363,-0.615,0.771,-0.062
12.373,-0.619,0.775,-0.057
12.383,-0.615,0.775,-0.059
12.393,-0.615,0.777,-0.059
12.403,-0.615,0.777,-0.059
12.413,-0.615,0.781,-0.059
12.423,-0.617,0.781,-0.059
12.433,-0.615,0.781,-0.059
12.443,-0.619,0.777,-0.055
12.453,-0.621,0.779,-0.059
12.463,-0.613,0.771,-0.057
12.473,-0.615,0.775,-0.057
12.483,-0.613,0.777,-0.061
12.493,-0.615,0.777,-0.059
12.502,-0.617,0.775,-0.059
12.512,-0.615,0.773,-0.057
12.522,-0.621,0.773,-0.059
12.532,-0.619,0.777,-0.059
12.542,-0.621,0.781,-0.059
12.552,-0.617,0.781,-0.057
12.562,-0.615,0.781,-0.059
12.572,-0.615,0.777,-0.059
12.582,-0.611,0.771,-0.061
12.592,-0.613,0.771,-0.061
12.602,-0.611,0.773,-0.059
12.612,-0.617,0.771,-0.061
12.622,-0.615,0.777,-0.059
12.632,-0.611,0.777,-0.059
12.642,-0.613,0.777,-0.061
12.651,-0.617,0.781,-0.062
12.661,-0.615,0.785,-0.061
12.671,-0.617,0.781,-0.064
12.681,-0.619,0.781,-0.062
12.691,-0.615,0.781,-0.064
12.701,-0.615,0.777,-0.064
12.711,-0.617,0.775,-0.066
12.721,-0.617,0.773,-0.061
12.731,-0.615,0.777,-0.064
12.741,-0.613,0.779,-0.062
12.751,-0.611,0.779,-0.062
12.761,-0.613,0.766,-0.064
12.771,-0.613,0.770,-0.064
12.781,-0.617,0.771,-0.066
12.791,-0.619,0.775,-0.066
12.800,-0.619,0.781,-0.062
12.810,-0.621,0.783,-0.066
12.820,-0.619,0.783,-0.062
12.830,-0.619,0.781,-0.061
12.840,-0.623,0.779,-0.066
12.850,-0.619,0.777,-0.061
12.860,-0.617,0.773,-0.062
12.870,-0.617,0.779,-0.064
12.880,-0.609,0.777,-0.064
12.890,-0.613,0.775,-0.061
12.900,-0.615,0.775,-0.062
12.910,-0.611,0.775,-0.061
12.920,-0.615,0.779,-0.064
12.930,-0.613,0.775,-0.061
12.940,-0.609,0.783,-0.061
12.949,-0.617,0.777,-0.061
12.959,-0.609,0.783,-0.062
12.969,-0.613,0.781,-0.061
12.979,-0.615,0.779,-0.064
12.989,-0.615,0.779,-0.059
12.999,-0.613,0.781,-0.059
13.009,-0.607,0.777,-0.061
13.019,-0.613,0.775,-0.057
13.029,-0.611,0.775,-0.059
13.039,-0.609,0.779,-0.059
13.049,-0.609,0.777,-0.059
13.059,-0.611,0.779,-0.059
13.069,-0.609,0.777,-0.061
13.079,-0.611,0.773,-0.061
13.088,-0.613,0.779,-0.061
13.098,-0.615,0.779,-0.059
13.108,-0.621,0.779,-0.059
13.118,-0.619,0.781,-0.057
13.128,-0.617,0.779,-0.057
13.138,-0.615,0.777,-0.059
13.148,-0.619,0.779,-0.059
13.158,-0.617,0.775,-0.059
13.168,-0.615,0.775,-0.055
13.178,-0.613,0.771,-0.055
13.188,-0.613,0.771,-0.051
13.198,-0.611,0.773,-0.055
13.208,-0.609,0.775,-0.057
13.218,-0.617,0.781,-0.057
13.228,-0.613,0.775,-0.053
13.237,-0.617,0.773,-0.055
13.247,-0.619,0.777,-0.057
13.257,-0.623,0.779,-0.057
13.267,-0.625,0.783,-0.057
13.277,-0.623,0.787,-0.055
13.287,-0.619,0.783,-0.053
13.297,-0.619,0.775,-0.055
13.307,-0.619,0.771,-0.055
13.317,-0.615,0.768,-0.053
13.327,-0.617,0.771,-0.051
13.337,-0.619,0.773,-0.051
13.347,-0.619,0.771,-0.053
13.357,-0.619,0.775,-0.049
13.367,-0.617,0.775,-0.051
13.377,-0.617,0.771,-0.051
13.386,-0.621,0.775,-0.053
13.396,-0.617,0.777,-0.053
13.406,-0.621,0.773,-0.053
13.416,-0.625,0.773,-0.051
13.426,-0.625,0.773,-0.051
13.436,-0.625,0.775,-0.057
13.446,-0.621,0.773,-0.051
13.456,-0.625,0.779,-0.053
13.466,-0.617,0.775,-0.053
13.476,-0.617,0.773,-0.053
13.486,-0.619,0.764,-0.055
13.496,-0.617,0.762,-0.051
13.506,-0.621,0.773,-0.055
13.516,-0.625,0.775,-0.055
13.525,-0.625,0.779,-0.051
13.535,-0.625,0.777,-0.053
13.545,-0.625,0.777,-0.051
13.555,-0.625,0.775,-0.051
13.565,-0.621,0.773,-0.051
13.575,-0.623,0.771,-0.051
13.585,-0.623,0.771,-0.053
13.595,-0.619,0.771,-0.051
13.605,-0.621,0.773,-0.055
13.615,-0.623,0.773,-0.053
13.625,-0.619,0.770,-0.049
13.635,-0.617,0.770,-0.053
13.645,-0.617,0.773,-0.055
13.655,-0.621,0.771,-0.053
13.665,-0.619,0.771,-0.055
13.674,-0.621,0.773,-0.055
13.684,-0.621,0.775,-0.051
13.694,-0.623,0.775,-0.057
13.704,-0.625,0.777,-0.057
13.714,-0.623,0.777,-0.055
13.724,-0.623,0.777,-0.057
13.734,-0.621,0.775,-0.055
13.744,-0.617,0.773,-0.055
13.754,-0.621,0.775,-0.057
13.764,-0.613,0.775,-0.053
13.774,-0.613,0.771,-0.055
13.784,-0.617,0.773,-0.053
13.794,-0.619,0.771,-0.053
13.804,-0.617,0.775,-0.055
13.814,-0.619,0.773,-0.057
13.823,-0.623,0.773,-0.059
13.833,-0.623,0.773,-0.057
13.843,-0.623,0.773,-0.053
13.853,-0.625,0.777,-0.057
13.863,-0.621,0.773,-0.053
13.873,-0.621,0.773,-0.055
13.883,-0.625,0.777,-0.053
13.893,-0.625,0.775,-0.055
13.903,-0.623,0.773,-0.055
13.913,-0.625,0.775,-0.053
13.923,-0.617,0.773,-0.055
13.933,-0.613,0.768,-0.051
13.943,-0.615,0.771,-0.051
13.953,-0.615,0.768,-0.051
13.963,-0.613,0.773,-0.053
13.972,-0.615,0.775,-0.057
13.982,-0.615,0.771,-0.059
13.992,-0.623,0.768,-0.055
14.002,-0.625,0.777,-0.055
14.012,-0.629,0.777,-0.055
14.022,-0.629,0.781,-0.059
14.032,-0.625,0.781,-0.055
14.042,-0.629,0.777,-0.053
14.052,-0.623,0.775,-0.049
14.062,-0.621,0.770,-0.053
14.072,-0.623,0.768,-0.057
14.082,-0.623,0.771,-0.055
14.092,-0.623,0.768,-0.051
14.102,-0.627,0.771,-0.053
14.111,-0.625,0.770,-0.053
14.121,-0.627,0.771,-0.053
14.131,-0.625,0.770,-0.049
14.141,-0.627,0.771,-0.051
14.151,-0.629,0.775,-0.053
14.161,-0.631,0.771,-0.053
14.171,-0.627,0.771,-0.055
14.181,-0.631,0.770,-0.057
14.191,-0.627,0.768,-0.053
14.201,-0.629,0.771,-0.055
14.211,-0.623,0.770,-0.049
14.221,-0.621,0.770,-0.049
14.231,-0.623,0.764,-0.049
14.241,-0.619,0.764,-0.051
14.251,-0.623,0.766,-0.055
14.260,-0.627,0.771,-0.053
14.270,-0.627,0.775,-0.053
14.280,-0.627,0.777,-0.053
14.290,-0.627,0.781,-0.051
14.300,-0.627,0.781,-0.053
14.310,-0.627,0.777,-0.053
14.320,-0.623,0.773,-0.051
14.330,-0.621,0.771,-0.055
14.340,-0.623,0.770,-0.049
14.350,-0.621,0.768,-0.051
14.360,-0.619,0.768,-0.051
14.370,-0.617,0.764,-0.051
14.380,-0.619,0.766,-0.051
14.390,-0.621,0.770,-0.051
14.400,-0.623,0.771,-0.053
14.409,-0.623,0.770,-0.053
14.419,-0.623,0.777,-0.055
14.429,-0.629,0.779,-0.055
14.439,-0.625,0.781,-0.057
14.449,-0.623,0.779,-0.053
14.459,-0.627,0.777,-0.055
14.469,-0.625,0.777,-0.055
14.479,-0.619,0.777,-0.051
14.489,-0.617,0.775,-0.053
14.499,-0.617,0.771,-0.053
14.509,-0.615,0.771,-0.051
14.519,-0.615,0.773,-0.049
14.529,-0.615,0.770,-0.051
14.539,-0.621,0.773,-0.049
14.549,-0.621,0.771,-0.053
14.558,-0.623,0.773,-0.053
14.568,-0.619,0.771,-0.049
14.578,-0.625,0.771,-0.057
14.588,-0.623,0.773,-0.051
14.598,-0.627,0.779,-0.049
14.608,-0.625,0.779,-0.053
14.618,-0.623,0.779,-0.051
14.628,-0.621,0.777,-0.051
14.638,-0.619,0.779,-0.049
14.648,-0.627,0.773,-0.053
14.658,-0.627,0.771,-0.051
14.668,-0.621,0.770,-0.049
14.678,-0.621,0.770,-0.047
14.688,-0.619,0.770,-0.047
14.697,-0.621,0.768,-0.049
14.707,-0.623,0.768,-0.053
14.717,-0.623,0.771,-0.053
14.727,-0.627,0.768,-0.055
14.737,-0.639,0.752,-0.066
14.747,-0.662,0.734,-0.080
14.757,-0.691,0.723,-0.088
14.767,-0.693,0.725,-0.078
14.777,-0.693,0.744,-0.066
14.787,-0.682,0.756,-0.061
14.797,-0.674,0.754,-0.057
14.807,-0.656,0.756,-0.059
14.817,-0.648,0.750,-0.059
14.827,-0.646,0.748,-0.057
14.837,-0.637,0.756,-0.051
14.846,-0.631,0.762,-0.049
14.856,-0.625,0.773,-0.047
14.866,-0.615,0.783,-0.041
14.876,-0.605,0.785,-0.035
14.886,-0.605,0.789,-0.031
14.896,-0.590,0.791,-0.035
14.906,-0.590,0.799,-0.031
14.916,-0.586,0.807,-0.033
14.926,-0.576,0.805,-0.029
14.936,-0.582,0.801,-0.031
14.946,-0.582,0.799,-0.031
14.956,-0.576,0.809,-0.031
14.966,-0.578,0.809,-0.031
14.976,-0.582,0.807,-0.033
14.986,-0.594,0.807,-0.037
14.995,-0.596,0.811,-0.037
15.005,-0.600,0.814,-0.041
15.015,-0.605,0.811,-0.045
15.025,-0.605,0.803,-0.045
15.035,-0.605,0.795,-0.043
15.045,-0.605,0.785,-0.043
15.055,-0.602,0.775,-0.041
15.065,-0.592,0.770,-0.043
15.075,-0.592,0.756,-0.039
15.085,-0.588,0.752,-0.041
15.095,-0.588,0.754,-0.045
15.105,-0.596,0.746,-0.043
15.115,-0.607,0.756,-0.043
15.125,-0.619,0.766,-0.041
15.134,-0.623,0.771,-0.043
15.144,-0.631,0.783,-0.041
15.154,-0.631,0.789,-0.041
15.164,-0.621,0.797,-0.043
15.174,-0.611,0.803,-0.039
15.184,-0.600,0.809,-0.039
15.194,-0.594,0.805,-0.037
15.204,-0.586,0.797,-0.039
15.214,-0.582,0.801,-0.037
15.224,-0.588,0.787,-0.041
15.234,-0.592,0.789,-0.041
15.244,-0.596,0.787,-0.047
15.254,-0.594,0.785,-0.051
15.264,-0.600,0.787,-0.049
15.274,-0.600,0.797,-0.051
15.283,-0.605,0.791,-0.053
15.293,-0.611,0.789,-0.057
15.303,-0.613,0.781,-0.061
15.313,-0.615,0.783,-0.061
15.323,-0.625,0.762,-0.070
15.333,-0.641,0.748,-0.072
15.343,-0.646,0.748,-0.078
15.353,-0.652,0.738,-0.078
15.363,-0.652,0.746,-0.084
15.373,-0.656,0.748,-0.078
15.383,-0.656,0.742,-0.096
15.393,-0.666,0.701,-0.115
15.403,-0.691,0.670,-0.113
15.413,-0.697,0.680,-0.098
15.423,-0.684,0.719,-0.078
15.432,-0.654,0.762,-0.074
15.442,-0.615,0.803,-0.061
15.452,-0.578,0.836,-0.061
15.462,-0.564,0.855,-0.055
15.472,-0.529,0.873,-0.061
15.482,-0.510,0.879,-0.057
15.492,-0.496,0.873,-0.062
15.502,-0.490,0.881,-0.057
15.512,-0.484,0.881,-0.053
15.522,-0.488,0.881,-0.049
15.532,-0.486,0.889,-0.041
15.542,-0.494,0.875,-0.039
15.552,-0.502,0.861,-0.043
15.562,-0.508,0.857,-0.045
15.572,-0.502,0.846,-0.041
15.581,-0.506,0.840,-0.045
15.591,-0.506,0.826,-0.047
15.601,-0.512,0.816,-0.047
15.611,-0.516,0.812,-0.051
15.621,-0.525,0.809,-0.049
15.631,-0.545,0.799,-0.049
15.641,-0.568,0.795,-0.055
15.651,-0.582,0.787,-0.057
15.661,-0.596,0.785,-0.055
15.671,-0.602,0.781,-0.053
15.681,-0.607,0.777,-0.057
15.691,-0.615,0.775,-0.055
15.701,-0.619,0.781,-0.055
15.711,-0.619,0.781,-0.055
15.720,-0.623,0.777,-0.059
15.730,-0.623,0.781,-0.057
15.740,-0.623,0.789,-0.059
15.750,-0.625,0.785,-0.062
15.760,-0.619,0.785,-0.064
15.770,-0.611,0.789,-0.064
15.780,-0.613,0.787,-0.062
15.790,-0.605,0.787,-0.062
15.800,-0.604,0.787,-0.064
15.810,-0.604,0.787,-0.064
15.820,-0.598,0.789,-0.064
15.830,-0.592,0.791,-0.068
15.840,-0.586,0.795,-0.066
15.850,-0.578,0.795,-0.064
15.860,-0.580,0.797,-0.068
15.869,-0.580,0.797,-0.068
15.879,-0.576,0.795,-0.066
15.889,-0.580,0.795,-0.072
15.899,-0.580,0.797,-0.070
15.909,-0.582,0.793,-0.070
15.919,-0.584,0.799,-0.068
15.929,-0.592,0.795,-0.072
15.939,-0.592,0.795,-0.068
15.949,-0.592,0.793,-0.064
15.959,-0.590,0.799,-0.066
15.969,-0.586,0.801,-0.066
15.979,-0.586,0.799,-0.061
15.989,-0.590,0.799,-0.064
15.999,-0.586,0.797,-0.062
16.009,-0.590,0.795,-0.062
16.018,-0.596,0.793,-0.059
16.028,-0.596,0.793,-0.059
16.038,-0.596,0.793,-0.059
16.048,-0.594,0.797,-0.059
16.058,-0.594,0.801,-0.057
16.068,-0.594,0.801,-0.059
16.078,-0.590,0.795,-0.057
16.088,-0.590,0.795,-0.061
16.098,-0.592,0.787,-0.057
16.108,-0.588,0.785,-0.057
16.118,-0.582,0.791,-0.059
16.128,-0.582,0.797,-0.057
16.138,-0.578,0.807,-0.055
16.148,-0.572,0.812,-0.053
16.157,-0.572,0.816,-0.049
16.167,-0.568,0.826,-0.049
16.177,-0.562,0.830,-0.047
16.187,-0.561,0.840,-0.051
16.197,-0.562,0.834,-0.049
16.207,-0.561,0.838,-0.051
16.217,-0.562,0.836,-0.051
16.227,-0.561,0.832,-0.047
16.237,-0.557,0.836,-0.039
16.247,-0.549,0.848,-0.031
16.257,-0.537,0.863,-0.021
16.267,-0.516,0.910,-0.004
16.277,-0.486,0.957,0.012
16.287,-0.449,1.002,0.025
16.297,-0.395,1.020,0.021
16.306,-0.346,1.014,0.012
16.316,-0.318,0.986,-0.008
16.326,-0.281,0.971,-0.027
16.336,-0.275,0.941,-0.055
16.346,-0.277,0.920,-0.088
16.356,-0.275,0.912,-0.102
16.366,-0.283,0.920,-0.119
16.376,-0.285,0.939,-0.141
16.386,-0.316,0.943,-0.172
16.396,-0.352,0.924,-0.217
16.406,-0.383,0.889,-0.270
16.416,-0.430,0.846,-0.320
16.426,-0.486,0.809,-0.357
16.436,-0.525,0.791,-0.375
16.446,-0.576,0.768,-0.385
16.455,-0.635,0.729,-0.406
16.465,-0.693,0.709,-0.396
16.475,-0.744,0.705,-0.381
16.485,-0.789,0.678,-0.369
16.495,-0.840,0.643,-0.352
16.505,-0.869,0.635,-0.326
16.515,-0.889,0.602,-0.303
16.525,-0.920,0.574,-0.273
16.535,-0.938,0.572,-0.242
16.545,-0.943,0.582,-0.217
16.555,-0.941,0.582,-0.182
16.565,-0.936,0.574,-0.160
16.575,-0.900,0.557,-0.135
16.585,-0.881,0.574,-0.113
16.595,-0.863,0.592,-0.088
16.604,-0.852,0.600,-0.061
16.614,-0.820,0.611,-0.037
16.624,-0.783,0.621,-0.016
16.634,-0.766,0.633,0.008
16.644,-0.744,0.650,0.027
16.654,-0.715,0.666,0.045
16.664,-0.693,0.670,0.061
16.674,-0.682,0.686,0.074
16.684,-0.668,0.697,0.092
16.694,-0.656,0.707,0.104
16.704,-0.652,0.711,0.107
16.714,-0.654,0.707,0.109
16.724,-0.654,0.713,0.109
16.734,-0.662,0.713,0.107
16.743,-0.662,0.709,0.102
16.753,-0.668,0.703,0.092
16.763,-0.664,0.691,0.088
16.773,-0.662,0.691,0.084
16.783,-0.664,0.676,0.076
16.793,-0.680,0.670,0.066
16.803,-0.689,0.648,0.064
16.813,-0.701,0.650,0.057
16.823,-0.705,0.641,0.055
16.833,-0.715,0.635,0.037
16.843,-0.736,0.641,0.025
16.853,-0.789,0.646,0.002
16.863,-0.838,0.693,-0.008
16.873,-0.873,0.715,-0.016
16.883,-0.893,0.723,-0.029
16.892,-0.893,0.725,-0.039
16.902,-0.875,0.703,-0.045
16.912,-0.854,0.689,-0.041
16.922,-0.832,0.664,-0.037
16.932,-0.807,0.648,-0.027
16.942,-0.781,0.643,-0.018
16.952,-0.771,0.635,-0.010
16.962,-0.754,0.645,0.004
16.972,-0.746,0.654,0.016
16.982,-0.734,0.654,0.025
16.992,-0.717,0.660,0.033
17.002,-0.697,0.660,0.035
17.012,-0.674,0.654,0.041
17.022,-0.660,0.666,0.051
17.032,-0.646,0.682,0.045
17.041,-0.646,0.684,0.045
17.051,-0.656,0.703,0.041
17.061,-0.656,0.705,0.039
17.071,-0.650,0.703,0.039
17.081,-0.641,0.707,0.043
17.091,-0.633,0.705,0.041
17.101,-0.633,0.715,0.051
17.111,-0.639,0.711,0.049
17.121,-0.646,0.703,0.051
17.131,-0.645,0.703,0.055
17.141,-0.648,0.709,0.059
17.151,-0.648,0.701,0.061
17.161,-0.654,0.686,0.062
17.171,-0.656,0.684,0.062
17.180,-0.650,0.684,0.070
17.190,-0.650,0.674,0.066
17.200,-0.650,0.664,0.068
17.210,-0.656,0.662,0.066
17.220,-0.672,0.668,0.062
17.230,-0.691,0.668,0.062
17.240,-0.715,0.699,0.059
17.250,-0.742,0.723,0.055
17.260,-0.771,0.730,0.049
17.270,-0.787,0.736,0.045
17.280,-0.797,0.721,0.045
17.290,-0.779,0.709,0.045
17.300,-0.762,0.719,0.053
17.310,-0.754,0.734,0.057
17.320,-0.748,0.750,0.064
17.329,-0.732,0.756,0.068
17.339,-0.725,0.756,0.070
17.349,-0.715,0.766,0.068
17.359,-0.711,0.760,0.061
17.369,-0.691,0.764,0.059
17.379,-0.691,0.756,0.066
17.389,-0.688,0.754,0.066
17.399,-0.678,0.777,0.068
17.409,-0.682,0.785,0.066
17.419,-0.684,0.787,0.059
17.429,-0.678,0.793,0.055
17.439,-0.672,0.797,0.055
17.449,-0.668,0.807,0.055
17.459,-0.658,0.816,0.053
17.469,-0.656,0.814,0.049
17.478,-0.650,0.818,0.039
17.488,-0.648,0.816,0.035
17.498,-0.637,0.830,0.029
17.508,-0.625,0.844,0.029
17.518,-0.611,0.842,0.029
17.528,-0.594,0.838,0.029
17.538,-0.580,0.832,0.027
17.548,-0.559,0.834,0.027
17.558,-0.543,0.840,0.029
17.568,-0.531,0.846,0.035
17.578,-0.518,0.863,0.037
17.588,-0.514,0.871,0.041
17.598,-0.504,0.873,0.035
17.608,-0.506,0.875,0.041
17.618,-0.502,0.879,0.039
17.627,-0.492,0.885,0.041
17.637,-0.490,0.885,0.041
17.647,-0.486,0.877,0.045
17.657,-0.477,0.867,0.047
17.667,-0.475,0.865,0.053
17.677,-0.473,0.871,0.057
17.687,-0.469,0.865,0.062
17.697,-0.469,0.867,0.062
17.707,-0.473,0.867,0.064
17.717,-0.467,0.871,0.068
17.727,-0.473,0.867,0.068
17.737,-0.479,0.877,0.074
17.747,-0.467,0.881,0.080
17.757,-0.463,0.877,0.086
17.766,-0.451,0.869,0.092
17.776,-0.453,0.867,0.092
17.786,-0.461,0.881,0.100
17.796,-0.465,0.889,0.104
17.806,-0.473,0.883,0.100
17.816,-0.477,0.889,0.107
17.826,-0.480,0.885,0.107
17.836,-0.477,0.857,0.109
17.846,-0.477,0.846,0.113
17.856,-0.477,0.861,0.119
17.866,-0.479,0.871,0.121
17.876,-0.475,0.865,0.121
17.886,-0.477,0.867,0.123
17.896,-0.467,0.861,0.121
17.906,-0.463,0.842,0.117
17.915,-0.467,0.834,0.117
17.925,-0.467,0.830,0.113
17.935,-0.461,0.826,0.117
17.945,-0.469,0.836,0.115
17.955,-0.469,0.838,0.111
17.965,-0.465,0.846,0.115
17.975,-0.469,0.844,0.113
17.985,-0.465,0.848,0.111
17.995,-0.463,0.838,0.107
18.005,-0.461,0.840,0.107
18.015,-0.461,0.834,0.105
18.025,-0.463,0.826,0.100
18.035,-0.459,0.816,0.100
18.045,-0.459,0.816,0.100
18.055,-0.463,0.811,0.090
18.064,-0.471,0.811,0.088
18.074,-0.482,0.799,0.080
18.084,-0.488,0.797,0.068
18.094,-0.508,0.807,0.062
18.104,-0.514,0.797,0.057
18.114,-0.531,0.807,0.055
18.124,-0.525,0.824,0.049
18.134,-0.512,0.824,0.047
18.144,-0.514,0.830,0.043
18.154,-0.500,0.850,0.051
18.164,-0.484,0.859,0.051
18.174,-0.486,0.863,0.049
18.184,-0.477,0.859,0.047
18.194,-0.479,0.855,0.041
18.204,-0.469,0.867,0.043
18.213,-0.461,0.879,0.051
18.223,-0.455,0.895,0.057
18.233,-0.422,0.920,0.066
18.243,-0.400,0.914,0.072
18.253,-0.396,0.891,0.080
18.263,-0.412,0.900,0.076
18.273,-0.422,0.898,0.076
18.283,-0.432,0.893,0.072
18.293,-0.432,0.912,0.070
18.303,-0.428,0.908,0.068
18.313,-0.428,0.900,0.072
18.323,-0.449,0.895,0.074
18.333,-0.453,0.891,0.078
18.343,-0.475,0.881,0.076
18.352,-0.494,0.885,0.070
18.362,-0.486,0.889,0.072
18.372,-0.482,0.877,0.076
18.382,-0.488,0.885,0.076
18.392,-0.494,0.895,0.078
18.402,-0.488,0.902,0.080
18.412,-0.492,0.896,0.082
18.422,-0.490,0.898,0.082
18.432,-0.480,0.891,0.090
18.442,-0.488,0.891,0.092
18.452,-0.490,0.889,0.092
18.462,-0.490,0.885,0.096
18.472,-0.494,0.881,0.096
18.482,-0.496,0.879,0.094
18.492,-0.500,0.877,0.096
18.501,-0.498,0.873,0.094
18.511,-0.498,0.867,0.094
18.521,-0.498,0.861,0.096
18.531,-0.492,0.859,0.098
18.541,-0.494,0.867,0.104
18.551,-0.490,0.863,0.102
18.561,-0.492,0.863,0.105
18.571,-0.484,0.865,0.105
18.581,-0.482,0.865,0.105
18.591,-0.480,0.861,0.107
18.601,-0.480,0.863,0.107
18.611,-0.480,0.857,0.102
18.621,-0.477,0.854,0.104
18.631,-0.477,0.857,0.104
18.641,-0.484,0.861,0.102
18.650,-0.479,0.863,0.105
18.660,-0.480,0.865,0.107
18.670,-0.482,0.869,0.105
18.680,-0.482,0.871,0.105
18.690,-0.477,0.875,0.109
18.700,-0.477,0.877,0.109
18.710,-0.473,0.877,0.113
18.720,-0.473,0.879,0.115
18.730,-0.465,0.883,0.117
18.740,-0.467,0.871,0.117
18.750,-0.467,0.869,0.117
18.760,-0.467,0.865,0.121
18.770,-0.463,0.863,0.119
18.780,-0.461,0.865,0.121
18.789,-0.465,0.863,0.121
18.799,-0.461,0.869,0.121
18.809,-0.459,0.877,0.125
18.819,-0.463,0.877,0.121
18.829,-0.463,0.879,0.125
18.839,-0.463,0.881,0.127
18.849,-0.461,0.883,0.125
18.859,-0.461,0.889,0.127
18.869,-0.459,0.889,0.129
18.879,-0.455,0.885,0.127
18.889,-0.453,0.881,0.125
18.899,-0.447,0.881,0.125
18.909,-0.443,0.879,0.125
18.919,-0.441,0.877,0.125
18.929,-0.443,0.875,0.123
18.938,-0.441,0.875,0.123
18.948,-0.436,0.877,0.125
18.958,-0.438,0.877,0.123
18.968,-0.438,0.875,0.123
18.978,-0.438,0.873,0.123
18.988,-0.438,0.875,0.123
18.998,-0.441,0.875,0.119
19.008,-0.438,0.879,0.121
19.018,-0.439,0.881,0.119
19.028,-0.438,0.875,0.119
19.038,-0.438,0.881,0.119
19.048,-0.441,0.885,0.119
19.058,-0.439,0.885,0.117
19.068,-0.438,0.885,0.117
19.078,-0.436,0.879,0.113
19.087,-0.428,0.875,0.119
19.097,-0.428,0.877,0.117
19.107,-0.430,0.885,0.119
19.117,-0.430,0.881,0.121
19.127,-0.432,0.881,0.123
19.137,-0.432,0.881,0.123
19.147,-0.438,0.879,0.125
19.157,-0.436,0.885,0.125
19.167,-0.436,0.885,0.125
19.177,-0.438,0.883,0.125
19.187,-0.436,0.881,0.123
19.197,-0.432,0.883,0.125
19.207,-0.434,0.883,0.125
19.217,-0.436,0.885,0.123
19.227,-0.432,0.883,0.125
19.236,-0.436,0.883,0.125
19.246,-0.436,0.879,0.123
19.256,-0.441,0.879,0.125
19.266,-0.441,0.881,0.125
19.276,-0.441,0.885,0.127
19.286,-0.441,0.883,0.127
19.296,-0.439,0.887,0.129
19.306,-0.445,0.887,0.125
19.316,-0.441,0.889,0.125
19.326,-0.439,0.881,0.127
19.336,-0.445,0.881,0.127
19.346,-0.439,0.881,0.123
19.356,-0.441,0.881,0.127
19.366,-0.443,0.877,0.123
19.375,-0.447,0.877,0.127
19.385,-0.439,0.873,0.127
19.395,-0.445,0.877,0.123
19.405,-0.445,0.879,0.125
19.415,-0.441,0.879,0.123
19.425,-0.447,0.877,0.123
19.435,-0.438,0.879,0.123
19.445,-0.438,0.875,0.127
19.455,-0.436,0.875,0.127
19.465,-0.436,0.877,0.131
19.475,-0.438,0.877,0.133
19.485,-0.430,0.877,0.131
19.495,-0.430,0.877,0.131
19.505,-0.434,0.875,0.127
19.515,-0.439,0.877,0.133
19.524,-0.438,0.883,0.133
19.534,-0.439,0.883,0.135
19.544,-0.438,0.885,0.135
19.554,-0.438,0.883,0.133
19.564,-0.436,0.887,0.135
19.574,-0.434,0.883,0.137
19.584,-0.434,0.881,0.139
19.594,-0.432,0.879,0.139
19.604,-0.436,0.875,0.137
19.614,-0.432,0.881,0.137
19.624,-0.430,0.881,0.137
19.634,-0.430,0.883,0.137
19.644,-0.432,0.881,0.141
19.654,-0.430,0.881,0.139
19.664,-0.426,0.881,0.141
19.673,-0.430,0.887,0.137
19.683,-0.430,0.887,0.139
19.693,-0.430,0.891,0.141
19.703,-0.428,0.885,0.141
19.713,-0.428,0.887,0.141
19.723,-0.430,0.893,0.141
19.733,-0.426,0.893,0.143
19.743,-0.422,0.883,0.143
19.753,-0.420,0.881,0.143
19.763,-0.418,0.883,0.143
19.773,-0.416,0.889,0.143
19.783,-0.418,0.887,0.146
19.793,-0.420,0.889,0.145
19.803,-0.420,0.891,0.146
19.812,-0.418,0.895,0.146
19.822,-0.424,0.895,0.143
19.832,-0.422,0.893,0.145
19.842,-0.424,0.893,0.143
19.852,-0.424,0.891,0.145
19.862,-0.424,0.893,0.145
19.872,-0.426,0.891,0.146
19.882,-0.428,0.891,0.141
19.892,-0.432,0.889,0.143
19.902,-0.432,0.883,0.145
19.912,-0.436,0.881,0.145
19.922,-0.434,0.883,0.141
19.932,-0.436,0.881,0.148
19.942,-0.436,0.881,0.145
19.952,-0.438,0.885,0.152
19.961,-0.438,0.885,0.152
19.971,-0.438,0.885,0.152
19.981,-0.436,0.883,0.156
19.991,-0.438,0.877,0.156
20.001,-0.438,0.875,0.156
20.011,-0.439,0.879,0.158
20.021,-0.443,0.877,0.160
20.031,-0.447,0.875,0.164
20.041,-0.447,0.871,0.162
20.051,-0.449,0.871,0.166
20.061,-0.453,0.869,0.168
20.071,-0.449,0.871,0.172
20.081,-0.451,0.869,0.174
20.091,-0.451,0.865,0.172
20.101,-0.447,0.865,0.174
20.110,-0.449,0.859,0.174
20.120,-0.451,0.855,0.174
20.130,-0.455,0.859,0.176
20.140,-0.455,0.857,0.176
20.150,-0.455,0.861,0.176
20.160,-0.459,0.857,0.182
20.170,-0.461,0.855,0.182
20.180,-0.459,0.863,0.186
20.190,-0.465,0.857,0.189
20.200,-0.465,0.863,0.188
20.210,-0.467,0.861,0.191
20.220,-0.469,0.861,0.191
20.230,-0.463,0.859,0.191
20.240,-0.467,0.850,0.195
20.250,-0.469,0.848,0.195
20.259,-0.471,0.855,0.199
20.269,-0.473,0.855,0.199
20.279,-0.475,0.857,0.199
20.289,-0.469,0.852,0.197
20.299,-0.473,0.850,0.197
20.309,-0.477,0.859,0.199
20.319,-0.480,0.863,0.201
20.329,-0.475,0.867,0.203
20.339,-0.477,0.865,0.203
20.349,-0.479,0.863,0.203
20.359,-0.479,0.859,0.203
20.369,-0.479,0.854,0.205
20.379,-0.479,0.850,0.203
20.389,-0.479,0.844,0.205
20.398,-0.480,0.848,0.203
20.408,-0.480,0.842,0.201
20.418,-0.486,0.846,0.201
20.428,-0.484,0.848,0.201
20.438,-0.482,0.848,0.201
20.448,-0.488,0.852,0.199
20.458,-0.488,0.855,0.199
20.468,-0.488,0.852,0.201
20.478,-0.488,0.855,0.201
20.488,-0.488,0.850,0.197
20.498,-0.486,0.857,0.197
20.508,-0.488,0.850,0.195
20.518,-0.488,0.854,0.199
20.528,-0.488,0.859,0.199
20.538,-0.480,0.855,0.199
20.547,-0.479,0.852,0.197
20.557,-0.477,0.846,0.195
20.567,-0.479,0.842,0.193
20.577,-0.479,0.850,0.199
20.587,-0.479,0.852,0.197
20.597,-0.480,0.855,0.199
20.607,-0.482,0.857,0.195
20.617,-0.484,0.855,0.193
20.627,-0.482,0.855,0.195
20.637,-0.480,0.854,0.195
20.647,-0.488,0.848,0.193
20.657,-0.484,0.852,0.189
20.667,-0.479,0.854,0.193
20.677,-0.479,0.854,0.189
20.687,-0.479,0.852,0.191
20.696,-0.479,0.850,0.191
20.706,-0.469,0.854,0.195
20.716,-0.475,0.854,0.189
20.726,-0.475,0.852,0.188
20.736,-0.477,0.855,0.188
20.746,-0.477,0.857,0.188
20.756,-0.477,0.861,0.189
20.766,-0.479,0.857,0.189
20.776,-0.477,0.859,0.188
20.786,-0.479,0.861,0.188
20.796,-0.477,0.857,0.188
20.806,-0.473,0.854,0.188
20.816,-0.477,0.854,0.188
20.826,-0.479,0.854,0.189
20.835,-0.479,0.857,0.188
20.845,-0.477,0.855,0.188
20.855,-0.479,0.855,0.188
20.865,-0.480,0.855,0.188
20.875,-0.480,0.859,0.186
20.885,-0.480,0.857,0.184
20.895,-0.480,0.859,0.186
20.905,-0.482,0.861,0.184
20.915,-0.477,0.859,0.186
20.925,-0.479,0.855,0.184
20.935,-0.479,0.857,0.188
20.945,-0.480,0.854,0.188
20.955,-0.479,0.855,0.188
20.965,-0.479,0.857,0.189
20.975,-0.479,0.854,0.184
20.984,-0.479,0.854,0.188
20.994,-0.479,0.852,0.188
21.004,-0.484,0.852,0.188
21.014,-0.488,0.852,0.189
21.024,-0.486,0.854,0.186
21.034,-0.486,0.854,0.189
21.044,-0.482,0.852,0.182
21.054,-0.480,0.844,0.188
21.064,-0.482,0.846,0.193
21.074,-0.480,0.852,0.189
21.084,-0.482,0.852,0.189
21.094,-0.484,0.850,0.188
21.104,-0.484,0.852,0.186
21.114,-0.484,0.854,0.186
21.124,-0.488,0.850,0.188
21.133,-0.490,0.859,0.188
21.143,-0.492,0.859,0.189
21.153,-0.490,0.857,0.188
21.163,-0.490,0.855,0.189
21.173,-0.490,0.852,0.184
21.183,-0.488,0.854,0.184
21.193,-0.488,0.850,0.184
21.203,-0.486,0.846,0.188
21.213,-0.490,0.852,0.186
21.223,-0.490,0.850,0.188
21.233,-0.490,0.848,0.182
21.243,-0.486,0.850,0.191
21.253,-0.488,0.848,0.186
21.263,-0.488,0.850,0.188
21.273,-0.488,0.846,0.188
21.282,-0.486,0.854,0.189
21.292,-0.490,0.850,0.184
21.302,-0.486,0.855,0.189
21.312,-0.484,0.857,0.188
21.322,-0.490,0.857,0.184
21.332,-0.486,0.854,0.184
21.342,-0.486,0.861,0.188
21.352,-0.488,0.861,0.189
21.362,-0.486,0.852,0.186
21.372,-0.486,0.848,0.188
21.382,-0.484,0.852,0.188
21.392,-0.484,0.852,0.186
21.402,-0.486,0.852,0.184
21.412,-0.486,0.859,0.186
21.421,-0.488,0.854,0.186
21.431,-0.492,0.855,0.188
21.441,-0.490,0.855,0.186
21.451,-0.486,0.855,0.188
21.461,-0.486,0.850,0.186
21.471,-0.486,0.854,0.188
21.481,-0.486,0.848,0.189
21.491,-0.486,0.852,0.188
21.501,-0.486,0.848,0.188
21.511,-0.484,0.850,0.188
21.521,-0.486,0.852,0.186
21.531,-0.488,0.850,0.191
21.541,-0.488,0.852,0.184
21.551,-0.492,0.850,0.186
21.561,-0.496,0.846,0.182
21.570,-0.490,0.850,0.182
21.580,-0.494,0.848,0.182
21.590,-0.492,0.852,0.186
21.600,-0.490,0.850,0.186
21.610,-0.486,0.852,0.182
21.620,-0.484,0.850,0.184
21.630,-0.484,0.850,0.186
21.640,-0.480,0.852,0.186
21.650,-0.482,0.854,0.184
21.660,-0.480,0.855,0.186
21.670,-0.480,0.857,0.189
21.680,-0.480,0.857,0.188
21.690,-0.480,0.857,0.191
21.700,-0.484,0.857,0.188
21.710,-0.484,0.854,0.189
21.719,-0.488,0.854,0.186
21.729,-0.488,0.852,0.184
21.739,-0.492,0.848,0.184
21.749,-0.492,0.850,0.184
21.759,-0.494,0.846,0.184
21.769,-0.488,0.846,0.184
21.779,-0.490,0.848,0.182
21.789,-0.490,0.850,0.182
21.799,-0.490,0.850,0.184
21.809,-0.492,0.854,0.182
21.819,-0.492,0.852,0.182
21.829,-0.486,0.852,0.182
21.839,-0.490,0.850,0.182
21.849,-0.488,0.854,0.184
21.859,-0.486,0.855,0.184
21.868,-0.484,0.854,0.184
21.878,-0.488,0.854,0.184
21.888,-0.486,0.854,0.182
21.898,-0.482,0.852,0.182
21.908,-0.482,0.850,0.186
21.918,-0.482,0.854,0.188
21.928,-0.486,0.855,0.182
21.938,-0.482,0.854,0.184
21.948,-0.484,0.854,0.180
21.958,-0.486,0.852,0.178
21.968,-0.488,0.857,0.184
21.978,-0.484,0.863,0.182
21.988,-0.488,0.863,0.188
21.998,-0.490,0.861,0.186
22.007,-0.492,0.857,0.184
22.017,-0.490,0.852,0.180
22.027,-0.490,0.850,0.182
22.037,-0.490,0.848,0.182
22.047,-0.488,0.846,0.182
22.057,-0.488,0.844,0.184
22.067,-0.492,0.848,0.188
22.077,-0.490,0.850,0.184
22.087,-0.486,0.846,0.184
22.097,-0.488,0.850,0.184
22.107,-0.486,0.848,0.184
22.117,-0.484,0.852,0.182
22.127,-0.488,0.850,0.184
22.137,-0.488,0.852,0.182
22.147,-0.488,0.855,0.188
22.156,-0.488,0.854,0.186
22.166,-0.486,0.850,0.186
22.176,-0.490,0.855,0.189
22.186,-0.492,0.857,0.188
22.196,-0.488,0.855,0.188
22.206,-0.490,0.848,0.186
22.216,-0.488,0.846,0.182
22.226,-0.486,0.844,0.186
22.236,-0.488,0.848,0.182
22.246,-0.488,0.854,0.184
22.256,-0.488,0.859,0.188
22.266,-0.492,0.859,0.188
22.276,-0.490,0.855,0.188
22.286,-0.490,0.855,0.184
22.296,-0.490,0.852,0.186
22.305,-0.492,0.852,0.184
22.315,-0.490,0.850,0.188
22.325,-0.488,0.846,0.186
22.335,-0.488,0.848,0.182
22.345,-0.486,0.848,0.188
22.355,-0.490,0.848,0.188
22.365,-0.488,0.852,0.186
22.375,-0.486,0.848,0.184
22.385,-0.490,0.850,0.184
22.395,-0.490,0.850,0.182
22.405,-0.488,0.855,0.184
22.415,-0.490,0.854,0.180
22.425,-0.490,0.854,0.184
22.435,-0.492,0.857,0.186
22.444,-0.488,0.850,0.186
22.454,-0.490,0.850,0.184
22.464,-0.482,0.852,0.182
22.474,-0.486,0.848,0.188
22.484,-0.490,0.848,0.186
22.494,-0.490,0.848,0.184
22.504,-0.492,0.850,0.184
22.514,-0.494,0.848,0.184
22.524,-0.494,0.850,0.184
22.534,-0.492,0.852,0.182
22.544,-0.492,0.852,0.186
22.554,-0.492,0.854,0.182
22.564,-0.492,0.854,0.182
22.574,-0.490,0.850,0.182
22.584,-0.492,0.854,0.182
22.593,-0.492,0.850,0.182
22.603,-0.492,0.854,0.184
22.613,-0.492,0.854,0.182
22.623,-0.490,0.854,0.180
22.633,-0.494,0.850,0.182
22.643,-0.492,0.852,0.180
22.653,-0.492,0.852,0.182
22.663,-0.490,0.854,0.184
22.673,-0.492,0.854,0.182
22.683,-0.490,0.844,0.184
22.693,-0.486,0.842,0.186
22.703,-0.484,0.840,0.186
22.713,-0.488,0.848,0.188
22.723,-0.490,0.850,0.186
22.733,-0.486,0.854,0.188
22.742,-0.488,0.852,0.184
22.752,-0.492,0.854,0.188
22.762,-0.492,0.855,0.186
22.772,-0.494,0.857,0.186
22.782,-0.492,0.857,0.189
22.792,-0.494,0.857,0.186
22.802,-0.494,0.854,0.186
22.812,-0.498,0.848,0.186
22.822,-0.494,0.846,0.184
22.832,-0.494,0.838,0.182
22.842,-0.494,0.838,0.180
22.852,-0.494,0.840,0.186
22.862,-0.494,0.840,0.186
22.872,-0.494,0.844,0.186
22.882,-0.494,0.846,0.184
22.891,-0.494,0.852,0.186
22.901,-0.494,0.850,0.186
22.911,-0.492,0.854,0.186
22.921,-0.490,0.855,0.188
22.931,-0.494,0.854,0.188
22.941,-0.496,0.854,0.186
22.951,-0.496,0.852,0.184
22.961,-0.494,0.846,0.184
22.971,-0.496,0.848,0.186
22.981,-0.498,0.855,0.188
22.991,-0.494,0.854,0.191
23.001,-0.490,0.846,0.186
23.011,-0.494,0.842,0.186
23.021,-0.492,0.842,0.184
23.030,-0.494,0.848,0.184
23.040,-0.498,0.852,0.186
23.050,-0.496,0.854,0.186
23.060,-0.500,0.854,0.189
23.070,-0.498,0.852,0.184
23.080,-0.496,0.848,0.188
23.090,-0.496,0.846,0.186
23.100,-0.492,0.850,0.189
23.110,-0.492,0.850,0.188
23.120,-0.490,0.848,0.188
23.130,-0.486,0.846,0.189
23.140,-0.490,0.850,0.188
23.150,-0.488,0.850,0.189
23.160,-0.488,0.850,0.184
23.170,-0.488,0.850,0.184
23.179,-0.496,0.852,0.186
23.189,-0.494,0.850,0.186
23.199,-0.498,0.852,0.182
23.209,-0.496,0.852,0.186
23.219,-0.496,0.854,0.186
23.229,-0.496,0.854,0.186
23.239,-0.494,0.850,0.186
23.249,-0.490,0.850,0.188
23.259,-0.490,0.850,0.188
23.269,-0.488,0.850,0.186
23.279,-0.486,0.852,0.186
23.289,-0.488,0.846,0.188
23.299,-0.486,0.854,0.189
23.309,-0.492,0.850,0.186
23.319,-0.490,0.854,0.186
23.328,-0.490,0.854,0.186
23.338,-0.494,0.852,0.188
23.348,-0.490,0.850,0.182
23.358,-0.492,0.846,0.188
23.368,-0.494,0.848,0.182
23.378,-0.496,0.850,0.184
23.388,-0.494,0.850,0.184
23.398,-0.498,0.850,0.182
23.408,-0.494,0.850,0.189
23.418,-0.498,0.850,0.188
23.428,-0.496,0.854,0.188
23.438,-0.494,0.852,0.188
23.448,-0.494,0.852,0.186
23.458,-0.488,0.848,0.189
23.467,-0.488,0.846,0.191
23.477,-0.488,0.842,0.189
23.487,-0.488,0.848,0.189
23.497,-0.492,0.850,0.188
23.507,-0.492,0.850,0.191
23.517,-0.492,0.848,0.184
23.527,-0.494,0.850,0.186
23.537,-0.500,0.850,0.188
23.547,-0.500,0.855,0.184
23.557,-0.494,0.859,0.184
23.567,-0.498,0.854,0.186
23.577,-0.500,0.852,0.186
23.587,-0.498,0.848,0.186
23.597,-0.494,0.848,0.189
23.607,-0.494,0.842,0.188
23.616,-0.492,0.838,0.188
23.626,-0.492,0.840,0.184
23.636,-0.500,0.838,0.186
23.646,-0.494,0.840,0.186
23.656,-0.494,0.840,0.182
23.666,-0.494,0.844,0.188
23.676,-0.498,0.850,0.186
23.686,-0.498,0.850,0.186
23.696,-0.498,0.852,0.186
23.706,-0.498,0.854,0.188
23.716,-0.498,0.854,0.186
23.726,-0.498,0.850,0.186
23.736,-0.496,0.850,0.184
23.746,-0.496,0.852,0.189
23.756,-0.498,0.854,0.189
23.765,-0.494,0.850,0.188
23.775,-0.494,0.838,0.186
23.785,-0.492,0.838,0.186
23.795,-0.496,0.844,0.186
23.805,-0.494,0.846,0.188
23.815,-0.496,0.850,0.186
23.825,-0.496,0.854,0.186
23.835,-0.500,0.854,0.188
23.845,-0.496,0.852,0.188
23.855,-0.492,0.846,0.188
23.865,-0.496,0.848,0.188
23.875,-0.498,0.846,0.189
23.885,-0.496,0.846,0.188
23.895,-0.490,0.846,0.186
23.905,-0.494,0.842,0.186
23.914,-0.492,0.848,0.188
23.924,-0.492,0.846,0.188
23.934,-0.494,0.848,0.186
23.944,-0.490,0.846,0.188
23.954,-0.494,0.850,0.186
23.964,-0.492,0.855,0.188
23.974,-0.494,0.854,0.184
23.984,-0.498,0.850,0.186
23.994,-0.494,0.850,0.188
24.004,-0.492,0.850,0.191
24.014,-0.494,0.848,0.188
24.024,-0.488,0.850,0.189
24.034,-0.492,0.848,0.189
24.044,-0.492,0.848,0.188
24.053,-0.492,0.846,0.188
24.063,-0.490,0.850,0.186
24.073,-0.494,0.850,0.188
24.083,-0.496,0.848,0.191
24.093,-0.494,0.852,0.186
24.103,-0.494,0.848,0.188
24.113,-0.498,0.850,0.188
24.123,-0.498,0.850,0.188
24.133,-0.500,0.846,0.188
24.143,-0.500,0.848,0.186
24.153,-0.496,0.844,0.184
24.163,-0.500,0.844,0.184
24.173,-0.500,0.846,0.186
24.183,-0.498,0.846,0.186
24.193,-0.498,0.846,0.184
24.202,-0.492,0.844,0.188
24.212,-0.490,0.842,0.189
24.222,-0.494,0.844,0.189
24.232,-0.494,0.846,0.189
24.242,-0.494,0.852,0.189
24.252,-0.492,0.848,0.193
24.262,-0.496,0.846,0.188
24.272,-0.492,0.844,0.188
24.282,-0.496,0.852,0.188
24.292,-0.494,0.854,0.188
24.302,-0.500,0.855,0.186
24.312,-0.504,0.852,0.188
24.322,-0.502,0.848,0.188
24.332,-0.500,0.846,0.186
24.342,-0.498,0.840,0.186
24.351,-0.498,0.840,0.186
24.361,-0.500,0.840,0.186
24.371,-0.502,0.838,0.188
24.381,-0.496,0.844,0.184
24.391,-0.502,0.840,0.188
24.401,-0.502,0.840,0.186
24.411,-0.504,0.846,0.186
24.421,-0.504,0.846,0.186
24.431,-0.504,0.848,0.188
24.441,-0.504,0.848,0.186
24.451,-0.502,0.850,0.186
24.461,-0.502,0.850,0.189
24.471,-0.498,0.850,0.188
24.481,-0.498,0.848,0.186
24.490,-0.500,0.855,0.189
24.500,-0.498,0.854,0.189
24.510,-0.496,0.848,0.189
24.520,-0.496,0.842,0.188
24.530,-0.496,0.842,0.186
24.540,-0.494,0.842,0.189
24.550,-0.498,0.846,0.188
24.560,-0.496,0.850,0.189
24.570,-0.504,0.850,0.193
24.580,-0.500,0.852,0.188
24.590,-0.500,0.850,0.189
24.600,-0.500,0.846,0.189
24.610,-0.498,0.842,0.188
24.620,-0.494,0.844,0.188
24.630,-0.490,0.846,0.195
24.639,-0.492,0.848,0.193
24.649,-0.492,0.846,0.191
24.659,-0.492,0.844,0.195
24.669,-0.492,0.848,0.191
24.679,-0.494,0.846,0.191
24.689,-0.492,0.846,0.189
24.699,-0.496,0.848,0.188
24.709,-0.498,0.848,0.188
24.719,-0.502,0.850,0.186
24.729,-0.500,0.848,0.189
24.739,-0.498,0.844,0.188
24.749,-0.496,0.846,0.188
24.759,-0.494,0.846,0.189
24.769,-0.496,0.844,0.191
24.779,-0.490,0.852,0.189
24.788,-0.494,0.848,0.191
24.798,-0.492,0.848,0.186
24.808,-0.494,0.846,0.193
24.818,-0.492,0.844,0.189
24.828,-0.498,0.846,0.188
24.838,-0.500,0.848,0.191
24.848,-0.500,0.846,0.186
24.858,-0.502,0.848,0.188
24.868,-0.502,0.848,0.184
24.878,-0.502,0.850,0.188
24.888,-0.502,0.850,0.184
24.898,-0.502,0.850,0.186
24.908,-0.500,0.846,0.188
24.918,-0.498,0.846,0.188
24.928,-0.494,0.840,0.189
24.937,-0.494,0.838,0.191
24.947,-0.494,0.846,0.195
24.957,-0.496,0.846,0.195
24.967,-0.494,0.850,0.189
24.977,-0.494,0.842,0.189
24.987,-0.500,0.840,0.189
24.997,-0.500,0.844,0.184
25.007,-0.502,0.850,0.191
25.017,-0.506,0.855,0.189
25.027,-0.506,0.854,0.188
25.037,-0.506,0.848,0.186
25.047,-0.504,0.842,0.188
25.057,-0.504,0.842,0.188
25.067,-0.500,0.838,0.188
25.076,-0.502,0.838,0.189
25.086,-0.502,0.838,0.184
25.096,-0.500,0.838,0.189
25.106,-0.504,0.838,0.189
25.116,-0.502,0.838,0.191
25.126,-0.502,0.840,0.188
25.136,-0.504,0.846,0.189
25.146,-0.502,0.844,0.188
25.156,-0.504,0.848,0.188
25.166,-0.504,0.848,0.189
25.176,-0.504,0.848,0.191
25.186,-0.504,0.846,0.189
25.196,-0.506,0.844,0.188
25.206,-0.502,0.848,0.189
25.216,-0.504,0.850,0.191
25.225,-0.500,0.846,0.188
25.235,-0.502,0.838,0.188
25.245,-0.494,0.836,0.184
25.255,-0.498,0.840,0.186
25.265,-0.500,0.844,0.189
25.275,-0.502,0.848,0.189
25.285,-0.504,0.848,0.193
25.295,-0.502,0.846,0.193
25.305,-0.506,0.846,0.193
25.315,-0.504,0.846,0.189
25.325,-0.504,0.842,0.191
25.335,-0.500,0.840,0.193
25.345,-0.500,0.838,0.189
25.355,-0.500,0.840,0.189
25.365,-0.500,0.840,0.191
25.374,-0.502,0.846,0.191
25.384,-0.502,0.846,0.191
25.394,-0.502,0.840,0.189
25.404,-0.506,0.844,0.188
25.414,-0.504,0.842,0.188
25.424,-0.506,0.846,0.188
25.434,-0.504,0.842,0.189
25.444,-0.506,0.846,0.188
25.454,-0.504,0.848,0.186
25.464,-0.504,0.842,0.189
25.474,-0.504,0.844,0.186
25.484,-0.502,0.846,0.191
25.494,-0.502,0.844,0.188
25.504,-0.500,0.842,0.188
25.514,-0.502,0.844,0.188
25.523,-0.502,0.844,0.188
25.533,-0.504,0.842,0.188
25.543,-0.502,0.844,0.189
25.553,-0.504,0.842,0.189
25.563,-0.504,0.844,0.189
25.573,-0.506,0.844,0.191
25.583,-0.506,0.846,0.188
25.593,-0.508,0.848,0.188
25.603,-0.506,0.846,0.188
25.613,-0.502,0.844,0.186
25.623,-0.502,0.842,0.193
25.633,-0.500,0.840,0.193
25.643,-0.498,0.838,0.189
25.653,-0.500,0.842,0.189
25.662,-0.502,0.850,0.193
25.672,-0.500,0.844,0.193
25.682,-0.500,0.842,0.191
25.692,-0.502,0.846,0.191
25.702,-0.506,0.848,0.191
25.712,-0.504,0.850,0.191
25.722,-0.508,0.848,0.191
25.732,-0.508,0.846,0.191
25.742,-0.508,0.842,0.189
25.752,-0.506,0.840,0.189
25.762,-0.506,0.836,0.189
25.772,-0.502,0.834,0.193
25.782,-0.504,0.836,0.191
25.792,-0.502,0.836,0.191
25.802,-0.502,0.838,0.191
25.811,-0.502,0.836,0.191
25.821,-0.504,0.840,0.191
25.831,-0.508,0.840,0.189
25.841,-0.508,0.842,0.191
25.851,-0.506,0.842,0.189
25.861,-0.508,0.848,0.188
25.871,-0.508,0.850,0.188
25.881,-0.510,0.850,0.188
25.891,-0.508,0.842,0.186
25.901,-0.510,0.848,0.189
25.911,-0.510,0.852,0.191
25.921,-0.508,0.846,0.193
25.931,-0.508,0.836,0.188
25.941,-0.506,0.832,0.186
25.951,-0.502,0.834,0.188
25.960,-0.506,0.838,0.189
25.970,-0.510,0.840,0.186
25.980,-0.506,0.844,0.191
25.990,-0.510,0.844,0.188
26.000,-0.506,0.844,0.188
26.010,-0.510,0.844,0.186
26.020,-0.510,0.844,0.186
26.030,-0.508,0.844,0.189
26.040,-0.506,0.840,0.189
26.050,-0.504,0.842,0.191
26.060,-0.506,0.840,0.191
26.070,-0.504,0.842,0.189
26.080,-0.500,0.842,0.191
26.090,-0.506,0.842,0.188
26.099,-0.506,0.842,0.189
26.109,-0.508,0.844,0.186
26.119,-0.508,0.840,0.188
26.129,-0.510,0.846,0.188
26.139,-0.508,0.844,0.188
26.149,-0.508,0.846,0.188
26.159,-0.506,0.840,0.189
26.169,-0.504,0.844,0.189
26.179,-0.504,0.844,0.186
26.189,-0.502,0.842,0.186
26.199,-0.504,0.840,0.191
26.209,-0.502,0.844,0.191
26.219,-0.504,0.842,0.191
26.229,-0.504,0.842,0.191
26.239,-0.504,0.842,0.189
26.248,-0.506,0.844,0.191
26.258,-0.508,0.838,0.191
26.268,-0.506,0.840,0.188
26.278,-0.510,0.842,0.189
26.288,-0.512,0.840,0.189
26.298,-0.508,0.844,0.188
26.308,-0.510,0.842,0.189
26.318,-0.508,0.844,0.188
26.328,-0.510,0.844,0.189
26.338,-0.510,0.844,0.189
26.348,-0.506,0.844,0.191
26.358,-0.504,0.842,0.191
26.368,-0.504,0.840,0.195
26.378,-0.500,0.832,0.199
26.388,-0.504,0.842,0.195
26.397,-0.502,0.842,0.197
26.407,-0.506,0.842,0.191
26.417,-0.508,0.836,0.188
26.427,-0.510,0.840,0.188
26.437,-0.512,0.842,0.186
26.447,-0.514,0.846,0.189
26.457,-0.514,0.852,0.189
26.467,-0.512,0.852,0.189
26.477,-0.514,0.846,0.189
26.487,-0.510,0.840,0.186
26.497,-0.510,0.838,0.184
26.507,-0.510,0.836,0.188
26.517,-0.508,0.836,0.186
26.527,-0.510,0.834,0.184
26.537,-0.508,0.832,0.191
26.546,-0.510,0.834,0.191
26.556,-0.508,0.836,0.188
26.566,-0.506,0.840,0.189
26.576,-0.506,0.840,0.189
26.586,-0.508,0.844,0.188
26.596,-0.510,0.846,0.188
26.606,-0.508,0.846,0.191
26.616,-0.508,0.850,0.186
26.626,-0.506,0.844,0.189
26.636,-0.510,0.842,0.191
26.646,-0.512,0.846,0.191
26.656,-0.510,0.846,0.193
26.666,-0.508,0.838,0.191
26.676,-0.510,0.834,0.188
26.685,-0.510,0.830,0.186
26.695,-0.510,0.836,0.188
26.705,-0.512,0.842,0.191
26.715,-0.512,0.846,0.191
26.725,-0.512,0.844,0.189
26.735,-0.514,0.844,0.191
26.745,-0.512,0.842,0.188
26.755,-0.510,0.842,0.188
26.765,-0.510,0.840,0.191
26.775,-0.506,0.838,0.191
26.785,-0.504,0.838,0.191
26.795,-0.508,0.840,0.191
26.805,-0.506,0.838,0.195
26.815,-0.506,0.838,0.197
26.825,-0.508,0.836,0.193
26.834,-0.508,0.834,0.191
26.844,-0.514,0.840,0.195
26.854,-0.514,0.838,0.193
26.864,-0.510,0.842,0.195
26.874,-0.512,0.836,0.191
26.884,-0.514,0.842,0.193
26.894,-0.510,0.842,0.193
26.904,-0.510,0.842,0.197
26.914,-0.510,0.842,0.195
26.924,-0.508,0.838,0.197
26.934,-0.510,0.836,0.195
26.944,-0.508,0.840,0.195
26.954,-0.512,0.838,0.193
26.964,-0.510,0.840,0.197
26.974,-0.506,0.840,0.193
26.983,-0.508,0.840,0.197
26.993,-0.504,0.840,0.195
27.003,-0.504,0.842,0.197
27.013,-0.510,0.838,0.197
27.023,-0.508,0.836,0.195
27.033,-0.514,0.836,0.197
27.043,-0.512,0.836,0.193
27.053,-0.512,0.840,0.191
27.063,-0.516,0.838,0.193
27.073,-0.510,0.840,0.193
27.083,-0.510,0.840,0.195
27.093,-0.510,0.844,0.191
27.103,-0.512,0.844,0.195
27.113,-0.512,0.842,0.193
27.122,-0.510,0.840,0.197
27.132,-0.508,0.836,0.199
27.142,-0.506,0.832,0.199
27.152,-0.506,0.832,0.197
27.162,-0.506,0.838,0.197
27.172,-0.506,0.842,0.195
27.182,-0.508,0.840,0.195
27.192,-0.506,0.836,0.189
27.202,-0.512,0.838,0.195
27.212,-0.516,0.844,0.195
27.222,-0.514,0.846,0.195
27.232,-0.518,0.850,0.195
27.242,-0.521,0.842,0.193
27.252,-0.516,0.838,0.195
27.262,-0.516,0.834,0.195
27.271,-0.510,0.834,0.195
27.281,-0.508,0.834,0.193
27.291,-0.508,0.834,0.195
27.301,-0.508,0.832,0.195
27.311,-0.510,0.834,0.191
27.321,-0.508,0.834,0.193
27.331,-0.514,0.834,0.193
27.341,-0.510,0.838,0.191
27.351,-0.510,0.838,0.193
27.361,-0.512,0.842,0.189
27.371,-0.510,0.844,0.191
27.381,-0.510,0.846,0.197
27.391,-0.512,0.848,0.197
27.401,-0.508,0.844,0.195
27.411,-0.506,0.838,0.201
27.420,-0.510,0.850,0.199
27.430,-0.504,0.844,0.197
27.440,-0.504,0.836,0.195
27.450,-0.510,0.834,0.193
27.460,-0.502,0.836,0.191
27.470,-0.506,0.836,0.191
27.480,-0.508,0.842,0.195
27.490,-0.506,0.844,0.193
27.500,-0.510,0.846,0.193
27.510,-0.512,0.844,0.191
27.520,-0.512,0.846,0.193
27.530,-0.512,0.842,0.191
27.540,-0.508,0.842,0.191
27.550,-0.506,0.840,0.195
27.560,-0.504,0.840,0.193
27.569,-0.500,0.842,0.195
27.579,-0.504,0.842,0.191
27.589,-0.506,0.840,0.191
27.599,-0.508,0.840,0.195
27.609,-0.508,0.844,0.191
27.619,-0.508,0.842,0.195
27.629,-0.510,0.840,0.193
27.639,-0.510,0.840,0.193
27.649,-0.510,0.840,0.193
27.659,-0.510,0.842,0.193
27.669,-0.510,0.840,0.191
27.679,-0.506,0.836,0.191
27.689,-0.508,0.838,0.199
27.699,-0.508,0.838,0.197
27.708,-0.508,0.838,0.197
27.718,-0.510,0.840,0.199
27.728,-0.508,0.840,0.197
27.738,-0.508,0.840,0.199
27.748,-0.508,0.836,0.197
27.758,-0.506,0.838,0.195
27.768,-0.504,0.838,0.195
27.778,-0.506,0.836,0.197
27.788,-0.506,0.838,0.197
27.798,-0.504,0.844,0.199
27.808,-0.508,0.840,0.197
27.818,-0.506,0.840,0.193
27.828,-0.508,0.842,0.195
27.838,-0.510,0.840,0.189
27.848,-0.510,0.842,0.195
27.857,-0.512,0.844,0.197
27.867,-0.512,0.844,0.193
27.877,-0.512,0.840,0.193
27.887,-0.518,0.838,0.191
27.897,-0.518,0.836,0.193
27.907,-0.518,0.840,0.195
27.917,-0.518,0.834,0.193
27.927,-0.512,0.832,0.195
27.937,-0.508,0.834,0.197
27.947,-0.504,0.832,0.197
27.957,-0.506,0.836,0.201
27.967,-0.506,0.842,0.201
27.977,-0.506,0.846,0.205
27.987,-0.502,0.844,0.201
27.997,-0.504,0.842,0.199
28.006,-0.510,0.842,0.201
28.016,-0.512,0.848,0.203
28.026,-0.512,0.850,0.201
28.036,-0.512,0.842,0.197
28.046,-0.516,0.842,0.197
28.056,-0.514,0.838,0.195
28.066,-0.512,0.834,0.199
28.076,-0.514,0.828,0.199
28.086,-0.512,0.826,0.203
28.096,-0.514,0.832,0.199
28.106,-0.514,0.830,0.195
28.116,-0.514,0.830,0.197
28.126,-0.514,0.830,0.199
28.136,-0.512,0.834,0.199
28.146,-0.512,0.840,0.197
28.155,-0.516,0.838,0.197
28.165,-0.512,0.842,0.203
28.175,-0.510,0.840,0.197
28.185,-0.510,0.846,0.199
28.195,-0.514,0.842,0.201
28.205,-0.510,0.846,0.197
28.215,-0.506,0.840,0.201
28.225,-0.512,0.848,0.203
28.235,-0.506,0.840,0.201
28.245,-0.506,0.838,0.199
28.255,-0.510,0.830,0.195
28.265,-0.506,0.830,0.195
28.275,-0.508,0.838,0.197
28.285,-0.510,0.842,0.197
28.294,-0.512,0.842,0.197
28.304,-0.514,0.842,0.201
28.314,-0.512,0.840,0.197
28.324,-0.514,0.840,0.199
28.334,-0.514,0.838,0.201
28.344,-0.512,0.838,0.199
28.354,-0.510,0.838,0.203
28.364,-0.510,0.836,0.203
28.374,-0.508,0.836,0.201
28.384,-0.506,0.836,0.205
28.394,-0.506,0.836,0.203
28.404,-0.506,0.836,0.199
28.414,-0.508,0.838,0.199
28.424,-0.508,0.842,0.199
28.434,-0.508,0.842,0.197
28.443,-0.510,0.844,0.195
28.453,-0.510,0.848,0.195
28.463,-0.512,0.844,0.199
28.473,-0.512,0.840,0.197
28.483,-0.512,0.842,0.193
28.493,-0.514,0.840,0.195
28.503,-0.510,0.840,0.197
28.513,-0.512,0.838,0.195
28.523,-0.510,0.834,0.195
28.533,-0.512,0.836,0.199
28.543,-0.510,0.836,0.197
28.553,-0.512,0.832,0.197
28.563,-0.512,0.838,0.199
28.573,-0.521,0.842,0.197
28.583,-0.516,0.834,0.195
28.592,-0.516,0.830,0.197
28.602,-0.520,0.836,0.199
28.612,-0.518,0.840,0.199
28.622,-0.521,0.842,0.199
28.632,-0.520,0.834,0.201
28.642,-0.514,0.834,0.199
28.652,-0.518,0.834,0.201
28.662,-0.521,0.834,0.203
28.672,-0.518,0.834,0.203
28.682,-0.520,0.832,0.203
28.692,-0.518,0.828,0.201
28.702,-0.514,0.826,0.199
28.712,-0.514,0.826,0.205
28.722,-0.514,0.830,0.201
28.731,-0.514,0.832,0.201
28.741,-0.518,0.836,0.201
28.751,-0.514,0.840,0.203
28.761,-0.516,0.836,0.201
28.771,-0.516,0.838,0.199
28.781,-0.518,0.840,0.201
28.791,-0.521,0.844,0.201
28.801,-0.523,0.842,0.201
28.811,-0.523,0.844,0.199
28.821,-0.521,0.840,0.199
28.831,-0.521,0.834,0.199
28.841,-0.518,0.830,0.201
28.851,-0.520,0.826,0.201
28.861,-0.521,0.826,0.199
28.871,-0.520,0.824,0.197
28.880,-0.525,0.822,0.203
28.890,-0.521,0.826,0.197
28.900,-0.525,0.822,0.197
28.910,-0.523,0.824,0.203
28.920,-0.518,0.826,0.201
28.930,-0.516,0.832,0.203
28.940,-0.514,0.836,0.203
28.950,-0.512,0.844,0.207
28.960,-0.516,0.842,0.205
28.970,-0.516,0.844,0.207
28.980,-0.510,0.836,0.207
28.990,-0.512,0.838,0.209
29.000,-0.512,0.840,0.211
29.010,-0.510,0.834,0.207
29.020,-0.512,0.832,0.205
29.029,-0.508,0.828,0.201
29.039,-0.514,0.832,0.203
29.049,-0.518,0.836,0.203
29.059,-0.518,0.838,0.207
29.069,-0.518,0.840,0.205
29.079,-0.521,0.838,0.205
29.089,-0.521,0.836,0.203
29.099,-0.520,0.832,0.201
29.109,-0.521,0.834,0.201
29.119,-0.521,0.836,0.201
29.129,-0.518,0.828,0.207
29.139,-0.516,0.834,0.203
29.149,-0.514,0.832,0.207
29.159,-0.512,0.832,0.203
29.169,-0.512,0.834,0.205
29.178,-0.510,0.836,0.205
29.188,-0.512,0.836,0.203
29.198,-0.512,0.836,0.203
29.208,-0.516,0.836,0.205
29.218,-0.516,0.836,0.203
29.228,-0.514,0.838,0.201
29.238,-0.518,0.840,0.199
29.248,-0.520,0.838,0.197
29.258,-0.518,0.834,0.195
29.268,-0.518,0.838,0.195
29.278,-0.516,0.838,0.197
29.288,-0.518,0.836,0.201
29.298,-0.521,0.834,0.199
29.308,-0.518,0.834,0.199
29.317,-0.518,0.838,0.201
29.327,-0.521,0.836,0.197
29.337,-0.520,0.834,0.197
29.347,-0.521,0.832,0.195
29.357,-0.518,0.834,0.195
29.367,-0.521,0.834,0.195
29.377,-0.520,0.834,0.201
29.387,-0.521,0.838,0.201
29.397,-0.521,0.836,0.199
29.407,-0.520,0.836,0.195
29.417,-0.518,0.834,0.201
29.427,-0.520,0.836,0.201
29.437,-0.518,0.832,0.199
29.447,-0.514,0.832,0.203
29.457,-0.514,0.830,0.203
29.466,-0.516,0.828,0.201
29.476,-0.512,0.830,0.203
29.486,-0.512,0.836,0.203
29.496,-0.514,0.840,0.207
29.506,-0.514,0.836,0.201
29.516,-0.518,0.832,0.199
29.526,-0.518,0.840,0.199
29.536,-0.521,0.838,0.203
29.546,-0.521,0.838,0.205
29.556,-0.521,0.842,0.203
29.566,-0.521,0.838,0.201
29.576,-0.518,0.834,0.199
29.586,-0.518,0.826,0.203
29.596,-0.516,0.828,0.201
29.606,-0.512,0.826,0.201
29.615,-0.510,0.830,0.203
29.625,-0.514,0.830,0.203
29.635,-0.512,0.830,0.203
29.645,-0.510,0.838,0.205
29.655,-0.516,0.838,0.201
29.665,-0.512,0.842,0.201
29.675,-0.516,0.842,0.205
29.685,-0.516,0.840,0.201
29.695,-0.514,0.842,0.203
29.705,-0.514,0.838,0.199
29.715,-0.516,0.836,0.203
29.725,-0.514,0.832,0.203
29.735,-0.516,0.834,0.205
29.745,-0.516,0.842,0.205
29.754,-0.512,0.838,0.207
29.764,-0.512,0.836,0.205
29.774,-0.508,0.828,0.201
29.784,-0.508,0.834,0.203
29.794,-0.510,0.834,0.203
29.804,-0.512,0.840,0.199
29.814,-0.514,0.840,0.205
29.824,-0.516,0.838,0.203
29.834,-0.520,0.838,0.203
29.844,-0.520,0.834,0.205
29.854,-0.514,0.832,0.209
29.864,-0.516,0.828,0.205
29.874,-0.516,0.828,0.203
29.884,-0.514,0.830,0.205
29.894,-0.514,0.828,0.207
29.903,-0.518,0.828,0.205
29.913,-0.514,0.832,0.205
29.923,-0.514,0.830,0.203
29.933,-0.514,0.834,0.205
29.943,-0.510,0.836,0.205
29.953,-0.510,0.840,0.207
29.963,-0.510,0.842,0.209
29.973,-0.510,0.844,0.209
29.983,-0.508,0.838,0.203
29.993,-0.506,0.840,0.207
30.003,-0.508,0.838,0.207
30.013,-0.508,0.838,0.207
30.023,-0.508,0.842,0.207
30.033,-0.512,0.840,0.203
30.043,-0.514,0.836,0.199
30.052,-0.512,0.838,0.205
30.062,-0.514,0.838,0.207
30.072,-0.516,0.838,0.203
30.082,-0.516,0.834,0.203
30.092,-0.516,0.834,0.207
30.102,-0.518,0.838,0.203
30.112,-0.516,0.836,0.203
30.122,-0.518,0.832,0.201
30.132,-0.514,0.832,0.201
30.142,-0.518,0.832,0.199
30.152,-0.520,0.836,0.205
30.162,-0.518,0.838,0.205
30.172,-0.516,0.834,0.201
30.182,-0.516,0.834,0.205
30.192,-0.512,0.834,0.205
30.201,-0.516,0.836,0.203
30.211,-0.514,0.834,0.201
30.221,-0.516,0.834,0.203
30.231,-0.510,0.832,0.203
30.241,-0.512,0.830,0.203
30.251,-0.512,0.830,0.199
30.261,-0.512,0.828,0.201
30.271,-0.512,0.834,0.205
30.281,-0.514,0.844,0.207
30.291,-0.514,0.838,0.203
30.301,-0.516,0.838,0.199
30.311,-0.518,0.842,0.203
30.321,-0.520,0.842,0.201
30.331,-0.521,0.844,0.205
30.340,-0.520,0.840,0.203
30.350,-0.521,0.838,0.201
30.360,-0.521,0.836,0.205
30.370,-0.518,0.830,0.201
30.380,-0.514,0.830,0.203
30.390,-0.512,0.826,0.203
30.400,-0.512,0.828,0.203
30.410,-0.508,0.832,0.205
30.420,-0.510,0.832,0.203
30.430,-0.510,0.834,0.205
30.440,-0.508,0.836,0.205
30.450,-0.510,0.836,0.205
30.460,-0.512,0.838,0.205
30.470,-0.510,0.842,0.205
30.480,-0.512,0.840,0.203
30.489,-0.512,0.842,0.205
30.499,-0.512,0.844,0.203
30.509,-0.516,0.840,0.207
30.519,-0.512,0.834,0.205
30.529,-0.518,0.842,0.205
30.539,-0.516,0.840,0.207
30.549,-0.514,0.834,0.201
30.559,-0.514,0.824,0.205
30.569,-0.512,0.824,0.203
30.579,-0.516,0.830,0.205
30.589,-0.514,0.834,0.205
30.599,-0.514,0.838,0.205
30.609,-0.516,0.842,0.207
30.619,-0.512,0.840,0.207
30.629,-0.514,0.840,0.203
30.638,-0.510,0.840,0.203
30.648,-0.508,0.838,0.205
30.658,-0.508,0.836,0.205
30.668,-0.508,0.834,0.205
30.678,-0.508,0.834,0.205
30.688,-0.510,0.838,0.207
30.698,-0.512,0.836,0.207
30.708,-0.512,0.840,0.205
30.718,-0.512,0.838,0.205
30.728,-0.514,0.838,0.203
30.738,-0.514,0.840,0.205
30.748,-0.520,0.836,0.203
30.758,-0.516,0.832,0.203
30.768,-0.518,0.832,0.199
30.777,-0.516,0.830,0.203
30.787,-0.512,0.838,0.207
30.797,-0.510,0.836,0.207
30.807,-0.510,0.836,0.209
30.817,-0.508,0.834,0.207
30.827,-0.508,0.836,0.211
30.837,-0.504,0.838,0.213
30.847,-0.506,0.838,0.209
30.857,-0.508,0.838,0.213
30.867,-0.506,0.842,0.209
30.877,-0.510,0.840,0.207
30.887,-0.508,0.840,0.205
30.897,-0.510,0.842,0.207
30.907,-0.512,0.836,0.205
30.917,-0.510,0.834,0.207
30.926,-0.508,0.836,0.207
30.936,-0.508,0.834,0.207
30.946,-0.508,0.834,0.207
30.956,-0.506,0.836,0.209
30.966,-0.508,0.836,0.209
30.976,-0.510,0.840,0.209
30.986,-0.512,0.838,0.203
30.996,-0.514,0.838,0.205
31.006,-0.514,0.830,0.205
31.016,-0.512,0.834,0.205
31.026,-0.512,0.834,0.205
31.036,-0.514,0.838,0.203
31.046,-0.510,0.846,0.209
31.056,-0.512,0.844,0.203
31.066,-0.510,0.838,0.205
31.075,-0.512,0.838,0.205
31.085,-0.510,0.844,0.203
31.095,-0.514,0.844,0.209
31.105,-0.512,0.844,0.205
31.115,-0.512,0.840,0.203
31.125,-0.516,0.836,0.201
31.135,-0.512,0.830,0.205
31.145,-0.512,0.828,0.209
31.155,-0.510,0.832,0.205
31.165,-0.506,0.828,0.207
31.175,-0.508,0.832,0.203
31.185,-0.508,0.832,0.205
31.195,-0.508,0.836,0.203
31.205,-0.506,0.836,0.203
31.215,-0.510,0.838,0.205
31.224,-0.510,0.842,0.205
31.234,-0.510,0.844,0.207
31.244,-0.514,0.844,0.207
31.254,-0.514,0.844,0.207
31.264,-0.514,0.844,0.205
31.274,-0.514,0.840,0.209
31.284,-0.514,0.840,0.205
31.294,-0.512,0.834,0.209
31.304,-0.510,0.842,0.207
31.314,-0.508,0.836,0.209
31.324,-0.504,0.830,0.203
31.334,-0.504,0.824,0.201
31.344,-0.502,0.830,0.205
31.354,-0.504,0.834,0.207
31.363,-0.506,0.840,0.209
31.373,-0.510,0.848,0.211
31.383,-0.508,0.844,0.207
31.393,-0.508,0.844,0.209
31.403,-0.510,0.846,0.207
31.413,-0.508,0.838,0.207
31.423,-0.510,0.836,0.205
31.433,-0.512,0.840,0.205
31.443,-0.508,0.836,0.207
31.453,-0.510,0.834,0.205
31.463,-0.508,0.836,0.207
31.473,-0.506,0.834,0.209
31.483,-0.506,0.836,0.207
31.493,-0.506,0.838,0.213
31.503,-0.508,0.838,0.209
31.512,-0.510,0.842,0.209
31.522,-0.514,0.840,0.205
31.532,-0.514,0.838,0.203
31.542,-0.512,0.838,0.207
31.552,-0.512,0.838,0.205
31.562,-0.508,0.840,0.203
31.572,-0.512,0.838,0.207
31.582,-0.508,0.838,0.209
31.592,-0.504,0.834,0.207
31.602,-0.508,0.840,0.207
31.612,-0.506,0.840,0.211
31.622,-0.510,0.838,0.211
31.632,-0.508,0.838,0.211
31.642,-0.510,0.836,0.209
31.652,-0.510,0.836,0.209
31.661,-0.510,0.836,0.207
31.671,-0.510,0.838,0.209
31.681,-0.508,0.832,0.207
31.691,-0.514,0.834,0.205
31.701,-0.512,0.836,0.205
31.711,-0.516,0.842,0.205
31.721,-0.514,0.840,0.207
31.731,-0.512,0.838,0.209
31.741,-0.518,0.842,0.207
31.751,-0.514,0.840,0.207
31.761,-0.512,0.842,0.209
31.771,-0.514,0.840,0.211
31.781,-0.510,0.836,0.211
31.791,-0.508,0.830,0.207
31.801,-0.508,0.830,0.213
31.810,-0.504,0.826,0.211
31.820,-0.504,0.828,0.211
31.830,-0.506,0.838,0.213
31.840,-0.508,0.840,0.215
31.850,-0.506,0.838,0.207
31.860,-0.510,0.836,0.207
31.870,-0.508,0.840,0.209
31.880,-0.510,0.842,0.211
31.890,-0.512,0.846,0.211
31.900,-0.514,0.846,0.213
31.910,-0.516,0.840,0.207
31.920,-0.512,0.838,0.213
31.930,-0.514,0.834,0.209
31.940,-0.512,0.830,0.207
31.949,-0.512,0.826,0.209
31.959,-0.512,0.828,0.207
31.969,-0.508,0.832,0.207
31.979,-0.510,0.830,0.209
31.989,-0.510,0.832,0.209
31.999,-0.512,0.838,0.209
32.009,-0.510,0.840,0.211
32.019,-0.514,0.838,0.211
32.029,-0.514,0.840,0.205
32.039,-0.512,0.842,0.205
32.049,-0.512,0.840,0.211
32.059,-0.514,0.842,0.211
32.069,-0.514,0.842,0.209
32.079,-0.512,0.834,0.209
32.089,-0.516,0.840,0.209
32.098,-0.510,0.840,0.213
32.108,-0.506,0.836,0.209
32.118,-0.512,0.826,0.209
32.128,-0.506,0.830,0.209
32.138,-0.512,0.832,0.205
32.148,-0.510,0.834,0.209
32.158,-0.514,0.840,0.207
32.168,-0.516,0.840,0.209
32.178,-0.514,0.842,0.209
32.188,-0.512,0.838,0.209
32.198,-0.512,0.840,0.207
32.208,-0.512,0.836,0.207
32.218,-0.510,0.836,0.207
32.228,-0.510,0.834,0.209
32.238,-0.508,0.836,0.211
32.247,-0.508,0.836,0.207
32.257,-0.512,0.832,0.213
32.267,-0.508,0.830,0.207
32.277,-0.510,0.836,0.211
32.287,-0.510,0.838,0.211
32.297,-0.512,0.838,0.209
32.307,-0.510,0.840,0.211
32.317,-0.512,0.840,0.205
32.327,-0.510,0.838,0.207
32.337,-0.508,0.838,0.207
32.347,-0.506,0.840,0.207
32.357,-0.508,0.838,0.207
32.367,-0.510,0.838,0.207
32.377,-0.508,0.838,0.209
32.386,-0.506,0.836,0.207
32.396,-0.506,0.842,0.209
32.406,-0.510,0.838,0.211
32.416,-0.510,0.838,0.207
32.426,-0.514,0.838,0.211
32.436,-0.512,0.836,0.209
32.446,-0.514,0.836,0.207
32.456,-0.512,0.834,0.207
32.466,-0.514,0.832,0.209
32.476,-0.512,0.832,0.211
32.486,-0.516,0.836,0.205
32.496,-0.512,0.840,0.207
32.506,-0.508,0.842,0.211
32.516,-0.510,0.842,0.209
32.526,-0.506,0.838,0.209
32.535,-0.506,0.840,0.211
32.545,-0.508,0.840,0.211
32.555,-0.508,0.842,0.209
32.565,-0.506,0.838,0.211
32.575,-0.508,0.832,0.211
32.585,-0.504,0.832,0.215
32.595,-0.506,0.830,0.213
32.605,-0.504,0.830,0.207
32.615,-0.506,0.836,0.211
32.625,-0.508,0.838,0.209
32.635,-0.508,0.844,0.209
32.645,-0.510,0.838,0.209
32.655,-0.512,0.840,0.207
32.665,-0.520,0.844,0.207
32.675,-0.518,0.844,0.211
32.684,-0.516,0.844,0.209
32.694,-0.518,0.842,0.211
32.704,-0.514,0.838,0.211
32.714,-0.514,0.834,0.209
32.724,-0.510,0.830,0.207
32.734,-0.508,0.828,0.213
32.744,-0.506,0.830,0.209
32.754,-0.510,0.832,0.211
32.764,-0.508,0.832,0.211
32.774,-0.510,0.834,0.207
32.784,-0.506,0.836,0.207
32.794,-0.510,0.836,0.213
32.804,-0.512,0.840,0.209
32.814,-0.512,0.842,0.213
32.824,-0.510,0.840,0.211
32.833,-0.512,0.844,0.211
32.843,-0.512,0.840,0.211
32.853,-0.512,0.838,0.207
32.863,-0.512,0.834,0.207
32.873,-0.510,0.836,0.211
32.883,-0.516,0.840,0.211
32.893,-0.512,0.834,0.213
32.903,-0.508,0.828,0.211
32.913,-0.508,0.826,0.211
32.923,-0.510,0.830,0.211
32.933,-0.510,0.834,0.209
32.943,-0.508,0.840,0.211
32.953,-0.508,0.842,0.209
32.963,-0.512,0.844,0.209
32.972,-0.508,0.844,0.209
32.982,-0.510,0.844,0.211
32.992,-0.508,0.842,0.209
33.002,-0.508,0.840,0.209
33.012,-0.506,0.836,0.211
33.022,-0.506,0.840,0.209
33.032,-0.508,0.834,0.207
33.042,-0.508,0.832,0.207
33.052,-0.508,0.836,0.207
33.062,-0.510,0.836,0.207
33.072,-0.508,0.834,0.205
33.082,-0.510,0.834,0.205
33.092,-0.512,0.838,0.207
33.102,-0.510,0.836,0.207
33.112,-0.508,0.842,0.207
33.121,-0.512,0.840,0.207
33.131,-0.508,0.842,0.207
33.141,-0.506,0.840,0.209
33.151,-0.508,0.842,0.211
33.161,-0.506,0.844,0.211
33.171,-0.506,0.840,0.211
33.181,-0.508,0.838,0.207
33.191,-0.508,0.836,0.207
33.201,-0.510,0.836,0.207
33.211,-0.510,0.838,0.205
33.221,-0.512,0.834,0.209
33.231,-0.514,0.836,0.207
33.241,-0.510,0.834,0.207
33.251,-0.514,0.836,0.209
33.261,-0.514,0.840,0.209
33.270,-0.514,0.836,0.205
33.280,-0.512,0.836,0.207
33.290,-0.514,0.838,0.211
33.300,-0.510,0.838,0.209
33.310,-0.510,0.842,0.209
33.320,-0.510,0.840,0.209
33.330,-0.510,0.836,0.209
33.340,-0.512,0.836,0.209
33.350,-0.512,0.838,0.209
33.360,-0.514,0.838,0.207
33.370,-0.514,0.838,0.209
33.380,-0.512,0.838,0.211
33.390,-0.508,0.834,0.211
33.400,-0.504,0.832,0.213
33.409,-0.502,0.830,0.211
33.419,-0.502,0.832,0.211
33.429,-0.502,0.836,0.211
33.439,-0.506,0.844,0.215
33.449,-0.504,0.842,0.213
33.459,-0.506,0.838,0.209
33.469,-0.508,0.840,0.207
33.479,-0.514,0.842,0.213
33.489,-0.518,0.846,0.211
33.499,-0.516,0.848,0.213
33.509,-0.516,0.840,0.211
33.519,-0.514,0.836,0.209
33.529,-0.512,0.832,0.209
33.539,-0.508,0.830,0.211
33.549,-0.504,0.826,0.209
33.558,-0.504,0.828,0.211
33.568,-0.504,0.832,0.211
33.578,-0.506,0.832,0.211
33.588,-0.508,0.834,0.211
33.598,-0.508,0.834,0.211
33.608,-0.510,0.838,0.213
33.618,-0.510,0.838,0.213
33.628,-0.510,0.842,0.211
33.638,-0.512,0.840,0.211
33.648,-0.512,0.840,0.209
33.658,-0.516,0.840,0.209
33.668,-0.514,0.840,0.203
33.678,-0.510,0.834,0.207
33.688,-0.508,0.838,0.211
33.698,-0.510,0.846,0.213
33.707,-0.504,0.844,0.215
33.717,-0.504,0.836,0.215
33.727,-0.504,0.830,0.209
33.737,-0.504,0.830,0.211
33.747,-0.506,0.834,0.209
33.757,-0.506,0.840,0.211
33.767,-0.510,0.842,0.211
33.777,-0.512,0.844,0.209
33.787,-0.512,0.840,0.207
33.797,-0.514,0.838,0.209
33.807,-0.512,0.840,0.207
33.817,-0.508,0.840,0.209
33.827,-0.508,0.838,0.209
33.837,-0.508,0.838,0.209
33.847,-0.510,0.834,0.211
33.856,-0.508,0.838,0.207
33.866,-0.512,0.832,0.211
33.876,-0.508,0.836,0.207
33.886,-0.508,0.834,0.209
33.896,-0.512,0.836,0.205
33.906,-0.512,0.838,0.207
33.916,-0.510,0.842,0.203
33.926,-0.510,0.838,0.209
33.936,-0.508,0.838,0.209
33.946,-0.510,0.840,0.205
33.956,-0.508,0.842,0.203
33.966,-0.506,0.840,0.209
33.976,-0.506,0.842,0.207
33.986,-0.508,0.838,0.209
33.995,-0.508,0.840,0.207
34.005,-0.508,0.838,0.207
34.015,-0.508,0.840,0.207
34.025,-0.512,0.838,0.207
34.035,-0.512,0.836,0.209
34.045,-0.512,0.836,0.205
34.055,-0.516,0.834,0.205
34.065,-0.512,0.836,0.209
34.075,-0.518,0.832,0.209
34.085,-0.514,0.838,0.209
34.095,-0.514,0.832,0.207
34.105,-0.510,0.834,0.211
34.115,-0.510,0.838,0.211
34.125,-0.510,0.840,0.211
34.135,-0.510,0.838,0.213
34.144,-0.508,0.836,0.211
34.154,-0.506,0.838,0.207
34.164,-0.510,0.838,0.207
34.174,-0.508,0.840,0.211
34.184,-0.508,0.838,0.209
34.194,-0.510,0.836,0.213
34.204,-0.506,0.832,0.211
34.214,-0.506,0.832,0.215
34.224,-0.504,0.830,0.211
34.234,-0.506,0.832,0.211
34.244,-0.504,0.836,0.211
34.254,-0.502,0.844,0.211
34.264,-0.506,0.842,0.211
34.274,-0.508,0.840,0.209
34.284,-0.514,0.840,0.209
34.293,-0.518,0.846,0.209
34.303,-0.518,0.850,0.211
34.313,-0.516,0.842,0.211
34.323,-0.518,0.836,0.211
34.333,-0.514,0.834,0.211
34.343,-0.510,0.828,0.209
34.353,-0.508,0.828,0.209
34.363,-0.506,0.828,0.209
34.373,-0.506,0.830,0.211
34.383,-0.506,0.832,0.213
34.393,-0.506,0.838,0.211
34.403,-0.504,0.838,0.211
34.413,-0.510,0.838,0.211
34.423,-0.512,0.842,0.209
34.432,-0.512,0.838,0.209
34.442,-0.514,0.838,0.209
34.452,-0.512,0.840,0.205
34.462,-0.514,0.842,0.209
34.472,-0.512,0.842,0.209
34.482,-0.514,0.844,0.203
34.492,-0.512,0.834,0.207
34.502,-0.516,0.840,0.209
34.512,-0.518,0.840,0.211
34.522,-0.510,0.834,0.207
34.532,-0.512,0.830,0.205
34.542,-0.512,0.824,0.203
34.552,-0.510,0.828,0.207
34.562,-0.512,0.834,0.207
34.572,-0.512,0.840,0.205
34.581,-0.512,0.840,0.207
34.591,-0.512,0.842,0.207
34.601,-0.516,0.846,0.209
34.611,-0.510,0.840,0.209
34.621,-0.508,0.840,0.207
34.631,-0.506,0.838,0.207
34.641,-0.506,0.836,0.205
34.651,-0.506,0.836,0.205
34.661,-0.510,0.832,0.203
34.671,-0.514,0.828,0.201
34.681,-0.514,0.826,0.203
34.691,-0.518,0.828,0.199
34.701,-0.518,0.830,0.203
34.711,-0.520,0.832,0.205
34.721,-0.514,0.838,0.205
34.730,-0.512,0.844,0.207
34.740,-0.508,0.846,0.205
34.750,-0.500,0.846,0.207
34.760,-0.498,0.846,0.205
34.770,-0.496,0.848,0.209
34.780,-0.494,0.852,0.211
34.790,-0.496,0.850,0.209
34.800,-0.496,0.852,0.207
34.810,-0.496,0.848,0.211
34.820,-0.500,0.842,0.209
34.830,-0.502,0.846,0.207
34.840,-0.504,0.842,0.207
34.850,-0.508,0.838,0.205
34.860,-0.504,0.838,0.207
34.870,-0.512,0.836,0.203
34.879,-0.512,0.836,0.205
34.889,-0.512,0.834,0.209
34.899,-0.514,0.834,0.201
34.909,-0.518,0.836,0.205
34.919,-0.518,0.836,0.205
34.929,-0.521,0.836,0.203
34.939,-0.516,0.840,0.205
34.949,-0.516,0.836,0.207
34.959,-0.516,0.840,0.207
34.969,-0.514,0.840,0.207
34.979,-0.512,0.838,0.207
34.989,-0.506,0.832,0.207
34.999,-0.506,0.836,0.209
35.009,-0.508,0.832,0.213
35.018,-0.506,0.832,0.211
35.028,-0.508,0.834,0.213
35.038,-0.504,0.840,0.213
35.048,-0.506,0.838,0.215
35.058,-0.506,0.836,0.211
35.068,-0.508,0.840,0.213
35.078,-0.508,0.842,0.209
35.088,-0.508,0.848,0.209
35.098,-0.512,0.846,0.211
35.108,-0.512,0.842,0.211
35.118,-0.514,0.844,0.207
35.128,-0.510,0.842,0.211
35.138,-0.510,0.832,0.211
35.148,-0.510,0.828,0.211
35.158,-0.508,0.828,0.211
35.167,-0.508,0.828,0.211
35.177,-0.506,0.828,0.209
35.187,-0.508,0.828,0.211
35.197,-0.508,0.832,0.207
35.207,-0.510,0.840,0.209
35.217,-0.508,0.840,0.211
35.227,-0.506,0.846,0.211
35.237,-0.504,0.844,0.213
35.247,-0.504,0.848,0.213
35.257,-0.508,0.848,0.211
35.267,-0.508,0.846,0.211
35.277,-0.500,0.838,0.211
35.287,-0.506,0.844,0.215
35.297,-0.506,0.842,0.215
35.307,-0.502,0.838,0.217
35.316,-0.502,0.830,0.215
35.326,-0.502,0.828,0.213
35.336,-0.504,0.834,0.213
35.346,-0.504,0.836,0.211
35.356,-0.514,0.838,0.215
35.366,-0.514,0.842,0.213
35.376,-0.510,0.844,0.215
35.386,-0.512,0.842,0.213
35.396,-0.510,0.842,0.211
35.406,-0.508,0.840,0.213
35.416,-0.506,0.834,0.219
35.426,-0.508,0.836,0.213
35.436,-0.506,0.832,0.213
35.446,-0.502,0.834,0.219
35.456,-0.504,0.836,0.217
35.465,-0.502,0.838,0.219
35.475,-0.504,0.838,0.217
35.485,-0.508,0.838,0.217
35.495,-0.506,0.838,0.213
35.505,-0.510,0.838,0.213
35.515,-0.510,0.836,0.215
35.525,-0.510,0.834,0.215
35.535,-0.510,0.836,0.213
35.545,-0.506,0.840,0.215
35.555,-0.506,0.840,0.217
35.565,-0.506,0.840,0.217
35.575,-0.504,0.838,0.217
35.585,-0.508,0.838,0.213
35.595,-0.508,0.840,0.219
35.604,-0.506,0.838,0.217
35.614,-0.510,0.840,0.217
35.624,-0.504,0.830,0.217
35.634,-0.506,0.832,0.219
35.644,-0.508,0.834,0.219
35.654,-0.508,0.834,0.215
35.664,-0.510,0.834,0.215
35.674,-0.510,0.834,0.211
35.684,-0.514,0.838,0.213
35.694,-0.510,0.842,0.217
35.704,-0.510,0.842,0.213
35.714,-0.510,0.840,0.219
35.724,-0.508,0.840,0.213
35.734,-0.504,0.836,0.217
35.744,-0.502,0.838,0.219
35.753,-0.504,0.836,0.221
35.763,-0.500,0.832,0.219
35.773,-0.500,0.840,0.221
35.783,-0.504,0.842,0.221
35.793,-0.500,0.842,0.219
35.803,-0.504,0.840,0.219
35.813,-0.506,0.838,0.219
35.823,-0.510,0.842,0.221
35.833,-0.512,0.844,0.223
35.843,-0.510,0.840,0.217
35.853,-0.506,0.842,0.217
35.863,-0.512,0.838,0.219
35.873,-0.506,0.828,0.219
35.883,-0.502,0.830,0.215
35.893,-0.504,0.826,0.221
35.902,-0.502,0.826,0.221
35.912,-0.506,0.824,0.213
35.922,-0.512,0.822,0.213
35.932,-0.514,0.818,0.207
35.942,-0.523,0.803,0.189
35.952,-0.553,0.781,0.180
35.962,-0.566,0.766,0.174
35.972,-0.592,0.756,0.172
35.982,-0.611,0.758,0.160
35.992,-0.623,0.736,0.141
36.002,-0.654,0.701,0.117
36.012,-0.688,0.680,0.119
36.022,-0.693,0.697,0.129
36.032,-0.656,0.723,0.133
36.041,-0.617,0.727,0.123
36.051,-0.555,0.725,0.105
36.061,-0.510,0.719,0.094
36.071,-0.479,0.746,0.082
36.081,-0.469,0.793,0.076
36.091,-0.471,0.854,0.072
36.101,-0.459,0.916,0.072
36.111,-0.439,0.947,0.059
36.121,-0.418,0.979,0.055
36.131,-0.398,0.996,0.051
36.141,-0.383,0.990,0.043
36.151,-0.348,0.998,0.043
36.161,-0.314,0.998,0.045
36.171,-0.303,0.990,0.035
36.181,-0.303,0.971,0.031
36.190,-0.305,0.963,0.023
36.200,-0.307,0.967,0.027
36.210,-0.309,0.971,0.031
36.220,-0.316,0.967,0.029
36.230,-0.334,0.963,0.027
36.240,-0.340,0.963,0.021
36.250,-0.352,0.959,0.020
36.260,-0.363,0.947,0.020
36.270,-0.363,0.965,0.018
36.280,-0.369,0.967,0.020
36.290,-0.381,0.955,0.018
36.300,-0.383,0.955,0.012
36.310,-0.393,0.939,0.012
36.320,-0.402,0.916,0.002
36.330,-0.412,0.887,0.002
36.339,-0.436,0.873,0.006
36.349,-0.436,0.875,0.010
36.359,-0.426,0.885,0.012
36.369,-0.439,0.893,0.020
36.379,-0.441,0.910,0.016
36.389,-0.434,0.924,0.018
36.399,-0.428,0.922,0.016
36.409,-0.426,0.918,0.014
36.419,-0.428,0.910,0.016
36.429,-0.432,0.898,0.016
36.439,-0.443,0.887,0.018
36.449,-0.445,0.873,0.023
36.459,-0.443,0.881,0.031
36.469,-0.441,0.893,0.035
36.479,-0.439,0.871,0.043
36.488,-0.441,0.885,0.037
36.498,-0.443,0.875,0.049
36.508,-0.441,0.867,0.037
36.518,-0.453,0.848,0.045
36.528,-0.455,0.863,0.043
36.538,-0.443,0.867,0.051
36.548,-0.457,0.867,0.045
36.558,-0.467,0.867,0.047
36.568,-0.467,0.865,0.041
36.578,-0.477,0.855,0.039
36.588,-0.486,0.852,0.037
36.598,-0.477,0.879,0.037
36.608,-0.469,0.885,0.043
36.618,-0.477,0.893,0.035
36.627,-0.484,0.865,0.035
36.637,-0.482,0.846,0.035
36.647,-0.482,0.859,0.039
36.657,-0.486,0.857,0.033
36.667,-0.494,0.848,0.039
36.677,-0.488,0.871,0.039
36.687,-0.475,0.891,0.037
36.697,-0.471,0.877,0.037
36.707,-0.490,0.859,0.029
36.717,-0.480,0.867,0.020
36.727,-0.490,0.857,0.023
36.737,-0.492,0.859,0.021
36.747,-0.490,0.854,0.023
36.757,-0.480,0.877,0.023
36.767,-0.477,0.871,0.021
36.776,-0.482,0.867,0.020
36.786,-0.475,0.857,0.014
36.796,-0.479,0.854,0.014
36.806,-0.469,0.861,0.008
36.816,-0.482,0.850,0.018
36.826,-0.480,0.869,0.012
36.836,-0.467,0.873,0.008
36.846,-0.484,0.861,0.018
36.856,-0.482,0.875,0.008
36.866,-0.479,0.867,0.008
36.876,-0.479,0.857,0.000
36.886,-0.484,0.857,0.006
36.896,-0.469,0.863,0.004
36.906,-0.477,0.871,0.010
36.916,-0.473,0.883,0.010
36.925,-0.455,0.900,0.012
36.935,-0.439,0.904,0.010
36.945,-0.441,0.900,0.014
36.955,-0.443,0.889,0.018
36.965,-0.443,0.889,0.016
36.975,-0.447,0.893,0.012
36.985,-0.445,0.881,0.014
36.995,-0.439,0.875,0.012
37.005,-0.439,0.873,0.020
37.015,-0.451,0.865,0.020
37.025,-0.455,0.857,0.014
37.035,-0.457,0.859,0.018
37.045,-0.465,0.859,0.020
37.055,-0.459,0.869,0.018
37.064,-0.463,0.869,0.021
37.074,-0.463,0.865,0.016
37.084,-0.471,0.865,0.016
37.094,-0.477,0.861,0.014
37.104,-0.482,0.863,0.012
37.114,-0.488,0.865,0.010
37.124,-0.490,0.865,0.010
37.134,-0.496,0.859,0.014
37.144,-0.498,0.857,0.018
37.154,-0.496,0.863,0.016
37.164,-0.496,0.871,0.016
37.174,-0.496,0.863,0.018
37.184,-0.494,0.865,0.020
37.194,-0.498,0.865,0.020
37.204,-0.494,0.869,0.020
37.213,-0.477,0.869,0.014
37.223,-0.471,0.869,0.012
37.233,-0.477,0.867,0.004
37.243,-0.475,0.867,0.008
37.253,-0.484,0.865,0.010
37.263,-0.500,0.857,0.008
37.273,-0.500,0.863,0.016
37.283,-0.498,0.871,0.010
37.293,-0.504,0.877,0.018
37.303,-0.504,0.869,0.014
37.313,-0.498,0.863,0.020
37.323,-0.494,0.854,0.020
37.333,-0.488,0.842,0.020
37.343,-0.486,0.842,0.020
37.353,-0.496,0.830,0.016
37.362,-0.500,0.832,0.016
37.372,-0.500,0.836,0.014
37.382,-0.508,0.844,0.018
37.392,-0.506,0.852,0.018
37.402,-0.506,0.861,0.020
37.412,-0.502,0.865,0.018
37.422,-0.492,0.861,0.012
37.432,-0.496,0.865,0.014
37.442,-0.494,0.861,0.016
37.452,-0.492,0.865,0.021
37.462,-0.502,0.857,0.020
37.472,-0.502,0.857,0.014
37.482,-0.502,0.857,0.014
37.492,-0.500,0.857,0.010
37.502,-0.498,0.857,0.010
37.511,-0.502,0.857,0.010
37.521,-0.506,0.852,0.006
37.531,-0.502,0.854,0.006
37.541,-0.512,0.854,0.012
37.551,-0.508,0.848,0.010
37.561,-0.504,0.850,0.010
37.571,-0.502,0.852,0.008
37.581,-0.508,0.854,0.008
37.591,-0.508,0.850,0.010
37.601,-0.512,0.852,0.012
37.611,-0.508,0.854,0.010
37.621,-0.508,0.850,0.010
37.631,-0.514,0.855,0.008
37.641,-0.504,0.857,0.004
37.650,-0.504,0.850,0.012
37.660,-0.508,0.852,0.010
37.670,-0.508,0.848,0.010
37.680,-0.502,0.857,0.014
37.690,-0.492,0.854,0.018
37.700,-0.508,0.830,0.012
37.710,-0.521,0.842,0.010
37.720,-0.510,0.850,0.016
37.730,-0.514,0.842,0.010
37.740,-0.520,0.846,0.012
37.750,-0.514,0.855,0.012
37.760,-0.510,0.850,0.014
37.770,-0.516,0.844,0.014
37.780,-0.512,0.850,0.012
37.790,-0.510,0.846,0.014
37.799,-0.514,0.844,0.012
37.809,-0.512,0.844,0.014
37.819,-0.512,0.846,0.014
37.829,-0.518,0.844,0.010
37.839,-0.516,0.848,0.012
37.849,-0.520,0.846,0.010
37.859,-0.518,0.844,0.014
37.869,-0.520,0.846,0.014
37.879,-0.518,0.844,0.010
37.889,-0.520,0.846,0.008
37.899,-0.520,0.850,0.010
37.909,-0.512,0.850,0.010
37.919,-0.510,0.852,0.012
37.929,-0.506,0.848,0.012
37.939,-0.510,0.848,0.014
37.948,-0.512,0.846,0.008
37.958,-0.510,0.848,0.014
37.968,-0.510,0.852,0.008
37.978,-0.512,0.846,0.008
37.988,-0.514,0.850,0.004
37.998,-0.512,0.854,0.008
38.008,-0.518,0.855,0.010
38.018,-0.518,0.855,0.010
38.028,-0.516,0.855,0.010
38.038,-0.514,0.855,0.008
38.048,-0.514,0.850,0.008
38.058,-0.516,0.848,0.008
38.068,-0.512,0.846,0.012
38.078,-0.510,0.844,0.008
38.087,-0.510,0.842,0.010
38.097,-0.512,0.840,0.012
38.107,-0.506,0.844,0.012
38.117,-0.506,0.842,0.010
38.127,-0.510,0.846,0.010
38.137,-0.508,0.846,0.008
38.147,-0.508,0.848,0.008
38.157,-0.508,0.852,0.012
38.167,-0.514,0.850,0.008
38.177,-0.514,0.854,0.004
38.187,-0.512,0.854,0.010
38.197,-0.514,0.855,0.008
38.207,-0.508,0.857,0.010
38.217,-0.508,0.855,0.008
38.227,-0.508,0.855,0.008
38.236,-0.504,0.848,0.006
38.246,-0.506,0.842,0.006
38.256,-0.508,0.844,0.008
38.266,-0.510,0.846,0.008
38.276,-0.510,0.848,0.008
38.286,-0.512,0.850,0.004
38.296,-0.514,0.854,0.008
38.306,-0.514,0.850,0.008
38.316,-0.512,0.852,0.006
38.326,-0.514,0.850,0.010
38.336,-0.514,0.850,0.006
38.346,-0.512,0.850,0.008
38.356,-0.510,0.850,0.006
38.366,-0.514,0.850,0.006
38.376,-0.506,0.852,0.008
38.385,-0.508,0.852,0.010
38.395,-0.508,0.854,0.010
38.405,-0.510,0.852,0.012
38.415,-0.508,0.850,0.010
38.425,-0.504,0.854,0.010
38.435,-0.500,0.855,0.012
38.445,-0.494,0.855,0.016
38.455,-0.494,0.852,0.014
38.465,-0.492,0.855,0.018
38.475,-0.480,0.867,0.023
38.485,-0.467,0.877,0.029
38.495,-0.436,0.891,0.031
38.505,-0.418,0.891,0.041
38.515,-0.422,0.893,0.039
38.525,-0.420,0.926,0.057
38.534,-0.391,0.963,0.066
38.544,-0.377,0.951,0.055
38.554,-0.393,0.916,0.033
38.564,-0.416,0.883,0.014
38.574,-0.428,0.873,0.014
38.584,-0.443,0.859,0.010
38.594,-0.457,0.850,0.010
38.604,-0.465,0.836,0.002
38.614,-0.488,0.803,-0.014
38.624,-0.510,0.781,-0.016
38.634,-0.525,0.809,-0.004
38.644,-0.533,0.854,0.006
38.654,-0.568,0.875,0.014
38.664,-0.570,0.896,0.018
38.673,-0.529,0.904,0.025
38.683,-0.500,0.904,0.014
38.693,-0.506,0.850,-0.010
38.703,-0.551,0.818,-0.014
38.713,-0.576,0.854,-0.008
38.723,-0.570,0.885,0.002
38.733,-0.561,0.906,0.006
38.743,-0.535,0.932,0.016
38.753,-0.480,0.928,0.025
38.763,-0.441,0.920,0.031
38.773,-0.402,0.910,0.039
38.783,-0.363,0.879,0.055
38.793,-0.355,0.861,0.062
38.803,-0.357,0.857,0.068
38.813,-0.385,0.848,0.070
38.822,-0.420,0.832,0.066
38.832,-0.445,0.836,0.066
38.842,-0.463,0.840,0.062
38.852,-0.498,0.834,0.057
38.862,-0.498,0.850,0.055
38.872,-0.506,0.854,0.053
38.882,-0.521,0.852,0.049
38.892,-0.521,0.854,0.057
38.902,-0.525,0.854,0.049
38.912,-0.531,0.850,0.043
38.922,-0.529,0.846,0.039
38.932,-0.533,0.840,0.033
38.942,-0.529,0.842,0.033
38.952,-0.525,0.855,0.035
38.962,-0.529,0.854,0.037
38.971,-0.533,0.855,0.043
38.981,-0.529,0.861,0.053
38.991,-0.535,0.863,0.062
39.001,-0.525,0.867,0.070
39.011,-0.525,0.859,0.074
39.021,-0.525,0.854,0.074
39.031,-0.529,0.838,0.074
39.041,-0.535,0.830,0.076
39.051,-0.529,0.830,0.082
39.061,-0.525,0.830,0.086
39.071,-0.525,0.836,0.094
39.081,-0.523,0.842,0.100
39.091,-0.512,0.848,0.100
39.101,-0.510,0.852,0.107
39.111,-0.504,0.857,0.111
39.120,-0.500,0.865,0.113
39.130,-0.490,0.867,0.111
39.140,-0.490,0.863,0.105
39.150,-0.477,0.867,0.109
39.160,-0.473,0.865,0.111
39.170,-0.471,0.863,0.117
39.180,-0.467,0.861,0.115
39.190,-0.465,0.863,0.117
39.200,-0.467,0.861,0.123
39.210,-0.465,0.865,0.125
39.220,-0.459,0.867,0.129
39.230,-0.453,0.873,0.133
39.240,-0.451,0.875,0.135
39.250,-0.447,0.877,0.131
39.259,-0.443,0.881,0.137
39.269,-0.439,0.875,0.137
39.279,-0.436,0.875,0.133
39.289,-0.436,0.873,0.137
39.299,-0.436,0.869,0.137
39.309,-0.436,0.871,0.135
39.319,-0.441,0.877,0.141
39.329,-0.434,0.881,0.143
39.339,-0.434,0.891,0.143
39.349,-0.436,0.885,0.145
39.359,-0.436,0.887,0.145
39.369,-0.436,0.885,0.146
39.379,-0.439,0.887,0.146
39.389,-0.436,0.885,0.148
39.399,-0.436,0.879,0.146
39.408,-0.432,0.877,0.150
39.418,-0.428,0.873,0.152
39.428,-0.430,0.871,0.156
39.438,-0.426,0.877,0.156
39.448,-0.420,0.873,0.154
39.458,-0.420,0.877,0.156
39.468,-0.418,0.881,0.158
39.478,-0.414,0.885,0.160
39.488,-0.418,0.885,0.160
39.498,-0.416,0.885,0.162
39.508,-0.412,0.883,0.158
39.518,-0.410,0.891,0.162
39.528,-0.408,0.893,0.164
39.538,-0.406,0.891,0.160
39.548,-0.410,0.885,0.160
39.557,-0.414,0.889,0.164
39.567,-0.410,0.898,0.170
39.577,-0.412,0.893,0.166
39.587,-0.410,0.887,0.162
39.597,-0.410,0.879,0.166
39.607,-0.410,0.885,0.164
39.617,-0.416,0.889,0.166
39.627,-0.414,0.893,0.166
39.637,-0.414,0.893,0.164
39.647,-0.414,0.893,0.166
39.657,-0.414,0.891,0.166
39.667,-0.418,0.885,0.168
39.677,-0.414,0.885,0.164
39.687,-0.412,0.883,0.166
39.696,-0.412,0.881,0.168
39.706,-0.414,0.885,0.166
39.716,-0.408,0.885,0.170
39.726,-0.412,0.885,0.170
39.736,-0.410,0.885,0.168
39.746,-0.410,0.885,0.168
39.756,-0.412,0.883,0.170
39.766,-0.418,0.883,0.166
39.776,-0.416,0.885,0.164
39.786,-0.420,0.883,0.160
39.796,-0.422,0.885,0.162
39.806,-0.424,0.891,0.160
39.816,-0.422,0.891,0.162
39.826,-0.424,0.887,0.162
39.836,-0.422,0.883,0.164
39.845,-0.426,0.879,0.160
39.855,-0.428,0.883,0.162
39.865,-0.432,0.877,0.158
39.875,-0.432,0.879,0.160
39.885,-0.430,0.881,0.160
39.895,-0.430,0.881,0.162
39.905,-0.428,0.885,0.164
39.915,-0.426,0.883,0.160
39.925,-0.422,0.879,0.164
39.935,-0.426,0.881,0.160
39.945,-0.428,0.881,0.162
39.955,-0.432,0.885,0.162
39.965,-0.428,0.883,0.158
39.975,-0.430,0.887,0.160
39.985,-0.434,0.885,0.158
39.994,-0.438,0.885,0.160
40.004,-0.438,0.883,0.158
40.014,-0.438,0.881,0.160
40.024,-0.436,0.881,0.160
40.034,-0.436,0.877,0.158
40.044,-0.434,0.877,0.162
40.054,-0.428,0.875,0.162
40.064,-0.430,0.873,0.162
40.074,-0.434,0.875,0.160
40.084,-0.434,0.879,0.156
40.094,-0.434,0.879,0.156
40.104,-0.436,0.881,0.162
40.114,-0.436,0.883,0.162
40.124,-0.436,0.885,0.160
40.134,-0.436,0.887,0.160
40.143,-0.434,0.889,0.162
40.153,-0.432,0.885,0.160
40.163,-0.434,0.883,0.160
40.173,-0.430,0.887,0.164
40.183,-0.432,0.887,0.162
40.193,-0.426,0.883,0.158
40.203,-0.430,0.879,0.160
40.213,-0.428,0.885,0.162
40.223,-0.428,0.881,0.160
40.233,-0.428,0.881,0.162
40.243,-0.430,0.881,0.160
40.253,-0.434,0.883,0.160
40.263,-0.430,0.881,0.164
40.273,-0.434,0.883,0.164
40.282,-0.434,0.883,0.162
40.292,-0.436,0.881,0.162
40.302,-0.432,0.887,0.164
40.312,-0.434,0.885,0.162
40.322,-0.432,0.883,0.164
40.332,-0.430,0.877,0.162
40.342,-0.432,0.879,0.166
40.352,-0.430,0.877,0.168
40.362,-0.432,0.877,0.166
40.372,-0.432,0.879,0.164
40.382,-0.434,0.879,0.166
40.392,-0.436,0.879,0.166
40.402,-0.438,0.885,0.166
40.412,-0.436,0.881,0.168
40.422,-0.436,0.881,0.166
40.431,-0.436,0.879,0.166
40.441,-0.436,0.877,0.166
40.451,-0.436,0.879,0.168
40.461,-0.434,0.877,0.168
40.471,-0.434,0.883,0.166
40.481,-0.434,0.879,0.168
40.491,-0.432,0.877,0.172
40.501,-0.430,0.879,0.172
40.511,-0.428,0.873,0.170
40.521,-0.430,0.871,0.174
40.531,-0.432,0.879,0.166
40.541,-0.432,0.885,0.170
40.551,-0.432,0.885,0.166
40.561,-0.434,0.885,0.166
40.571,-0.438,0.883,0.172
40.580,-0.441,0.887,0.168
40.590,-0.438,0.889,0.172
40.600,-0.439,0.885,0.168
40.610,-0.441,0.881,0.168
40.620,-0.438,0.877,0.168
40.630,-0.434,0.875,0.166
40.640,-0.436,0.871,0.170
40.650,-0.436,0.875,0.170
40.660,-0.434,0.869,0.168
40.670,-0.436,0.871,0.166
40.680,-0.439,0.875,0.168
40.690,-0.438,0.877,0.168
40.700,-0.443,0.879,0.170
40.710,-0.439,0.883,0.168
40.719,-0.436,0.881,0.170
40.729,-0.438,0.879,0.168
40.739,-0.439,0.883,0.168
40.749,-0.436,0.879,0.168
40.759,-0.434,0.875,0.172
40.769,-0.438,0.881,0.170
40.779,-0.436,0.883,0.174
40.789,-0.432,0.883,0.172
40.799,-0.436,0.869,0.168
40.809,-0.434,0.869,0.170
40.819,-0.434,0.877,0.170
40.829,-0.439,0.879,0.168
40.839,-0.441,0.879,0.166
40.849,-0.439,0.883,0.168
40.859,-0.441,0.881,0.166
40.868,-0.445,0.879,0.172
40.878,-0.439,0.879,0.168
40.888,-0.438,0.877,0.170
40.898,-0.436,0.879,0.170
40.908,-0.441,0.875,0.172
40.918,-0.436,0.877,0.170
40.928,-0.438,0.875,0.172
40.938,-0.436,0.877,0.170
40.948,-0.438,0.875,0.172
40.958,-0.438,0.871,0.168
40.968,-0.438,0.877,0.170
40.978,-0.439,0.875,0.172
40.988,-0.439,0.875,0.172
40.998,-0.443,0.875,0.166
41.008,-0.443,0.877,0.170
41.017,-0.441,0.877,0.172
41.027,-0.439,0.877,0.172
41.037,-0.438,0.881,0.172
41.047,-0.439,0.881,0.172
41.057,-0.443,0.881,0.170
41.067,-0.443,0.879,0.168
41.077,-0.443,0.875,0.176
41.087,-0.438,0.873,0.174
41.097,-0.439,0.873,0.174
41.107,-0.441,0.869,0.174
41.117,-0.439,0.871,0.176
41.127,-0.443,0.875,0.178
41.137,-0.443,0.879,0.176
41.147,-0.443,0.875,0.172
41.157,-0.447,0.873,0.172
41.166,-0.451,0.879,0.174
41.176,-0.449,0.883,0.178
41.186,-0.451,0.881,0.174
41.196,-0.449,0.871,0.176
41.206,-0.449,0.871,0.178
41.216,-0.451,0.867,0.176
41.226,-0.445,0.865,0.174
41.236,-0.445,0.863,0.174
41.246,-0.447,0.863,0.178
41.256,-0.445,0.861,0.174
41.266,-0.445,0.865,0.176
41.276,-0.445,0.867,0.178
41.286,-0.447,0.877,0.176
41.296,-0.449,0.875,0.180
41.305,-0.449,0.875,0.172
41.315,-0.449,0.879,0.174
41.325,-0.449,0.881,0.174
41.335,-0.453,0.877,0.172
41.345,-0.451,0.883,0.178
41.355,-0.453,0.875,0.176
41.365,-0.451,0.873,0.174
41.375,-0.455,0.877,0.176
41.385,-0.447,0.879,0.178
41.395,-0.445,0.869,0.174
41.405,-0.447,0.861,0.170
41.415,-0.443,0.865,0.174
41.425,-0.449,0.869,0.172
41.435,-0.453,0.869,0.176
41.445,-0.449,0.879,0.176
41.454,-0.449,0.877,0.178
41.464,-0.451,0.873,0.174
41.474,-0.447,0.879,0.176
41.484,-0.451,0.873,0.178
41.494,-0.445,0.875,0.174
41.504,-0.445,0.871,0.178
41.514,-0.445,0.869,0.176
41.524,-0.441,0.871,0.176
41.534,-0.441,0.873,0.176
41.544,-0.443,0.873,0.178
41.554,-0.439,0.871,0.178
41.564,-0.441,0.871,0.180
41.574,-0.441,0.873,0.174
41.584,-0.438,0.873,0.178
41.594,-0.441,0.873,0.178
41.603,-0.441,0.877,0.180
41.613,-0.438,0.875,0.176
41.623,-0.441,0.877,0.178
41.633,-0.441,0.877,0.174
41.643,-0.441,0.875,0.178
41.653,-0.439,0.877,0.176
41.663,-0.443,0.877,0.174
41.673,-0.441,0.879,0.174
41.683,-0.447,0.883,0.174
41.693,-0.443,0.877,0.176
41.703,-0.441,0.873,0.176
41.713,-0.438,0.871,0.176
41.723,-0.439,0.869,0.174
41.733,-0.438,0.871,0.178
41.742,-0.438,0.871,0.178
41.752,-0.439,0.873,0.182
41.762,-0.438,0.879,0.180
41.772,-0.432,0.879,0.182
41.782,-0.436,0.875,0.180
41.792,-0.443,0.877,0.178
41.802,-0.447,0.881,0.180
41.812,-0.447,0.885,0.178
41.822,-0.445,0.883,0.180
41.832,-0.443,0.879,0.180
41.842,-0.445,0.871,0.178
41.852,-0.447,0.871,0.178
41.862,-0.443,0.865,0.178
41.872,-0.445,0.863,0.178
41.882,-0.441,0.865,0.176
41.891,-0.445,0.867,0.178
41.901,-0.445,0.871,0.176
41.911,-0.445,0.871,0.182
41.921,-0.443,0.871,0.178
41.931,-0.445,0.871,0.178
41.941,-0.445,0.875,0.178
41.951,-0.441,0.877,0.176
41.961,-0.447,0.881,0.178
41.971,-0.447,0.879,0.180
41.981,-0.449,0.879,0.180
41.991,-0.449,0.877,0.180
42.001,-0.447,0.871,0.176
42.011,-0.449,0.879,0.180
42.021,-0.449,0.877,0.180
42.031,-0.443,0.871,0.182
42.040,-0.445,0.865,0.174
42.050,-0.441,0.861,0.178
42.060,-0.445,0.873,0.176
42.070,-0.445,0.873,0.176
42.080,-0.443,0.877,0.180
42.090,-0.443,0.875,0.180
42.100,-0.443,0.877,0.178
42.110,-0.443,0.875,0.178
42.120,-0.445,0.875,0.178
42.130,-0.445,0.873,0.180
42.140,-0.443,0.873,0.180
42.150,-0.441,0.873,0.180
42.160,-0.441,0.871,0.178
42.170,-0.441,0.873,0.178
42.180,-0.439,0.875,0.182
42.189,-0.438,0.875,0.178
42.199,-0.441,0.875,0.178
42.209,-0.439,0.873,0.180
42.219,-0.441,0.871,0.178
42.229,-0.441,0.877,0.180
42.239,-0.441,0.875,0.180
42.249,-0.439,0.875,0.180
42.259,-0.441,0.877,0.178
42.269,-0.441,0.877,0.180
42.279,-0.441,0.873,0.180
42.289,-0.441,0.871,0.182
42.299,-0.438,0.873,0.178
42.309,-0.443,0.877,0.182
42.319,-0.439,0.875,0.180
42.328,-0.439,0.873,0.180
42.338,-0.441,0.875,0.180
42.348,-0.441,0.873,0.178
42.358,-0.445,0.873,0.178
42.368,-0.441,0.875,0.180
42.378,-0.443,0.877,0.178
42.388,-0.447,0.877,0.180
42.398,-0.445,0.875,0.180
42.408,-0.445,0.877,0.178
42.418,-0.445,0.875,0.180
42.428,-0.445,0.873,0.178
42.438,-0.439,0.869,0.180
42.448,-0.439,0.867,0.184
42.458,-0.439,0.871,0.184
42.468,-0.441,0.869,0.182
42.477,-0.441,0.871,0.186
42.487,-0.443,0.879,0.184
42.497,-0.438,0.877,0.182
42.507,-0.439,0.871,0.180
42.517,-0.445,0.879,0.182
42.527,-0.449,0.883,0.186
42.537,-0.447,0.881,0.182
42.547,-0.447,0.881,0.180
42.557,-0.449,0.875,0.180
42.567,-0.447,0.875,0.182
42.577,-0.447,0.869,0.182
42.587,-0.447,0.867,0.180
42.597,-0.445,0.863,0.182
42.607,-0.445,0.865,0.180
42.617,-0.445,0.865,0.182
42.626,-0.443,0.865,0.180
42.636,-0.445,0.869,0.176
42.646,-0.445,0.869,0.180
42.656,-0.447,0.873,0.182
42.666,-0.445,0.873,0.178
42.676,-0.447,0.877,0.178
42.686,-0.451,0.879,0.180
42.696,-0.449,0.877,0.176
42.706,-0.447,0.881,0.180
42.716,-0.449,0.877,0.178
42.726,-0.447,0.875,0.180
42.736,-0.451,0.875,0.184
42.746,-0.449,0.879,0.182
42.756,-0.441,0.871,0.180
42.766,-0.441,0.863,0.180
42.775,-0.445,0.859,0.176
42.785,-0.445,0.869,0.182
42.795,-0.443,0.873,0.180
42.805,-0.443,0.875,0.180
42.815,-0.445,0.877,0.178
42.825,-0.445,0.879,0.184
42.835,-0.445,0.877,0.182
42.845,-0.445,0.875,0.182
42.855,-0.445,0.873,0.184
42.865,-0.445,0.871,0.182
42.875,-0.443,0.871,0.180
42.885,-0.443,0.867,0.182
42.895,-0.441,0.869,0.180
42.905,-0.439,0.869,0.180
42.914,-0.439,0.869,0.182
42.924,-0.438,0.869,0.180
42.934,-0.438,0.873,0.184
42.944,-0.441,0.869,0.180
42.954,-0.443,0.871,0.180
42.964,-0.438,0.873,0.180
42.974,-0.439,0.871,0.176
42.984,-0.438,0.879,0.180
42.994,-0.441,0.877,0.178
43.004,-0.434,0.879,0.178
43.014,-0.438,0.877,0.180
43.024,-0.434,0.877,0.178
43.034,-0.430,0.875,0.182
43.044,-0.432,0.877,0.178
43.054,-0.432,0.883,0.178
43.063,-0.438,0.881,0.176
43.073,-0.430,0.879,0.178
43.083,-0.422,0.881,0.176
43.093,-0.430,0.875,0.176
43.103,-0.430,0.877,0.174
43.113,-0.418,0.883,0.176
43.123,-0.420,0.879,0.174
43.133,-0.420,0.883,0.176
43.143,-0.420,0.883,0.178
43.153,-0.418,0.879,0.174
43.163,-0.406,0.883,0.174
43.173,-0.404,0.887,0.174
43.183,-0.408,0.885,0.176
43.193,-0.408,0.881,0.176
43.203,-0.410,0.881,0.176
43.212,-0.400,0.883,0.174
43.222,-0.393,0.885,0.176
43.232,-0.396,0.885,0.174
43.242,-0.396,0.891,0.176
43.252,-0.385,0.891,0.174
43.262,-0.379,0.895,0.174
43.272,-0.379,0.900,0.174
43.282,-0.379,0.902,0.170
43.292,-0.373,0.908,0.172
43.302,-0.379,0.904,0.168
43.312,-0.383,0.908,0.172
43.322,-0.377,0.912,0.170
43.332,-0.375,0.906,0.168
43.342,-0.375,0.902,0.166
43.351,-0.367,0.898,0.162
43.361,-0.357,0.896,0.162
43.371,-0.357,0.896,0.162
43.381,-0.350,0.900,0.160
43.391,-0.346,0.896,0.158
43.401,-0.342,0.904,0.156
43.411,-0.346,0.910,0.156
43.421,-0.344,0.910,0.152
43.431,-0.342,0.918,0.154
43.441,-0.342,0.918,0.150
43.451,-0.338,0.918,0.145
43.461,-0.338,0.916,0.145
43.471,-0.336,0.914,0.141
43.481,-0.330,0.914,0.139
43.491,-0.330,0.912,0.139
43.500,-0.328,0.916,0.135
43.510,-0.324,0.926,0.139
43.520,-0.320,0.928,0.137
43.530,-0.330,0.924,0.127
43.540,-0.332,0.934,0.127
43.550,-0.328,0.945,0.129
43.560,-0.328,0.945,0.125
43.570,-0.332,0.939,0.123
43.580,-0.332,0.938,0.119
43.590,-0.326,0.934,0.117
43.600,-0.324,0.934,0.111
43.610,-0.322,0.928,0.109
43.620,-0.318,0.924,0.105
43.630,-0.311,0.930,0.107
43.640,-0.305,0.936,0.105
43.649,-0.303,0.932,0.105
43.659,-0.301,0.934,0.104
43.669,-0.301,0.934,0.104
43.679,-0.299,0.930,0.098
43.689,-0.299,0.930,0.100
43.699,-0.301,0.930,0.098
43.709,-0.297,0.928,0.094
43.719,-0.299,0.928,0.090
43.729,-0.293,0.934,0.094
43.739,-0.289,0.934,0.088
43.749,-0.287,0.932,0.090
43.759,-0.283,0.932,0.084
43.769,-0.281,0.932,0.084
43.779,-0.281,0.934,0.088
43.789,-0.277,0.932,0.088
43.798,-0.279,0.934,0.088
43.808,-0.281,0.939,0.088
43.818,-0.277,0.943,0.086
43.828,-0.275,0.945,0.088
43.838,-0.270,0.945,0.084
43.848,-0.271,0.945,0.082
43.858,-0.268,0.941,0.080
43.868,-0.262,0.945,0.084
43.878,-0.262,0.941,0.082
43.888,-0.262,0.941,0.084
43.898,-0.256,0.934,0.082
43.908,-0.250,0.936,0.088
43.918,-0.246,0.941,0.092
43.928,-0.240,0.934,0.084
43.937,-0.236,0.939,0.080
43.947,-0.236,0.949,0.086
43.957,-0.227,0.953,0.080
43.967,-0.227,0.947,0.082
43.977,-0.225,0.947,0.084
43.987,-0.229,0.957,0.082
43.997,-0.230,0.959,0.080
44.007,-0.223,0.959,0.078
44.017,-0.221,0.963,0.076
44.027,-0.219,0.955,0.072
44.037,-0.215,0.957,0.074
44.047,-0.207,0.959,0.070
44.057,-0.201,0.957,0.074
44.067,-0.201,0.957,0.072
44.077,-0.199,0.957,0.072
44.086,-0.195,0.957,0.072
44.096,-0.191,0.951,0.076
44.106,-0.193,0.959,0.076
44.116,-0.193,0.965,0.076
44.126,-0.191,0.961,0.074
44.136,-0.191,0.965,0.072
44.146,-0.186,0.963,0.072
44.156,-0.182,0.967,0.072
44.166,-0.180,0.967,0.072
44.176,-0.182,0.965,0.074
44.186,-0.174,0.963,0.072
44.196,-0.174,0.963,0.076
44.206,-0.172,0.963,0.076
44.216,-0.168,0.959,0.076
44.226,-0.164,0.955,0.074
44.235,-0.158,0.953,0.074
44.245,-0.158,0.963,0.074
44.255,-0.162,0.967,0.082
44.265,-0.158,0.969,0.078
44.275,-0.154,0.973,0.078
44.285,-0.150,0.969,0.078
44.295,-0.150,0.967,0.080
44.305,-0.148,0.963,0.082
44.315,-0.143,0.963,0.080
44.325,-0.148,0.957,0.080
44.335,-0.150,0.955,0.082
44.345,-0.148,0.961,0.082
44.355,-0.146,0.963,0.086
44.365,-0.145,0.963,0.080
44.374,-0.148,0.965,0.080
44.384,-0.156,0.959,0.082
44.394,-0.158,0.967,0.078
44.404,-0.146,0.969,0.076
44.414,-0.146,0.965,0.076
44.424,-0.154,0.963,0.076
44.434,-0.154,0.967,0.078
44.444,-0.154,0.971,0.080
44.454,-0.154,0.967,0.074
44.464,-0.152,0.963,0.080
44.474,-0.160,0.961,0.080
44.484,-0.164,0.961,0.082
44.494,-0.162,0.961,0.084
44.504,-0.164,0.959,0.078
44.514,-0.166,0.953,0.078
44.523,-0.164,0.959,0.080
44.533,-0.170,0.955,0.080
44.543,-0.166,0.953,0.076
44.553,-0.158,0.951,0.078
44.563,-0.154,0.955,0.082
44.573,-0.160,0.955,0.092
44.583,-0.152,0.953,0.088
44.593,-0.174,0.941,0.076
44.603,-0.166,0.955,0.086
44.613,-0.164,0.961,0.084
44.623,-0.166,0.961,0.076
44.633,-0.158,0.963,0.082
44.643,-0.172,0.963,0.082
44.653,-0.170,0.965,0.076
44.663,-0.170,0.965,0.080
44.672,-0.168,0.967,0.074
44.682,-0.166,0.963,0.084
44.692,-0.166,0.959,0.080
44.702,-0.168,0.961,0.080
44.712,-0.168,0.959,0.084
44.722,-0.168,0.957,0.080
44.732,-0.172,0.959,0.082
44.742,-0.176,0.957,0.082
44.752,-0.178,0.957,0.082
44.762,-0.180,0.959,0.082
44.772,-0.176,0.959,0.080
44.782,-0.178,0.961,0.080
44.792,-0.172,0.959,0.080
44.802,-0.176,0.961,0.080
44.812,-0.174,0.965,0.084
44.821,-0.168,0.961,0.086
44.831,-0.172,0.965,0.082
44.841,-0.170,0.965,0.086
44.851,-0.174,0.957,0.086
44.861,-0.174,0.959,0.088
44.871,-0.172,0.963,0.090
44.881,-0.170,0.959,0.090
44.891,-0.174,0.945,0.086
44.901,-0.176,0.949,0.086
44.911,-0.176,0.951,0.092
44.921,-0.180,0.953,0.090
44.931,-0.178,0.961,0.088
44.941,-0.176,0.969,0.090
44.951,-0.180,0.961,0.090
44.960,-0.184,0.961,0.092
44.970,-0.178,0.961,0.092
44.980,-0.178,0.957,0.096
44.990,-0.180,0.947,0.090
45.000,-0.174,0.951,0.088
45.010,-0.176,0.949,0.090
45.020,-0.178,0.951,0.090
45.030,-0.174,0.959,0.092
45.040,-0.178,0.959,0.094
45.050,-0.180,0.959,0.100
45.060,-0.186,0.953,0.098
45.070,-0.186,0.953,0.092
45.080,-0.186,0.961,0.090
45.090,-0.189,0.953,0.086
45.100,-0.188,0.955,0.088
45.109,-0.191,0.961,0.080
45.119,-0.188,0.961,0.080
45.129,-0.191,0.959,0.080
45.139,-0.189,0.965,0.080
45.149,-0.193,0.963,0.080
45.159,-0.197,0.965,0.080
45.169,-0.201,0.963,0.076
45.179,-0.199,0.967,0.080
45.189,-0.199,0.963,0.086
45.199,-0.199,0.963,0.082
45.209,-0.199,0.965,0.082
45.219,-0.197,0.959,0.082
45.229,-0.197,0.943,0.080
45.239,-0.201,0.943,0.086
45.249,-0.209,0.945,0.088
45.258,-0.209,0.941,0.088
45.268,-0.215,0.945,0.084
45.278,-0.211,0.947,0.088
45.288,-0.211,0.957,0.086
45.298,-0.205,0.961,0.084
45.308,-0.207,0.961,0.086
45.318,-0.215,0.965,0.086
45.328,-0.223,0.965,0.090
45.338,-0.232,0.963,0.090
45.348,-0.234,0.957,0.090
45.358,-0.232,0.959,0.092
45.368,-0.229,0.947,0.090
45.378,-0.221,0.938,0.090
45.388,-0.219,0.947,0.092
45.398,-0.209,0.943,0.090
45.407,-0.211,0.936,0.086
45.417,-0.211,0.936,0.092
45.427,-0.217,0.938,0.090
45.437,-0.227,0.943,0.092
45.447,-0.229,0.947,0.092
45.457,-0.232,0.949,0.092
45.467,-0.234,0.949,0.090
45.477,-0.238,0.947,0.092
45.487,-0.234,0.947,0.090
45.497,-0.232,0.951,0.092
45.507,-0.240,0.945,0.088
45.517,-0.236,0.959,0.092
45.527,-0.238,0.945,0.098
45.537,-0.225,0.951,0.090
45.546,-0.232,0.953,0.098
45.556,-0.234,0.943,0.096
45.566,-0.230,0.938,0.096
45.576,-0.232,0.941,0.092
45.586,-0.240,0.947,0.096
45.596,-0.242,0.947,0.094
45.606,-0.246,0.949,0.096
45.616,-0.248,0.947,0.096
45.626,-0.248,0.951,0.100
45.636,-0.250,0.945,0.098
45.646,-0.250,0.941,0.094
45.656,-0.248,0.939,0.096
45.666,-0.246,0.943,0.092
45.676,-0.248,0.943,0.090
45.686,-0.246,0.945,0.092
45.695,-0.242,0.947,0.092
45.705,-0.244,0.947,0.094
45.715,-0.238,0.953,0.094
45.725,-0.240,0.951,0.092
45.735,-0.244,0.945,0.094
45.745,-0.246,0.945,0.094
45.755,-0.242,0.947,0.092
45.765,-0.250,0.945,0.094
45.775,-0.250,0.939,0.092
45.785,-0.246,0.943,0.092
45.795,-0.250,0.938,0.090
45.805,-0.250,0.941,0.092
45.815,-0.248,0.943,0.092
45.825,-0.252,0.943,0.094
45.835,-0.258,0.943,0.090
45.844,-0.246,0.943,0.094
45.854,-0.258,0.943,0.094
45.864,-0.252,0.949,0.090
45.874,-0.252,0.945,0.090
45.884,-0.252,0.943,0.098
45.894,-0.254,0.941,0.094
45.904,-0.252,0.939,0.096
45.914,-0.248,0.941,0.096
45.924,-0.240,0.943,0.100
45.934,-0.234,0.943,0.100
45.944,-0.234,0.943,0.094
45.954,-0.236,0.943,0.094
45.964,-0.238,0.947,0.092
45.974,-0.250,0.951,0.098
45.983,-0.246,0.955,0.098
45.993,-0.250,0.953,0.094
46.003,-0.246,0.949,0.096
46.013,-0.246,0.947,0.094
46.023,-0.246,0.943,0.098
46.033,-0.244,0.941,0.096
46.043,-0.244,0.945,0.098
46.053,-0.242,0.943,0.098
46.063,-0.240,0.943,0.098
46.073,-0.242,0.943,0.100
46.083,-0.244,0.949,0.098
46.093,-0.242,0.949,0.094
46.103,-0.242,0.947,0.096
46.113,-0.240,0.947,0.096
46.123,-0.248,0.945,0.100
46.132,-0.244,0.945,0.096
46.142,-0.246,0.949,0.098
46.152,-0.244,0.947,0.096
46.162,-0.242,0.943,0.100
46.172,-0.242,0.941,0.100
46.182,-0.240,0.947,0.098
46.192,-0.240,0.943,0.104
46.202,-0.236,0.943,0.096
46.212,-0.238,0.939,0.094
46.222,-0.244,0.945,0.098
46.232,-0.244,0.949,0.096
46.242,-0.244,0.949,0.098
46.252,-0.244,0.951,0.100
46.262,-0.242,0.953,0.098
46.272,-0.244,0.947,0.098
46.281,-0.244,0.945,0.098
46.291,-0.244,0.945,0.102
46.301,-0.244,0.941,0.096
46.311,-0.246,0.941,0.100
46.321,-0.242,0.945,0.096
46.331,-0.242,0.943,0.098
46.341,-0.246,0.938,0.098
46.351,-0.244,0.943,0.098
46.361,-0.240,0.947,0.098
46.371,-0.244,0.945,0.092
46.381,-0.246,0.947,0.096
46.391,-0.240,0.947,0.094
46.401,-0.244,0.949,0.092
46.411,-0.240,0.953,0.094
46.421,-0.246,0.951,0.096
46.430,-0.244,0.949,0.094
46.440,-0.246,0.949,0.094
46.450,-0.248,0.945,0.094
46.460,-0.248,0.951,0.092
46.470,-0.252,0.953,0.096
46.480,-0.254,0.947,0.092
46.490,-0.254,0.945,0.094
46.500,-0.250,0.945,0.094
46.510,-0.252,0.943,0.094
46.520,-0.252,0.945,0.098
46.530,-0.246,0.939,0.094
46.540,-0.244,0.939,0.092
46.550,-0.246,0.945,0.096
46.560,-0.238,0.943,0.096
46.569,-0.242,0.943,0.094
46.579,-0.246,0.947,0.096
46.589,-0.246,0.949,0.098
46.599,-0.250,0.949,0.098
46.609,-0.250,0.947,0.096
46.619,-0.250,0.947,0.098
46.629,-0.248,0.945,0.098
46.639,-0.244,0.945,0.100
46.649,-0.246,0.943,0.098
46.659,-0.246,0.943,0.100
46.669,-0.246,0.943,0.098
46.679,-0.244,0.943,0.098
46.689,-0.244,0.941,0.094
46.699,-0.246,0.941,0.102
46.709,-0.248,0.947,0.096
46.718,-0.248,0.949,0.098
46.728,-0.250,0.947,0.100
46.738,-0.250,0.945,0.098
46.748,-0.250,0.945,0.100
46.758,-0.248,0.947,0.096
46.768,-0.248,0.947,0.098
46.778,-0.248,0.945,0.100
46.788,-0.248,0.951,0.096
46.798,-0.244,0.949,0.102
46.808,-0.238,0.949,0.098
46.818,-0.240,0.939,0.100
46.828,-0.240,0.943,0.104
46.838,-0.244,0.953,0.104
46.848,-0.244,0.949,0.102
46.858,-0.244,0.949,0.104
46.867,-0.244,0.953,0.107
46.877,-0.244,0.955,0.105
46.887,-0.242,0.951,0.107
46.897,-0.242,0.945,0.105
46.907,-0.234,0.945,0.105
46.917,-0.232,0.945,0.105
46.927,-0.234,0.938,0.105
46.937,-0.240,0.941,0.111
46.947,-0.230,0.955,0.107
46.957,-0.230,0.953,0.117
46.967,-0.238,0.949,0.109
46.977,-0.238,0.941,0.109
46.987,-0.242,0.938,0.107
46.997,-0.246,0.936,0.102
47.006,-0.250,0.939,0.100
47.016,-0.246,0.939,0.102
47.026,-0.240,0.943,0.102
47.036,-0.236,0.945,0.102
47.046,-0.240,0.949,0.100
47.056,-0.240,0.957,0.100
47.066,-0.242,0.953,0.105
47.076,-0.240,0.957,0.104
47.086,-0.244,0.961,0.105
47.096,-0.244,0.953,0.102
47.106,-0.246,0.947,0.107
47.116,-0.248,0.947,0.107
47.126,-0.252,0.947,0.107
47.136,-0.246,0.947,0.107
47.146,-0.246,0.941,0.109
47.155,-0.252,0.939,0.107
47.165,-0.248,0.939,0.107
47.175,-0.260,0.932,0.109
47.185,-0.262,0.932,0.109
47.195,-0.258,0.939,0.107
47.205,-0.260,0.934,0.107
47.215,-0.266,0.941,0.107
47.225,-0.268,0.947,0.107
47.235,-0.271,0.953,0.113
47.245,-0.271,0.955,0.115
47.255,-0.271,0.945,0.111
47.265,-0.264,0.945,0.109
47.275,-0.268,0.939,0.105
47.285,-0.268,0.936,0.109
47.295,-0.266,0.934,0.113
47.304,-0.264,0.928,0.117
47.314,-0.266,0.928,0.115
47.324,-0.268,0.930,0.113
47.334,-0.271,0.930,0.115
47.344,-0.268,0.932,0.115
47.354,-0.270,0.932,0.115
47.364,-0.275,0.928,0.111
47.374,-0.273,0.936,0.111
47.384,-0.271,0.932,0.107
47.394,-0.275,0.938,0.111
47.404,-0.273,0.947,0.109
47.414,-0.281,0.943,0.111
47.424,-0.281,0.951,0.113
47.434,-0.281,0.955,0.117
47.444,-0.279,0.949,0.117
47.453,-0.277,0.934,0.113
47.463,-0.281,0.928,0.113
47.473,-0.283,0.934,0.113
47.483,-0.281,0.936,0.113
47.493,-0.275,0.934,0.113
47.503,-0.271,0.936,0.115
47.513,-0.275,0.932,0.117
47.523,-0.271,0.936,0.115
47.533,-0.271,0.941,0.113
47.543,-0.270,0.938,0.117
47.553,-0.273,0.938,0.117
47.563,-0.268,0.943,0.117
47.573,-0.273,0.939,0.117
47.583,-0.273,0.938,0.115
47.592,-0.271,0.936,0.117
47.602,-0.273,0.936,0.115
47.612,-0.273,0.936,0.113
47.622,-0.275,0.938,0.115
47.632,-0.271,0.938,0.113
47.642,-0.279,0.936,0.111
47.652,-0.279,0.936,0.115
47.662,-0.277,0.938,0.113
47.672,-0.277,0.939,0.113
47.682,-0.275,0.941,0.113
47.692,-0.273,0.941,0.109
47.702,-0.271,0.938,0.111
47.712,-0.271,0.934,0.111
47.722,-0.271,0.941,0.109
47.732,-0.270,0.939,0.113
47.741,-0.268,0.938,0.113
47.751,-0.273,0.936,0.113
47.761,-0.270,0.943,0.113
47.771,-0.275,0.943,0.111
47.781,-0.275,0.941,0.109
47.791,-0.273,0.943,0.111
47.801,-0.270,0.936,0.111
47.811,-0.273,0.936,0.113
47.821,-0.268,0.936,0.115
47.831,-0.271,0.934,0.113
47.841,-0.270,0.938,0.115
47.851,-0.266,0.941,0.113
47.861,-0.268,0.938,0.115
47.871,-0.270,0.943,0.111
47.881,-0.271,0.951,0.117
47.890,-0.264,0.961,0.121
47.900,-0.252,0.973,0.133
47.910,-0.238,0.975,0.135
47.920,-0.229,0.967,0.131
47.930,-0.225,0.957,0.129
47.940,-0.229,0.947,0.127
47.950,-0.227,0.941,0.127
47.960,-0.227,0.943,0.127
47.970,-0.236,0.939,0.125
47.980,-0.244,0.941,0.127
47.990,-0.244,0.936,0.125
48.000,-0.250,0.932,0.119
48.010,-0.262,0.934,0.125
48.020,-0.273,0.936,0.121
48.029,-0.279,0.932,0.123
48.039,-0.285,0.936,0.121
48.049,-0.293,0.930,0.121
48.059,-0.289,0.928,0.117
48.069,-0.283,0.924,0.115
48.079,-0.297,0.930,0.119
48.089,-0.297,0.930,0.121
48.099,-0.289,0.938,0.119
48.109,-0.297,0.936,0.117
48.119,-0.295,0.934,0.117
48.129,-0.301,0.936,0.117
48.139,-0.301,0.941,0.125
48.149,-0.295,0.947,0.131
48.159,-0.285,0.945,0.133
48.169,-0.277,0.947,0.135
48.178,-0.266,0.949,0.137
48.188,-0.262,0.941,0.137
48.198,-0.256,0.938,0.133
48.208,-0.262,0.936,0.131
48.218,-0.262,0.938,0.129
48.228,-0.268,0.939,0.133
48.238,-0.268,0.949,0.137
48.248,-0.270,0.949,0.143
48.258,-0.270,0.947,0.143
48.268,-0.266,0.957,0.146
48.278,-0.264,0.953,0.148
48.288,-0.260,0.941,0.148
48.298,-0.258,0.943,0.146
48.308,-0.270,0.939,0.145
48.318,-0.270,0.943,0.150
48.327,-0.268,0.953,0.160
48.337,-0.258,0.967,0.164
48.347,-0.246,0.973,0.168
48.357,-0.240,0.969,0.164
48.367,-0.246,0.979,0.168
48.377,-0.250,0.977,0.164
48.387,-0.260,0.963,0.158
48.397,-0.268,0.965,0.156
48.407,-0.285,0.959,0.156
48.417,-0.287,0.959,0.164
48.427,-0.291,0.955,0.168
48.437,-0.295,0.945,0.166
48.447,-0.307,0.932,0.166
48.457,-0.322,0.918,0.158
48.467,-0.342,0.900,0.154
48.476,-0.367,0.893,0.150
48.486,-0.387,0.883,0.150
48.496,-0.410,0.863,0.148
48.506,-0.436,0.857,0.152
48.516,-0.453,0.865,0.160
48.526,-0.461,0.859,0.166
48.536,-0.469,0.855,0.168
48.546,-0.465,0.846,0.168
48.556,-0.473,0.840,0.170
48.566,-0.482,0.836,0.174
48.576,-0.486,0.828,0.174
48.586,-0.486,0.828,0.174
48.596,-0.492,0.816,0.174
48.606,-0.498,0.814,0.178
48.615,-0.506,0.818,0.180
48.625,-0.514,0.820,0.184
48.635,-0.510,0.818,0.186
48.645,-0.516,0.814,0.191
48.655,-0.518,0.822,0.191
48.665,-0.520,0.826,0.193
48.675,-0.525,0.818,0.189
48.685,-0.537,0.816,0.186
48.695,-0.535,0.803,0.186
48.705,-0.545,0.811,0.188
48.715,-0.557,0.814,0.186
48.725,-0.559,0.812,0.186
48.735,-0.555,0.812,0.188
48.745,-0.551,0.809,0.191
48.755,-0.551,0.812,0.189
48.764,-0.555,0.816,0.193
48.774,-0.555,0.812,0.191
48.784,-0.549,0.812,0.189
48.794,-0.555,0.807,0.191
48.804,-0.559,0.809,0.188
48.814,-0.566,0.803,0.186
48.824,-0.566,0.801,0.184
48.834,-0.568,0.805,0.189
48.844,-0.576,0.803,0.188
48.854,-0.576,0.805,0.191
48.864,-0.572,0.803,0.191
48.874,-0.568,0.809,0.197
48.884,-0.564,0.811,0.197
48.894,-0.570,0.799,0.199
48.904,-0.568,0.805,0.199
48.913,-0.566,0.797,0.193
48.923,-0.570,0.803,0.195
48.933,-0.572,0.801,0.195
48.943,-0.572,0.803,0.195
48.953,-0.574,0.799,0.195
48.963,-0.584,0.795,0.191
48.973,-0.582,0.795,0.193
48.983,-0.580,0.797,0.195
48.993,-0.584,0.803,0.195
49.003,-0.586,0.799,0.199
49.013,-0.582,0.797,0.197
49.023,-0.574,0.791,0.195
49.033,-0.576,0.793,0.197
49.043,-0.582,0.793,0.197
49.052,-0.580,0.783,0.193
49.062,-0.576,0.789,0.195
49.072,-0.588,0.791,0.191
49.082,-0.590,0.793,0.195
49.092,-0.594,0.791,0.189
49.102,-0.600,0.789,0.188
49.112,-0.604,0.791,0.189
49.122,-0.609,0.797,0.189
49.132,-0.605,0.797,0.189
49.142,-0.600,0.797,0.191
49.152,-0.596,0.793,0.188
49.162,-0.594,0.787,0.186
49.172,-0.592,0.779,0.186
49.182,-0.592,0.779,0.182
49.192,-0.598,0.775,0.182
49.201,-0.592,0.775,0.178
49.211,-0.596,0.779,0.180
49.221,-0.602,0.777,0.178
49.231,-0.607,0.787,0.176
49.241,-0.607,0.793,0.180
49.251,-0.604,0.793,0.180
49.261,-0.602,0.795,0.182
49.271,-0.598,0.795,0.178
49.281,-0.590,0.781,0.176
49.291,-0.594,0.781,0.176
49.301,-0.602,0.793,0.178
49.311,-0.600,0.797,0.178
49.321,-0.600,0.789,0.172
49.331,-0.604,0.777,0.170
49.341,-0.605,0.783,0.168
49.350,-0.609,0.789,0.172
49.360,-0.605,0.785,0.168
49.370,-0.605,0.791,0.172
49.380,-0.605,0.793,0.168
49.390,-0.598,0.791,0.174
49.400,-0.598,0.787,0.168
49.410,-0.602,0.785,0.170
49.420,-0.600,0.789,0.168
49.430,-0.600,0.787,0.168
49.440,-0.604,0.783,0.166
49.450,-0.607,0.783,0.162
49.460,-0.605,0.783,0.162
49.470,-0.605,0.787,0.164
49.480,-0.607,0.785,0.162
49.490,-0.607,0.787,0.166
49.499,-0.607,0.789,0.166
49.509,-0.607,0.787,0.166
49.519,-0.605,0.787,0.168
49.529,-0.607,0.787,0.162
49.539,-0.607,0.785,0.160
49.549,-0.607,0.783,0.164
49.559,-0.607,0.785,0.160
49.569,-0.609,0.779,0.160
49.579,-0.615,0.781,0.156
49.589,-0.615,0.775,0.154
49.599,-0.617,0.785,0.158
49.609,-0.623,0.779,0.156
49.619,-0.617,0.779,0.156
49.629,-0.611,0.777,0.160
49.638,-0.607,0.773,0.162
49.648,-0.609,0.775,0.160
49.658,-0.605,0.773,0.158
49.668,-0.604,0.777,0.160
