df_hash,22ZHK4.FCVC8X
device,HZ2X61
project_hash,29R7
project_name,istanbul_aydin_university
person_hash,29R7.KMKG
person_label,V83
date_time_start,2025-11-03_17-01-15.271000_+03
date_time_start_unix,1762174875.271
date_time_end,2025-11-03_17-09-33.051000_+03
length_difference_noticed,no

time,acc_x,acc_y,acc_z
4.604,-0.625,0.785,0.215
4.614,-0.621,0.785,0.217
4.623,-0.623,0.785,0.217
4.633,-0.623,0.781,0.213
4.643,-0.623,0.785,0.215
4.653,-0.623,0.783,0.219
4.663,-0.621,0.785,0.215
4.673,-0.621,0.787,0.211
4.683,-0.623,0.785,0.215
4.693,-0.621,0.781,0.215
4.703,-0.623,0.785,0.219
4.713,-0.621,0.791,0.219
4.723,-0.617,0.789,0.217
4.733,-0.615,0.783,0.215
4.743,-0.617,0.785,0.213
4.753,-0.621,0.787,0.213
4.763,-0.617,0.791,0.215
4.772,-0.617,0.791,0.215
4.782,-0.619,0.789,0.215
4.792,-0.617,0.791,0.215
4.802,-0.617,0.783,0.213
4.812,-0.617,0.785,0.213
4.822,-0.617,0.785,0.215
4.832,-0.615,0.787,0.217
4.842,-0.617,0.785,0.215
4.852,-0.617,0.791,0.215
4.862,-0.617,0.787,0.217
4.872,-0.619,0.787,0.213
4.882,-0.619,0.789,0.215
4.892,-0.619,0.789,0.215
4.902,-0.617,0.787,0.211
4.912,-0.619,0.787,0.217
4.922,-0.619,0.785,0.211
4.931,-0.619,0.783,0.213
4.941,-0.621,0.787,0.211
4.951,-0.621,0.789,0.215
4.961,-0.623,0.789,0.217
4.971,-0.621,0.787,0.213
4.981,-0.623,0.787,0.215
4.991,-0.619,0.785,0.215
5.001,-0.619,0.785,0.213
5.011,-0.625,0.787,0.213
5.021,-0.623,0.785,0.219
5.031,-0.621,0.783,0.211
5.041,-0.623,0.785,0.211
5.051,-0.621,0.785,0.207
5.061,-0.629,0.785,0.209
5.071,-0.625,0.785,0.213
5.081,-0.625,0.793,0.215
5.090,-0.627,0.791,0.211
5.100,-0.631,0.791,0.213
5.110,-0.631,0.787,0.215
5.120,-0.631,0.781,0.215
5.130,-0.631,0.781,0.217
5.140,-0.633,0.779,0.215
5.150,-0.631,0.783,0.217
5.160,-0.631,0.779,0.219
5.170,-0.629,0.777,0.221
5.180,-0.627,0.779,0.225
5.190,-0.627,0.779,0.223
5.200,-0.621,0.779,0.223
5.210,-0.625,0.783,0.223
5.220,-0.623,0.783,0.227
5.230,-0.623,0.781,0.225
5.240,-0.619,0.783,0.227
5.249,-0.619,0.779,0.227
5.259,-0.625,0.781,0.227
5.269,-0.621,0.785,0.227
5.279,-0.617,0.783,0.229
5.289,-0.619,0.779,0.229
5.299,-0.619,0.779,0.229
5.309,-0.621,0.777,0.227
5.319,-0.619,0.779,0.227
5.329,-0.621,0.781,0.223
5.339,-0.619,0.781,0.229
5.349,-0.623,0.781,0.225
5.359,-0.623,0.783,0.225
5.369,-0.623,0.781,0.223
5.379,-0.623,0.781,0.223
5.389,-0.623,0.783,0.223
5.398,-0.623,0.783,0.225
5.408,-0.625,0.785,0.223
5.418,-0.619,0.787,0.223
5.428,-0.621,0.783,0.223
5.438,-0.625,0.787,0.221
5.448,-0.621,0.787,0.225
5.458,-0.623,0.783,0.223
5.468,-0.621,0.779,0.223
5.478,-0.623,0.785,0.225
5.488,-0.625,0.787,0.225
5.498,-0.623,0.783,0.223
5.508,-0.621,0.775,0.217
5.518,-0.623,0.777,0.217
5.528,-0.625,0.779,0.221
5.538,-0.627,0.779,0.219
5.548,-0.629,0.785,0.219
5.557,-0.627,0.787,0.221
5.567,-0.631,0.789,0.221
5.577,-0.627,0.787,0.221
5.587,-0.629,0.783,0.221
5.597,-0.627,0.779,0.219
5.607,-0.629,0.781,0.221
5.617,-0.631,0.779,0.221
5.627,-0.627,0.781,0.221
5.637,-0.629,0.781,0.221
5.647,-0.629,0.781,0.221
5.657,-0.629,0.779,0.221
5.667,-0.629,0.781,0.227
5.677,-0.629,0.777,0.223
5.687,-0.627,0.779,0.221
5.697,-0.629,0.777,0.223
5.707,-0.625,0.781,0.219
5.716,-0.629,0.779,0.219
5.726,-0.629,0.779,0.221
5.736,-0.631,0.779,0.219
5.746,-0.633,0.781,0.225
5.756,-0.629,0.779,0.221
5.766,-0.631,0.779,0.221
5.776,-0.629,0.781,0.221
5.786,-0.631,0.779,0.221
5.796,-0.629,0.781,0.219
5.806,-0.627,0.777,0.221
5.816,-0.627,0.777,0.223
5.826,-0.627,0.781,0.223
5.836,-0.629,0.781,0.221
5.846,-0.629,0.781,0.223
5.856,-0.629,0.781,0.221
5.865,-0.629,0.781,0.219
5.875,-0.629,0.781,0.221
5.885,-0.629,0.783,0.221
5.895,-0.627,0.783,0.223
5.905,-0.627,0.781,0.223
5.915,-0.625,0.777,0.221
5.925,-0.625,0.781,0.223
5.935,-0.627,0.781,0.223
5.945,-0.623,0.779,0.225
5.955,-0.629,0.779,0.223
5.965,-0.625,0.779,0.227
5.975,-0.623,0.777,0.225
5.985,-0.627,0.781,0.225
5.995,-0.627,0.781,0.227
6.005,-0.625,0.779,0.229
6.015,-0.627,0.777,0.225
6.024,-0.631,0.775,0.227
6.034,-0.631,0.779,0.227
6.044,-0.637,0.781,0.229
6.054,-0.633,0.779,0.227
6.064,-0.633,0.777,0.229
6.074,-0.631,0.777,0.223
6.084,-0.633,0.773,0.227
6.094,-0.633,0.773,0.227
6.104,-0.631,0.773,0.223
6.114,-0.631,0.771,0.221
6.124,-0.631,0.775,0.225
6.134,-0.631,0.775,0.225
6.144,-0.633,0.775,0.225
6.154,-0.631,0.775,0.225
6.164,-0.631,0.779,0.223
6.174,-0.631,0.777,0.223
6.183,-0.629,0.779,0.221
6.193,-0.629,0.779,0.221
6.203,-0.631,0.779,0.217
6.213,-0.629,0.781,0.221
6.223,-0.629,0.781,0.221
6.233,-0.629,0.779,0.217
6.243,-0.635,0.781,0.217
6.253,-0.635,0.775,0.217
6.263,-0.635,0.781,0.217
6.273,-0.633,0.783,0.221
6.283,-0.629,0.775,0.217
6.293,-0.629,0.775,0.215
6.303,-0.635,0.773,0.219
6.313,-0.635,0.777,0.217
6.323,-0.633,0.779,0.219
6.333,-0.633,0.781,0.223
6.342,-0.633,0.783,0.221
6.352,-0.633,0.781,0.215
6.362,-0.631,0.775,0.223
6.372,-0.633,0.777,0.219
6.382,-0.629,0.775,0.219
6.392,-0.627,0.779,0.223
6.402,-0.625,0.777,0.221
6.412,-0.625,0.777,0.221
6.422,-0.625,0.781,0.219
6.432,-0.627,0.775,0.219
6.442,-0.629,0.779,0.223
6.452,-0.629,0.779,0.225
6.462,-0.629,0.779,0.219
6.472,-0.629,0.779,0.223
6.482,-0.627,0.781,0.219
6.491,-0.627,0.781,0.223
6.501,-0.629,0.779,0.221
6.511,-0.629,0.779,0.219
6.521,-0.633,0.779,0.219
6.531,-0.631,0.779,0.225
6.541,-0.631,0.779,0.223
6.551,-0.631,0.777,0.223
6.561,-0.631,0.775,0.221
6.571,-0.633,0.775,0.223
6.581,-0.631,0.777,0.221
6.591,-0.629,0.777,0.225
6.601,-0.633,0.779,0.225
6.611,-0.633,0.779,0.223
6.621,-0.629,0.775,0.225
6.631,-0.633,0.777,0.225
6.641,-0.635,0.775,0.227
6.650,-0.633,0.777,0.223
6.660,-0.631,0.777,0.223
6.670,-0.633,0.777,0.221
6.680,-0.633,0.779,0.221
6.690,-0.635,0.781,0.223
6.700,-0.637,0.779,0.225
6.710,-0.633,0.775,0.223
6.720,-0.631,0.781,0.219
6.730,-0.631,0.781,0.221
6.740,-0.629,0.777,0.221
6.750,-0.633,0.779,0.221
6.760,-0.631,0.773,0.223
6.770,-0.629,0.771,0.223
6.780,-0.631,0.773,0.221
6.790,-0.633,0.777,0.227
6.800,-0.635,0.779,0.223
6.809,-0.631,0.777,0.221
6.819,-0.633,0.777,0.225
6.829,-0.641,0.777,0.221
6.839,-0.639,0.779,0.223
6.849,-0.635,0.777,0.225
6.859,-0.633,0.779,0.227
6.869,-0.635,0.775,0.225
6.879,-0.631,0.775,0.227
6.889,-0.631,0.771,0.225
6.899,-0.633,0.771,0.223
6.909,-0.629,0.773,0.223
6.919,-0.631,0.777,0.225
6.929,-0.633,0.775,0.223
6.939,-0.631,0.777,0.223
6.949,-0.633,0.777,0.223
6.959,-0.631,0.777,0.221
6.968,-0.631,0.777,0.223
6.978,-0.631,0.777,0.225
6.988,-0.631,0.779,0.225
6.998,-0.631,0.779,0.223
7.008,-0.633,0.781,0.223
7.018,-0.631,0.777,0.227
7.028,-0.633,0.779,0.219
7.038,-0.633,0.781,0.223
7.048,-0.631,0.775,0.223
7.058,-0.633,0.779,0.225
7.068,-0.627,0.779,0.227
7.078,-0.625,0.775,0.223
7.088,-0.625,0.777,0.223
7.098,-0.625,0.779,0.225
7.108,-0.633,0.781,0.223
7.117,-0.627,0.783,0.229
7.127,-0.629,0.785,0.225
7.137,-0.631,0.783,0.227
7.147,-0.633,0.781,0.225
7.157,-0.633,0.781,0.229
7.167,-0.633,0.777,0.225
7.177,-0.633,0.777,0.223
7.187,-0.631,0.775,0.225
7.197,-0.629,0.775,0.223
7.207,-0.627,0.773,0.223
7.217,-0.629,0.777,0.229
7.227,-0.627,0.779,0.225
7.237,-0.627,0.779,0.225
7.247,-0.629,0.783,0.225
7.257,-0.627,0.783,0.225
7.267,-0.627,0.781,0.223
7.276,-0.625,0.781,0.221
7.286,-0.627,0.781,0.225
7.296,-0.623,0.783,0.225
7.306,-0.623,0.783,0.219
7.316,-0.623,0.783,0.223
7.326,-0.625,0.783,0.225
7.336,-0.625,0.783,0.223
7.346,-0.625,0.787,0.223
7.356,-0.625,0.781,0.223
7.366,-0.625,0.783,0.223
7.376,-0.627,0.781,0.225
7.386,-0.629,0.781,0.223
7.396,-0.627,0.781,0.225
7.406,-0.629,0.779,0.223
7.416,-0.629,0.777,0.223
7.426,-0.629,0.779,0.225
7.435,-0.629,0.781,0.225
7.445,-0.631,0.781,0.229
7.455,-0.631,0.779,0.221
7.465,-0.625,0.779,0.223
7.475,-0.629,0.779,0.227
7.485,-0.625,0.781,0.225
7.495,-0.625,0.777,0.225
7.505,-0.627,0.781,0.223
7.515,-0.627,0.785,0.227
7.525,-0.621,0.775,0.225
7.535,-0.625,0.777,0.223
7.545,-0.623,0.779,0.225
7.555,-0.625,0.785,0.227
7.565,-0.619,0.785,0.221
7.575,-0.627,0.785,0.227
7.584,-0.625,0.785,0.225
7.594,-0.623,0.787,0.223
7.604,-0.625,0.785,0.223
7.614,-0.629,0.783,0.221
7.624,-0.629,0.781,0.223
7.634,-0.627,0.783,0.223
7.644,-0.625,0.783,0.225
7.654,-0.623,0.779,0.225
7.664,-0.623,0.781,0.223
7.674,-0.623,0.777,0.223
7.684,-0.621,0.777,0.225
7.694,-0.623,0.783,0.225
7.704,-0.621,0.783,0.225
7.714,-0.623,0.785,0.227
7.724,-0.625,0.787,0.227
7.734,-0.627,0.783,0.223
7.743,-0.625,0.783,0.223
7.753,-0.625,0.783,0.223
7.763,-0.627,0.781,0.221
7.773,-0.627,0.779,0.221
7.783,-0.623,0.777,0.223
7.793,-0.625,0.785,0.221
7.803,-0.623,0.787,0.223
7.813,-0.623,0.785,0.223
7.823,-0.623,0.781,0.223
7.833,-0.621,0.781,0.223
7.843,-0.623,0.789,0.225
7.853,-0.617,0.789,0.227
7.863,-0.619,0.781,0.225
7.873,-0.619,0.777,0.219
7.883,-0.625,0.783,0.219
7.893,-0.623,0.785,0.221
7.902,-0.621,0.787,0.223
7.912,-0.619,0.789,0.223
7.922,-0.621,0.789,0.221
7.932,-0.621,0.785,0.225
7.942,-0.619,0.787,0.223
7.952,-0.617,0.783,0.219
7.962,-0.617,0.781,0.221
7.972,-0.619,0.785,0.223
7.982,-0.617,0.783,0.223
7.992,-0.619,0.785,0.223
8.002,-0.617,0.785,0.225
8.012,-0.619,0.787,0.221
8.022,-0.615,0.787,0.223
8.032,-0.617,0.781,0.223
8.042,-0.619,0.787,0.219
8.052,-0.617,0.785,0.217
8.061,-0.623,0.785,0.217
8.071,-0.619,0.785,0.221
8.081,-0.621,0.787,0.221
8.091,-0.621,0.785,0.221
8.101,-0.623,0.789,0.219
8.111,-0.623,0.787,0.221
8.121,-0.625,0.783,0.221
8.131,-0.623,0.785,0.221
8.141,-0.621,0.785,0.221
8.151,-0.621,0.783,0.223
8.161,-0.619,0.781,0.223
8.171,-0.621,0.781,0.219
8.181,-0.625,0.783,0.221
8.191,-0.629,0.785,0.225
8.201,-0.627,0.783,0.221
8.210,-0.629,0.785,0.225
8.220,-0.625,0.785,0.223
8.230,-0.627,0.783,0.223
8.240,-0.627,0.777,0.221
8.250,-0.625,0.781,0.223
8.260,-0.625,0.785,0.223
8.270,-0.625,0.783,0.223
8.280,-0.625,0.779,0.219
8.290,-0.627,0.779,0.225
8.300,-0.625,0.783,0.223
8.310,-0.623,0.781,0.227
8.320,-0.625,0.779,0.225
8.330,-0.625,0.785,0.223
8.340,-0.623,0.785,0.229
8.350,-0.625,0.785,0.223
8.360,-0.625,0.783,0.225
8.369,-0.629,0.779,0.225
8.379,-0.631,0.779,0.225
8.389,-0.627,0.781,0.225
8.399,-0.625,0.781,0.225
8.409,-0.629,0.781,0.223
8.419,-0.629,0.779,0.225
8.429,-0.625,0.777,0.225
8.439,-0.629,0.775,0.225
8.449,-0.629,0.777,0.223
8.459,-0.629,0.779,0.225
8.469,-0.631,0.779,0.223
8.479,-0.629,0.777,0.225
8.489,-0.631,0.777,0.223
8.499,-0.627,0.777,0.219
8.509,-0.629,0.779,0.219
8.519,-0.627,0.781,0.223
8.528,-0.631,0.777,0.221
8.538,-0.627,0.783,0.221
8.548,-0.633,0.779,0.219
8.558,-0.631,0.783,0.219
8.568,-0.631,0.781,0.221
8.578,-0.629,0.777,0.219
8.588,-0.633,0.777,0.221
8.598,-0.633,0.781,0.221
8.608,-0.629,0.781,0.223
8.618,-0.627,0.781,0.219
8.628,-0.629,0.779,0.219
8.638,-0.631,0.779,0.221
8.648,-0.631,0.781,0.221
8.658,-0.631,0.787,0.219
8.668,-0.629,0.785,0.223
8.677,-0.631,0.783,0.217
8.687,-0.633,0.783,0.221
8.697,-0.629,0.781,0.217
8.707,-0.629,0.777,0.219
8.717,-0.631,0.779,0.219
8.727,-0.627,0.781,0.215
8.737,-0.627,0.779,0.221
8.747,-0.625,0.781,0.217
8.757,-0.627,0.781,0.221
8.767,-0.627,0.785,0.217
8.777,-0.627,0.783,0.221
8.787,-0.627,0.781,0.219
8.797,-0.627,0.779,0.219
8.807,-0.627,0.777,0.217
8.817,-0.627,0.781,0.219
8.827,-0.629,0.781,0.223
8.836,-0.629,0.779,0.223
8.846,-0.629,0.779,0.225
8.856,-0.631,0.777,0.223
8.866,-0.633,0.777,0.223
8.876,-0.633,0.779,0.221
8.886,-0.631,0.781,0.221
8.896,-0.633,0.777,0.223
8.906,-0.631,0.777,0.219
8.916,-0.635,0.779,0.221
8.926,-0.633,0.777,0.223
8.936,-0.633,0.779,0.221
8.946,-0.631,0.777,0.221
8.956,-0.631,0.777,0.221
8.966,-0.629,0.779,0.225
8.976,-0.629,0.777,0.223
8.986,-0.631,0.777,0.227
8.995,-0.629,0.781,0.223
9.005,-0.631,0.777,0.225
9.015,-0.633,0.777,0.225
9.025,-0.635,0.781,0.223
9.035,-0.635,0.779,0.223
9.045,-0.633,0.779,0.221
9.055,-0.631,0.777,0.219
9.065,-0.635,0.779,0.219
9.075,-0.631,0.781,0.217
9.085,-0.633,0.777,0.219
9.095,-0.631,0.781,0.219
9.105,-0.633,0.779,0.221
9.115,-0.629,0.777,0.221
9.125,-0.629,0.777,0.223
9.135,-0.629,0.781,0.223
9.145,-0.629,0.781,0.223
9.154,-0.629,0.779,0.219
9.164,-0.631,0.781,0.221
9.174,-0.635,0.779,0.223
9.184,-0.635,0.781,0.221
9.194,-0.635,0.777,0.225
9.204,-0.635,0.777,0.223
9.214,-0.635,0.781,0.221
9.224,-0.633,0.777,0.221
9.234,-0.635,0.777,0.219
9.244,-0.635,0.777,0.219
9.254,-0.633,0.775,0.219
9.264,-0.633,0.775,0.221
9.274,-0.631,0.777,0.219
9.284,-0.633,0.779,0.221
9.294,-0.633,0.777,0.225
9.303,-0.631,0.779,0.217
9.313,-0.627,0.779,0.219
9.323,-0.627,0.779,0.221
9.333,-0.631,0.779,0.215
9.343,-0.633,0.781,0.221
9.353,-0.631,0.783,0.217
9.363,-0.629,0.783,0.219
9.373,-0.633,0.783,0.219
9.383,-0.635,0.781,0.219
9.393,-0.631,0.779,0.219
9.403,-0.631,0.777,0.219
9.413,-0.631,0.781,0.219
9.423,-0.625,0.781,0.217
9.433,-0.625,0.777,0.213
9.443,-0.627,0.779,0.215
9.453,-0.633,0.781,0.221
9.462,-0.633,0.783,0.221
9.472,-0.631,0.783,0.219
9.482,-0.631,0.785,0.221
9.492,-0.631,0.781,0.221
9.502,-0.631,0.783,0.215
9.512,-0.629,0.777,0.219
9.522,-0.629,0.779,0.215
9.532,-0.631,0.777,0.221
9.542,-0.627,0.775,0.221
9.552,-0.629,0.773,0.223
9.562,-0.631,0.775,0.221
9.572,-0.631,0.777,0.221
9.582,-0.629,0.779,0.223
9.592,-0.631,0.781,0.221
9.602,-0.633,0.781,0.223
9.612,-0.633,0.783,0.217
9.621,-0.631,0.775,0.217
9.631,-0.631,0.777,0.223
9.641,-0.633,0.781,0.221
9.651,-0.631,0.777,0.221
9.661,-0.633,0.779,0.217
9.671,-0.633,0.779,0.219
9.681,-0.633,0.779,0.221
9.691,-0.633,0.779,0.219
9.701,-0.633,0.777,0.221
9.711,-0.633,0.777,0.219
9.721,-0.635,0.779,0.219
9.731,-0.635,0.777,0.221
9.741,-0.633,0.779,0.219
9.751,-0.635,0.777,0.221
9.761,-0.635,0.779,0.219
9.770,-0.637,0.779,0.219
9.780,-0.635,0.775,0.221
9.790,-0.637,0.777,0.221
9.800,-0.635,0.781,0.219
9.810,-0.635,0.777,0.221
9.820,-0.635,0.781,0.219
9.830,-0.635,0.781,0.219
9.840,-0.631,0.779,0.219
9.850,-0.633,0.779,0.221
9.860,-0.631,0.781,0.221
9.870,-0.631,0.779,0.223
9.880,-0.629,0.781,0.221
9.890,-0.631,0.779,0.221
9.900,-0.631,0.779,0.221
9.910,-0.629,0.779,0.221
9.920,-0.627,0.777,0.221
9.929,-0.629,0.781,0.215
9.939,-0.627,0.779,0.217
9.949,-0.623,0.777,0.221
9.959,-0.627,0.777,0.219
9.969,-0.629,0.779,0.219
9.979,-0.627,0.779,0.221
9.989,-0.625,0.785,0.221
9.999,-0.629,0.785,0.219
10.009,-0.625,0.785,0.215
10.019,-0.627,0.783,0.217
10.029,-0.629,0.785,0.217
10.039,-0.635,0.785,0.219
10.049,-0.631,0.789,0.217
10.059,-0.629,0.789,0.219
10.069,-0.625,0.781,0.221
10.079,-0.625,0.779,0.223
10.088,-0.627,0.779,0.219
10.098,-0.627,0.777,0.219
10.108,-0.629,0.777,0.217
10.118,-0.627,0.779,0.219
10.128,-0.631,0.781,0.219
10.138,-0.627,0.781,0.221
10.148,-0.629,0.781,0.217
10.158,-0.629,0.779,0.221
10.168,-0.625,0.781,0.219
10.178,-0.629,0.783,0.217
10.188,-0.627,0.781,0.219
10.198,-0.629,0.781,0.217
10.208,-0.629,0.783,0.219
10.218,-0.629,0.781,0.219
10.228,-0.627,0.785,0.221
10.238,-0.629,0.781,0.219
10.247,-0.631,0.783,0.221
10.257,-0.627,0.777,0.223
10.267,-0.627,0.785,0.221
10.277,-0.621,0.783,0.223
10.287,-0.623,0.775,0.219
10.297,-0.621,0.779,0.219
10.307,-0.625,0.781,0.219
10.317,-0.629,0.787,0.223
10.327,-0.625,0.789,0.217
10.337,-0.627,0.791,0.221
10.347,-0.625,0.785,0.219
10.357,-0.627,0.785,0.219
10.367,-0.625,0.781,0.219
10.377,-0.625,0.781,0.219
10.387,-0.623,0.779,0.217
10.396,-0.623,0.781,0.217
10.406,-0.625,0.781,0.219
10.416,-0.625,0.783,0.215
10.426,-0.625,0.787,0.217
10.436,-0.623,0.785,0.215
10.446,-0.625,0.787,0.219
10.456,-0.623,0.785,0.215
10.466,-0.623,0.785,0.217
10.476,-0.623,0.787,0.213
10.486,-0.621,0.785,0.213
10.496,-0.625,0.785,0.215
10.506,-0.623,0.785,0.215
10.516,-0.627,0.785,0.213
10.526,-0.625,0.783,0.215
10.536,-0.623,0.783,0.219
10.546,-0.623,0.787,0.217
10.555,-0.621,0.787,0.217
10.565,-0.625,0.785,0.219
10.575,-0.625,0.787,0.221
10.585,-0.623,0.783,0.219
10.595,-0.625,0.783,0.219
10.605,-0.625,0.779,0.219
10.615,-0.623,0.783,0.217
10.625,-0.625,0.781,0.219
10.635,-0.627,0.785,0.221
10.645,-0.627,0.787,0.219
10.655,-0.627,0.781,0.221
10.665,-0.627,0.783,0.219
10.675,-0.625,0.781,0.219
10.685,-0.623,0.779,0.219
10.695,-0.627,0.781,0.217
10.705,-0.625,0.785,0.219
10.714,-0.621,0.783,0.217
10.724,-0.619,0.781,0.219
10.734,-0.623,0.779,0.217
10.744,-0.625,0.789,0.219
10.754,-0.623,0.789,0.217
10.764,-0.621,0.785,0.215
10.774,-0.623,0.785,0.219
10.784,-0.623,0.789,0.217
10.794,-0.621,0.791,0.217
10.804,-0.621,0.789,0.215
10.814,-0.625,0.787,0.217
10.824,-0.623,0.791,0.221
10.834,-0.621,0.789,0.219
10.844,-0.621,0.785,0.223
10.854,-0.621,0.781,0.221
10.863,-0.619,0.783,0.221
10.873,-0.623,0.781,0.217
10.883,-0.623,0.783,0.217
10.893,-0.625,0.783,0.223
10.903,-0.627,0.785,0.219
10.913,-0.629,0.781,0.219
10.923,-0.627,0.783,0.219
10.933,-0.629,0.781,0.221
10.943,-0.627,0.783,0.219
10.953,-0.627,0.783,0.221
10.963,-0.625,0.781,0.221
10.973,-0.623,0.783,0.219
10.983,-0.627,0.785,0.217
10.993,-0.625,0.781,0.221
11.003,-0.629,0.781,0.217
11.013,-0.627,0.785,0.217
11.022,-0.627,0.779,0.217
11.032,-0.625,0.785,0.219
11.042,-0.629,0.787,0.221
11.052,-0.627,0.787,0.217
11.062,-0.623,0.783,0.217
11.072,-0.627,0.781,0.217
11.082,-0.629,0.781,0.219
11.092,-0.627,0.785,0.217
11.102,-0.627,0.785,0.217
11.112,-0.627,0.791,0.219
11.122,-0.629,0.785,0.221
11.132,-0.627,0.787,0.219
11.142,-0.627,0.783,0.219
11.152,-0.625,0.783,0.215
11.162,-0.627,0.779,0.215
11.172,-0.625,0.781,0.217
11.181,-0.627,0.781,0.219
11.191,-0.627,0.783,0.219
11.201,-0.623,0.787,0.215
11.211,-0.625,0.785,0.217
11.221,-0.625,0.783,0.219
11.231,-0.623,0.785,0.217
11.241,-0.625,0.781,0.215
11.251,-0.625,0.781,0.219
11.261,-0.627,0.783,0.215
11.271,-0.623,0.785,0.217
11.281,-0.627,0.781,0.219
11.291,-0.629,0.783,0.213
11.301,-0.629,0.783,0.219
11.311,-0.625,0.781,0.215
11.321,-0.625,0.785,0.219
11.331,-0.629,0.783,0.221
11.340,-0.631,0.783,0.219
11.350,-0.629,0.783,0.221
11.360,-0.629,0.779,0.219
11.370,-0.629,0.781,0.221
11.380,-0.627,0.781,0.217
11.390,-0.627,0.779,0.221
11.400,-0.627,0.783,0.219
11.410,-0.629,0.783,0.219
11.420,-0.629,0.779,0.221
11.430,-0.629,0.781,0.221
11.440,-0.631,0.781,0.221
11.450,-0.631,0.781,0.221
11.460,-0.633,0.781,0.223
11.470,-0.631,0.783,0.221
11.480,-0.631,0.779,0.221
11.489,-0.629,0.777,0.223
11.499,-0.629,0.783,0.219
11.509,-0.629,0.781,0.221
11.519,-0.625,0.779,0.221
11.529,-0.627,0.781,0.221
11.539,-0.627,0.779,0.219
11.549,-0.625,0.777,0.221
11.559,-0.625,0.779,0.223
11.569,-0.631,0.785,0.221
11.579,-0.629,0.783,0.219
11.589,-0.627,0.781,0.219
11.599,-0.633,0.779,0.221
11.609,-0.635,0.779,0.221
11.619,-0.635,0.781,0.223
11.629,-0.631,0.783,0.223
11.639,-0.631,0.779,0.219
11.648,-0.631,0.779,0.223
11.658,-0.629,0.777,0.225
11.668,-0.631,0.779,0.223
11.678,-0.631,0.775,0.221
11.688,-0.631,0.777,0.221
11.698,-0.633,0.779,0.219
11.708,-0.631,0.777,0.223
11.718,-0.631,0.777,0.223
11.728,-0.631,0.779,0.223
11.738,-0.633,0.779,0.223
11.748,-0.631,0.777,0.221
11.758,-0.631,0.779,0.221
11.768,-0.629,0.779,0.221
11.778,-0.633,0.779,0.217
11.788,-0.631,0.779,0.217
11.798,-0.633,0.781,0.217
11.807,-0.635,0.781,0.219
11.817,-0.631,0.781,0.219
11.827,-0.633,0.775,0.219
11.837,-0.633,0.779,0.219
11.847,-0.633,0.783,0.219
11.857,-0.627,0.777,0.219
11.867,-0.623,0.777,0.213
11.877,-0.625,0.775,0.217
11.887,-0.631,0.779,0.219
11.897,-0.633,0.785,0.221
11.907,-0.627,0.785,0.217
11.917,-0.631,0.783,0.221
11.927,-0.629,0.781,0.217
11.937,-0.635,0.781,0.217
11.947,-0.633,0.779,0.221
11.956,-0.631,0.781,0.219
11.966,-0.631,0.775,0.219
11.976,-0.629,0.775,0.219
11.986,-0.627,0.777,0.219
11.996,-0.629,0.777,0.219
12.006,-0.629,0.777,0.217
12.016,-0.631,0.783,0.217
12.026,-0.631,0.777,0.217
12.036,-0.629,0.781,0.215
12.046,-0.633,0.779,0.219
12.056,-0.629,0.781,0.217
12.066,-0.631,0.783,0.215
12.076,-0.633,0.783,0.217
12.086,-0.633,0.781,0.217
12.096,-0.633,0.783,0.219
12.106,-0.633,0.781,0.219
12.115,-0.631,0.781,0.223
12.125,-0.631,0.777,0.219
12.135,-0.633,0.779,0.219
12.145,-0.633,0.777,0.221
12.155,-0.633,0.775,0.221
12.165,-0.633,0.779,0.219
12.175,-0.635,0.777,0.217
12.185,-0.635,0.775,0.219
12.195,-0.637,0.777,0.219
12.205,-0.633,0.777,0.221
12.215,-0.633,0.775,0.221
12.225,-0.639,0.775,0.221
12.235,-0.635,0.779,0.217
12.245,-0.635,0.777,0.223
12.255,-0.637,0.777,0.219
12.265,-0.633,0.777,0.221
12.274,-0.637,0.779,0.221
12.284,-0.635,0.777,0.221
12.294,-0.631,0.779,0.219
12.304,-0.633,0.775,0.221
12.314,-0.633,0.777,0.221
12.324,-0.635,0.777,0.223
12.334,-0.637,0.775,0.221
12.344,-0.633,0.775,0.223
12.354,-0.633,0.775,0.219
12.364,-0.633,0.779,0.219
12.374,-0.633,0.775,0.223
12.384,-0.633,0.777,0.223
12.394,-0.633,0.777,0.221
12.404,-0.631,0.779,0.221
12.414,-0.633,0.775,0.221
12.424,-0.635,0.781,0.219
12.433,-0.637,0.783,0.223
12.443,-0.633,0.779,0.217
12.453,-0.635,0.777,0.219
12.463,-0.635,0.775,0.221
12.473,-0.637,0.779,0.221
12.483,-0.637,0.783,0.221
12.493,-0.633,0.779,0.219
12.503,-0.633,0.777,0.217
12.513,-0.635,0.775,0.219
12.523,-0.635,0.775,0.219
12.533,-0.637,0.773,0.221
12.543,-0.635,0.777,0.221
12.553,-0.635,0.777,0.217
12.563,-0.637,0.781,0.219
12.573,-0.635,0.781,0.221
12.582,-0.633,0.781,0.217
12.592,-0.633,0.775,0.221
12.602,-0.631,0.775,0.219
12.612,-0.635,0.777,0.219
12.622,-0.633,0.773,0.217
12.632,-0.633,0.777,0.217
12.642,-0.635,0.777,0.219
12.652,-0.635,0.779,0.219
12.662,-0.635,0.779,0.221
12.672,-0.633,0.781,0.221
12.682,-0.639,0.777,0.217
12.692,-0.633,0.775,0.223
12.702,-0.635,0.781,0.221
12.712,-0.629,0.777,0.217
12.722,-0.627,0.771,0.217
12.732,-0.631,0.771,0.219
12.741,-0.635,0.771,0.217
12.751,-0.637,0.777,0.217
12.761,-0.631,0.781,0.221
12.771,-0.633,0.781,0.223
12.781,-0.637,0.781,0.219
12.791,-0.637,0.779,0.221
12.801,-0.637,0.775,0.219
12.811,-0.635,0.775,0.219
12.821,-0.635,0.775,0.223
12.831,-0.635,0.777,0.221
12.841,-0.635,0.773,0.219
12.851,-0.635,0.777,0.219
12.861,-0.637,0.775,0.221
12.871,-0.639,0.775,0.221
12.881,-0.637,0.773,0.219
12.891,-0.637,0.775,0.217
12.900,-0.637,0.777,0.219
12.910,-0.641,0.773,0.217
12.920,-0.639,0.775,0.215
12.930,-0.639,0.775,0.217
12.940,-0.639,0.777,0.219
12.950,-0.637,0.775,0.215
12.960,-0.639,0.775,0.217
12.970,-0.639,0.779,0.213
12.980,-0.639,0.779,0.213
12.990,-0.637,0.775,0.219
13.000,-0.637,0.779,0.217
13.010,-0.637,0.777,0.217
13.020,-0.639,0.775,0.221
13.030,-0.637,0.775,0.219
13.040,-0.635,0.771,0.219
13.050,-0.637,0.775,0.219
13.059,-0.637,0.775,0.221
13.069,-0.641,0.775,0.215
13.079,-0.639,0.771,0.221
13.089,-0.639,0.775,0.219
13.099,-0.641,0.777,0.221
13.109,-0.641,0.775,0.221
13.119,-0.637,0.775,0.219
13.129,-0.637,0.775,0.217
13.139,-0.635,0.773,0.221
13.149,-0.637,0.775,0.223
13.159,-0.637,0.775,0.223
13.169,-0.635,0.773,0.221
13.179,-0.635,0.777,0.221
13.189,-0.635,0.777,0.221
13.199,-0.635,0.777,0.221
13.208,-0.635,0.777,0.221
13.218,-0.631,0.775,0.221
13.228,-0.633,0.775,0.221
13.238,-0.633,0.779,0.219
13.248,-0.633,0.773,0.221
13.258,-0.631,0.775,0.217
13.268,-0.633,0.773,0.221
13.278,-0.633,0.775,0.219
13.288,-0.629,0.779,0.217
13.298,-0.633,0.781,0.221
13.308,-0.635,0.781,0.221
13.318,-0.633,0.781,0.217
13.328,-0.635,0.777,0.217
13.338,-0.639,0.779,0.219
13.348,-0.641,0.781,0.223
13.358,-0.635,0.781,0.221
13.367,-0.633,0.779,0.223
13.377,-0.633,0.775,0.221
13.387,-0.633,0.775,0.225
13.397,-0.635,0.773,0.221
13.407,-0.635,0.770,0.223
13.417,-0.633,0.773,0.223
13.427,-0.631,0.775,0.219
13.437,-0.633,0.775,0.223
13.447,-0.637,0.775,0.221
13.457,-0.637,0.775,0.221
13.467,-0.635,0.777,0.217
13.477,-0.637,0.777,0.217
13.487,-0.635,0.777,0.217
13.497,-0.637,0.777,0.223
13.507,-0.635,0.779,0.217
13.517,-0.635,0.777,0.217
13.526,-0.637,0.777,0.215
13.536,-0.635,0.779,0.219
13.546,-0.637,0.781,0.215
13.556,-0.637,0.773,0.217
13.566,-0.637,0.777,0.219
13.576,-0.633,0.777,0.217
13.586,-0.629,0.781,0.219
13.596,-0.631,0.773,0.211
13.606,-0.633,0.773,0.219
13.616,-0.637,0.779,0.215
13.626,-0.635,0.785,0.217
13.636,-0.633,0.785,0.215
13.646,-0.633,0.783,0.219
13.656,-0.637,0.779,0.217
13.666,-0.635,0.777,0.219
13.675,-0.633,0.779,0.217
13.685,-0.629,0.779,0.217
13.695,-0.633,0.777,0.217
13.705,-0.629,0.775,0.219
13.715,-0.629,0.777,0.219
13.725,-0.631,0.777,0.215
13.735,-0.631,0.779,0.217
13.745,-0.631,0.783,0.217
13.755,-0.631,0.783,0.219
13.765,-0.631,0.777,0.221
13.775,-0.631,0.779,0.217
13.785,-0.631,0.777,0.217
13.795,-0.633,0.779,0.219
13.805,-0.633,0.781,0.217
13.815,-0.629,0.779,0.217
13.825,-0.633,0.779,0.219
13.834,-0.633,0.777,0.215
13.844,-0.635,0.783,0.219
13.854,-0.633,0.783,0.219
13.864,-0.635,0.781,0.217
13.874,-0.633,0.777,0.217
13.884,-0.633,0.779,0.219
13.894,-0.635,0.777,0.221
13.904,-0.633,0.779,0.225
13.914,-0.633,0.777,0.221
13.924,-0.637,0.779,0.223
13.934,-0.635,0.779,0.219
13.944,-0.635,0.775,0.223
13.954,-0.637,0.779,0.223
13.964,-0.637,0.779,0.221
13.974,-0.635,0.773,0.223
13.984,-0.635,0.773,0.223
13.993,-0.635,0.777,0.225
14.003,-0.633,0.781,0.223
14.013,-0.631,0.775,0.223
14.023,-0.629,0.773,0.223
14.033,-0.631,0.779,0.223
14.043,-0.629,0.779,0.223
14.053,-0.625,0.777,0.223
14.063,-0.627,0.779,0.223
14.073,-0.629,0.781,0.225
14.083,-0.629,0.787,0.225
14.093,-0.629,0.785,0.219
14.103,-0.629,0.779,0.223
14.113,-0.633,0.779,0.225
14.123,-0.629,0.781,0.223
14.133,-0.631,0.777,0.223
14.143,-0.629,0.777,0.223
14.152,-0.629,0.779,0.223
14.162,-0.631,0.777,0.225
14.172,-0.633,0.773,0.221
14.182,-0.631,0.773,0.221
14.192,-0.631,0.779,0.221
14.202,-0.633,0.777,0.221
14.212,-0.635,0.779,0.221
14.222,-0.639,0.779,0.223
14.232,-0.635,0.777,0.221
14.242,-0.635,0.775,0.217
14.252,-0.639,0.777,0.219
14.262,-0.637,0.777,0.217
14.272,-0.635,0.779,0.219
14.282,-0.635,0.777,0.217
14.292,-0.633,0.779,0.219
14.301,-0.637,0.777,0.219
14.311,-0.635,0.777,0.217
14.321,-0.635,0.775,0.219
14.331,-0.637,0.779,0.219
14.341,-0.635,0.783,0.223
14.351,-0.633,0.781,0.215
14.361,-0.633,0.773,0.211
14.371,-0.635,0.773,0.213
14.381,-0.639,0.775,0.217
14.391,-0.633,0.781,0.213
14.401,-0.635,0.783,0.219
14.411,-0.637,0.781,0.215
14.421,-0.637,0.783,0.215
14.431,-0.635,0.781,0.217
14.441,-0.635,0.777,0.217
14.451,-0.633,0.777,0.217
14.460,-0.633,0.777,0.217
14.470,-0.633,0.775,0.215
14.480,-0.635,0.779,0.215
14.490,-0.635,0.775,0.219
14.500,-0.635,0.781,0.219
14.510,-0.631,0.779,0.219
14.520,-0.635,0.779,0.217
14.530,-0.633,0.777,0.217
14.540,-0.633,0.775,0.219
14.550,-0.633,0.775,0.215
14.560,-0.635,0.779,0.219
14.570,-0.635,0.777,0.215
14.580,-0.635,0.777,0.221
14.590,-0.633,0.777,0.223
14.600,-0.637,0.779,0.221
14.610,-0.635,0.779,0.219
14.619,-0.637,0.775,0.221
14.629,-0.635,0.777,0.219
14.639,-0.637,0.775,0.223
14.649,-0.637,0.773,0.225
14.659,-0.637,0.777,0.221
14.669,-0.637,0.773,0.221
14.679,-0.639,0.773,0.225
14.689,-0.637,0.773,0.223
14.699,-0.637,0.773,0.223
14.709,-0.643,0.775,0.221
14.719,-0.643,0.773,0.221
14.729,-0.639,0.773,0.223
14.739,-0.637,0.773,0.219
14.749,-0.637,0.773,0.223
14.759,-0.639,0.779,0.223
14.768,-0.637,0.777,0.223
14.778,-0.637,0.771,0.221
14.788,-0.641,0.777,0.223
14.798,-0.639,0.773,0.223
14.808,-0.637,0.773,0.221
14.818,-0.639,0.773,0.221
14.828,-0.639,0.779,0.219
14.838,-0.639,0.777,0.221
14.848,-0.639,0.779,0.223
14.858,-0.639,0.779,0.221
14.868,-0.641,0.777,0.219
14.878,-0.639,0.777,0.219
14.888,-0.637,0.779,0.221
14.898,-0.635,0.779,0.219
14.908,-0.631,0.775,0.217
14.918,-0.631,0.773,0.219
14.927,-0.627,0.773,0.221
14.937,-0.631,0.779,0.221
14.947,-0.631,0.777,0.221
14.957,-0.633,0.779,0.219
14.967,-0.635,0.779,0.221
14.977,-0.635,0.779,0.217
14.987,-0.639,0.779,0.217
14.997,-0.641,0.779,0.213
15.007,-0.639,0.775,0.219
15.017,-0.637,0.775,0.215
15.027,-0.639,0.779,0.219
15.037,-0.637,0.777,0.217
15.047,-0.637,0.779,0.215
15.057,-0.641,0.783,0.217
15.067,-0.637,0.781,0.217
15.077,-0.635,0.781,0.215
15.086,-0.633,0.775,0.215
15.096,-0.635,0.777,0.219
15.106,-0.627,0.783,0.219
15.116,-0.621,0.783,0.217
15.126,-0.621,0.779,0.215
15.136,-0.621,0.779,0.215
15.146,-0.623,0.783,0.219
15.156,-0.627,0.787,0.213
15.166,-0.627,0.785,0.215
15.176,-0.629,0.785,0.215
15.186,-0.631,0.787,0.217
15.196,-0.631,0.785,0.215
15.206,-0.633,0.785,0.215
15.216,-0.631,0.779,0.215
15.226,-0.631,0.777,0.217
15.236,-0.631,0.781,0.215
15.245,-0.633,0.777,0.215
15.255,-0.631,0.777,0.213
15.265,-0.631,0.783,0.213
15.275,-0.633,0.781,0.215
15.285,-0.631,0.781,0.215
15.295,-0.631,0.783,0.213
15.305,-0.633,0.783,0.215
15.315,-0.633,0.781,0.213
15.325,-0.633,0.783,0.215
15.335,-0.631,0.777,0.211
15.345,-0.635,0.783,0.215
15.355,-0.633,0.781,0.213
15.365,-0.631,0.783,0.217
15.375,-0.631,0.779,0.219
15.385,-0.629,0.783,0.215
15.394,-0.629,0.779,0.217
15.404,-0.631,0.781,0.211
15.414,-0.631,0.777,0.217
15.424,-0.635,0.777,0.215
15.434,-0.633,0.779,0.215
15.444,-0.635,0.781,0.217
15.454,-0.637,0.777,0.215
15.464,-0.635,0.779,0.215
15.474,-0.639,0.777,0.215
15.484,-0.637,0.777,0.215
15.494,-0.639,0.777,0.215
15.504,-0.639,0.775,0.215
15.514,-0.635,0.779,0.213
15.524,-0.633,0.777,0.211
15.534,-0.637,0.777,0.213
15.544,-0.637,0.779,0.213
15.553,-0.631,0.781,0.215
15.563,-0.629,0.775,0.217
15.573,-0.629,0.783,0.215
15.583,-0.631,0.785,0.215
15.593,-0.631,0.783,0.215
15.603,-0.625,0.781,0.209
15.613,-0.627,0.777,0.211
15.623,-0.631,0.783,0.215
15.633,-0.633,0.783,0.213
15.643,-0.631,0.785,0.213
15.653,-0.633,0.785,0.211
15.663,-0.631,0.783,0.215
15.673,-0.631,0.779,0.215
15.683,-0.635,0.777,0.215
15.693,-0.633,0.777,0.215
15.703,-0.633,0.777,0.215
15.712,-0.635,0.779,0.215
15.722,-0.633,0.777,0.215
15.732,-0.633,0.779,0.215
15.742,-0.635,0.775,0.213
15.752,-0.637,0.775,0.217
15.762,-0.637,0.777,0.215
15.772,-0.637,0.777,0.213
15.782,-0.635,0.779,0.211
15.792,-0.633,0.779,0.217
15.802,-0.635,0.781,0.215
15.812,-0.635,0.777,0.213
15.822,-0.637,0.777,0.213
15.832,-0.635,0.777,0.217
15.842,-0.635,0.773,0.215
15.852,-0.635,0.779,0.213
15.861,-0.631,0.781,0.217
15.871,-0.627,0.775,0.215
15.881,-0.631,0.775,0.215
15.891,-0.633,0.775,0.221
15.901,-0.635,0.777,0.217
15.911,-0.635,0.783,0.215
15.921,-0.635,0.783,0.215
15.931,-0.637,0.785,0.215
15.941,-0.637,0.779,0.211
15.951,-0.637,0.773,0.211
15.961,-0.639,0.779,0.211
15.971,-0.635,0.779,0.213
15.981,-0.633,0.775,0.211
15.991,-0.633,0.779,0.209
16.001,-0.633,0.779,0.211
16.011,-0.635,0.781,0.209
16.020,-0.637,0.781,0.213
16.030,-0.635,0.781,0.209
16.040,-0.635,0.781,0.213
16.050,-0.635,0.781,0.211
16.060,-0.635,0.783,0.209
16.070,-0.635,0.779,0.211
16.080,-0.633,0.779,0.213
16.090,-0.635,0.781,0.213
16.100,-0.635,0.777,0.211
16.110,-0.635,0.781,0.207
16.120,-0.639,0.779,0.213
16.130,-0.639,0.777,0.215
16.140,-0.635,0.781,0.213
16.150,-0.635,0.779,0.213
16.160,-0.633,0.779,0.211
16.170,-0.635,0.777,0.213
16.179,-0.637,0.777,0.209
16.189,-0.637,0.777,0.213
16.199,-0.635,0.775,0.213
16.209,-0.637,0.775,0.215
16.219,-0.637,0.773,0.215
16.229,-0.639,0.777,0.217
16.239,-0.635,0.777,0.213
16.249,-0.639,0.779,0.217
16.259,-0.637,0.777,0.213
16.269,-0.637,0.775,0.213
16.279,-0.637,0.775,0.217
16.289,-0.633,0.777,0.217
16.299,-0.637,0.779,0.217
16.309,-0.633,0.771,0.215
16.319,-0.637,0.775,0.215
16.329,-0.637,0.775,0.217
16.338,-0.633,0.779,0.217
16.348,-0.635,0.781,0.217
16.358,-0.635,0.785,0.219
16.368,-0.633,0.785,0.217
16.378,-0.631,0.785,0.213
16.388,-0.629,0.783,0.213
16.398,-0.633,0.785,0.211
16.408,-0.635,0.783,0.213
16.418,-0.635,0.785,0.213
16.428,-0.631,0.783,0.215
16.438,-0.633,0.785,0.219
16.448,-0.637,0.779,0.211
16.458,-0.635,0.781,0.215
16.468,-0.631,0.779,0.209
16.478,-0.625,0.779,0.215
16.487,-0.623,0.783,0.213
16.497,-0.625,0.783,0.215
16.507,-0.623,0.785,0.215
16.517,-0.619,0.789,0.215
16.527,-0.617,0.787,0.211
16.537,-0.613,0.787,0.215
16.547,-0.615,0.785,0.215
16.557,-0.615,0.791,0.213
16.567,-0.613,0.789,0.211
16.577,-0.619,0.791,0.211
16.587,-0.617,0.791,0.213
16.597,-0.619,0.793,0.215
16.607,-0.619,0.793,0.213
16.617,-0.619,0.787,0.211
16.627,-0.619,0.783,0.211
16.637,-0.617,0.789,0.215
16.646,-0.615,0.789,0.213
16.656,-0.613,0.787,0.211
16.666,-0.617,0.789,0.211
16.676,-0.619,0.793,0.213
16.686,-0.617,0.797,0.215
16.696,-0.619,0.797,0.215
16.706,-0.617,0.795,0.215
16.716,-0.619,0.793,0.217
16.726,-0.615,0.787,0.217
16.736,-0.617,0.787,0.213
16.746,-0.617,0.785,0.213
16.756,-0.613,0.785,0.215
16.766,-0.617,0.783,0.217
16.776,-0.619,0.785,0.217
16.786,-0.621,0.787,0.213
16.796,-0.621,0.787,0.211
16.805,-0.625,0.787,0.211
16.815,-0.625,0.785,0.209
16.825,-0.623,0.785,0.213
16.835,-0.625,0.785,0.209
16.845,-0.629,0.785,0.211
16.855,-0.623,0.785,0.209
16.865,-0.629,0.787,0.205
16.875,-0.625,0.785,0.209
16.885,-0.627,0.791,0.209
16.895,-0.627,0.789,0.209
16.905,-0.627,0.789,0.207
16.915,-0.629,0.789,0.207
16.925,-0.627,0.793,0.205
16.935,-0.631,0.789,0.205
16.945,-0.629,0.791,0.205
16.954,-0.631,0.791,0.205
16.964,-0.631,0.785,0.207
16.974,-0.631,0.787,0.205
16.984,-0.631,0.787,0.209
16.994,-0.629,0.787,0.207
17.004,-0.631,0.785,0.207
17.014,-0.629,0.789,0.209
17.024,-0.627,0.789,0.207
17.034,-0.625,0.789,0.207
17.044,-0.623,0.787,0.209
17.054,-0.625,0.785,0.211
17.064,-0.621,0.783,0.209
17.074,-0.621,0.783,0.211
17.084,-0.617,0.779,0.207
17.094,-0.619,0.779,0.207
17.104,-0.621,0.785,0.213
17.113,-0.617,0.791,0.209
17.123,-0.617,0.789,0.207
17.133,-0.619,0.789,0.207
17.143,-0.623,0.789,0.209
17.153,-0.623,0.791,0.207
17.163,-0.621,0.789,0.207
17.173,-0.623,0.787,0.207
17.183,-0.623,0.789,0.209
17.193,-0.625,0.789,0.207
17.203,-0.621,0.791,0.207
17.213,-0.621,0.789,0.209
17.223,-0.619,0.787,0.211
17.233,-0.621,0.783,0.213
17.243,-0.621,0.785,0.209
17.253,-0.621,0.785,0.211
17.263,-0.623,0.787,0.209
17.272,-0.623,0.789,0.209
17.282,-0.623,0.789,0.211
17.292,-0.623,0.789,0.213
17.302,-0.623,0.793,0.209
17.312,-0.623,0.791,0.213
17.322,-0.623,0.789,0.211
17.332,-0.623,0.785,0.211
17.342,-0.627,0.789,0.207
17.352,-0.625,0.785,0.209
17.362,-0.621,0.789,0.213
17.372,-0.627,0.789,0.209
17.382,-0.623,0.789,0.209
17.392,-0.619,0.783,0.207
17.402,-0.623,0.787,0.215
17.412,-0.625,0.791,0.213
17.422,-0.621,0.787,0.213
17.431,-0.625,0.785,0.205
17.441,-0.623,0.781,0.209
17.451,-0.627,0.789,0.209
17.461,-0.625,0.787,0.209
17.471,-0.625,0.789,0.209
17.481,-0.625,0.787,0.211
17.491,-0.629,0.787,0.211
17.501,-0.627,0.789,0.211
17.511,-0.625,0.783,0.213
17.521,-0.625,0.787,0.209
17.531,-0.621,0.781,0.207
17.541,-0.623,0.785,0.209
17.551,-0.623,0.787,0.209
17.561,-0.625,0.789,0.209
17.571,-0.627,0.791,0.209
17.580,-0.627,0.789,0.209
17.590,-0.625,0.789,0.211
17.600,-0.625,0.791,0.209
17.610,-0.625,0.785,0.209
17.620,-0.625,0.787,0.209
17.630,-0.625,0.787,0.209
17.640,-0.627,0.785,0.211
17.650,-0.629,0.785,0.211
17.660,-0.627,0.783,0.209
17.670,-0.627,0.791,0.211
17.680,-0.629,0.785,0.209
17.690,-0.633,0.789,0.209
17.700,-0.633,0.787,0.213
17.710,-0.633,0.789,0.209
17.720,-0.629,0.785,0.211
17.730,-0.637,0.783,0.213
17.739,-0.631,0.785,0.211
17.749,-0.633,0.787,0.211
17.759,-0.631,0.781,0.211
17.769,-0.629,0.783,0.215
17.779,-0.631,0.781,0.211
17.789,-0.629,0.783,0.213
17.799,-0.629,0.785,0.213
17.809,-0.623,0.785,0.213
17.819,-0.629,0.785,0.213
17.829,-0.627,0.785,0.213
17.839,-0.625,0.785,0.213
17.849,-0.625,0.785,0.213
17.859,-0.619,0.787,0.213
17.869,-0.621,0.791,0.209
17.879,-0.621,0.791,0.211
17.889,-0.617,0.789,0.209
17.898,-0.621,0.791,0.209
17.908,-0.621,0.789,0.211
17.918,-0.617,0.785,0.211
17.928,-0.617,0.785,0.211
17.938,-0.617,0.789,0.209
17.948,-0.617,0.789,0.215
17.958,-0.617,0.793,0.211
17.968,-0.615,0.793,0.213
17.978,-0.617,0.789,0.213
17.988,-0.623,0.787,0.209
17.998,-0.619,0.793,0.213
18.008,-0.619,0.795,0.215
18.018,-0.617,0.793,0.217
18.028,-0.619,0.789,0.211
18.038,-0.621,0.785,0.215
18.048,-0.619,0.787,0.215
18.057,-0.619,0.787,0.213
18.067,-0.621,0.787,0.211
18.077,-0.619,0.787,0.213
18.087,-0.621,0.789,0.211
18.097,-0.619,0.789,0.211
18.107,-0.617,0.791,0.213
18.117,-0.621,0.789,0.209
18.127,-0.619,0.787,0.207
18.137,-0.621,0.787,0.213
18.147,-0.619,0.789,0.209
18.157,-0.621,0.789,0.211
18.167,-0.619,0.791,0.209
18.177,-0.623,0.791,0.209
18.187,-0.623,0.789,0.211
18.197,-0.621,0.793,0.209
18.206,-0.623,0.787,0.207
18.216,-0.621,0.789,0.207
18.226,-0.621,0.791,0.207
18.236,-0.617,0.791,0.209
18.246,-0.619,0.789,0.207
18.256,-0.623,0.785,0.211
18.266,-0.625,0.787,0.211
18.276,-0.623,0.789,0.211
18.286,-0.621,0.789,0.209
18.296,-0.625,0.789,0.213
18.306,-0.627,0.791,0.211
18.316,-0.623,0.787,0.211
18.326,-0.625,0.785,0.211
18.336,-0.625,0.785,0.215
18.346,-0.625,0.787,0.215
18.356,-0.623,0.785,0.213
18.365,-0.625,0.783,0.211
18.375,-0.623,0.785,0.211
18.385,-0.625,0.787,0.213
18.395,-0.627,0.787,0.213
18.405,-0.627,0.787,0.211
18.415,-0.625,0.787,0.213
18.425,-0.625,0.787,0.209
18.435,-0.627,0.787,0.207
18.445,-0.629,0.787,0.209
18.455,-0.623,0.789,0.211
18.465,-0.625,0.787,0.209
18.475,-0.627,0.787,0.211
18.485,-0.625,0.785,0.211
18.495,-0.623,0.789,0.213
18.505,-0.625,0.789,0.213
18.515,-0.625,0.785,0.209
18.524,-0.625,0.785,0.211
18.534,-0.625,0.787,0.213
18.544,-0.625,0.787,0.213
18.554,-0.625,0.789,0.213
18.564,-0.625,0.787,0.211
18.574,-0.625,0.787,0.215
18.584,-0.625,0.787,0.209
18.594,-0.627,0.787,0.215
18.604,-0.625,0.785,0.213
18.614,-0.623,0.785,0.211
18.624,-0.625,0.785,0.213
18.634,-0.627,0.785,0.215
18.644,-0.625,0.779,0.213
18.654,-0.631,0.783,0.213
18.664,-0.627,0.783,0.217
18.673,-0.625,0.785,0.209
18.683,-0.629,0.785,0.215
18.693,-0.627,0.785,0.215
18.703,-0.627,0.787,0.211
18.713,-0.629,0.785,0.213
18.723,-0.623,0.783,0.213
18.733,-0.627,0.783,0.213
18.743,-0.627,0.787,0.213
18.753,-0.625,0.787,0.211
18.763,-0.627,0.785,0.211
18.773,-0.625,0.781,0.213
18.783,-0.625,0.785,0.217
18.793,-0.627,0.785,0.213
18.803,-0.627,0.779,0.213
18.813,-0.623,0.781,0.211
18.823,-0.625,0.783,0.211
18.832,-0.629,0.787,0.211
18.842,-0.629,0.785,0.213
18.852,-0.625,0.787,0.213
18.862,-0.629,0.781,0.213
18.872,-0.631,0.781,0.213
18.882,-0.633,0.783,0.215
18.892,-0.629,0.787,0.213
18.902,-0.631,0.783,0.211
18.912,-0.631,0.783,0.217
18.922,-0.629,0.783,0.215
18.932,-0.631,0.781,0.215
18.942,-0.633,0.779,0.215
18.952,-0.631,0.781,0.215
18.962,-0.631,0.781,0.217
18.972,-0.633,0.781,0.215
18.982,-0.631,0.781,0.217
18.991,-0.631,0.781,0.215
19.001,-0.633,0.779,0.213
19.011,-0.635,0.783,0.217
19.021,-0.631,0.781,0.213
19.031,-0.631,0.781,0.215
19.041,-0.629,0.779,0.213
19.051,-0.633,0.783,0.215
19.061,-0.633,0.785,0.213
19.071,-0.635,0.785,0.221
19.081,-0.633,0.783,0.211
19.091,-0.635,0.781,0.213
19.101,-0.631,0.773,0.213
19.111,-0.631,0.785,0.215
19.121,-0.629,0.785,0.215
19.131,-0.623,0.781,0.213
19.141,-0.627,0.781,0.213
19.150,-0.633,0.783,0.213
19.160,-0.633,0.785,0.217
19.170,-0.627,0.789,0.215
19.180,-0.629,0.789,0.213
19.190,-0.631,0.785,0.215
19.200,-0.631,0.785,0.215
19.210,-0.631,0.779,0.215
19.220,-0.631,0.783,0.213
19.230,-0.629,0.781,0.213
19.240,-0.625,0.777,0.217
19.250,-0.629,0.779,0.215
19.260,-0.631,0.781,0.211
19.270,-0.631,0.783,0.215
19.280,-0.627,0.785,0.217
19.290,-0.629,0.785,0.215
19.299,-0.631,0.783,0.213
19.309,-0.625,0.785,0.215
19.319,-0.627,0.781,0.213
19.329,-0.627,0.781,0.213
19.339,-0.627,0.783,0.211
19.349,-0.623,0.785,0.213
19.359,-0.627,0.783,0.215
19.369,-0.627,0.783,0.215
19.379,-0.629,0.787,0.215
19.389,-0.627,0.787,0.215
19.399,-0.627,0.787,0.215
19.409,-0.627,0.785,0.213
19.419,-0.627,0.785,0.215
19.429,-0.627,0.783,0.215
19.439,-0.627,0.783,0.209
19.449,-0.631,0.783,0.211
19.458,-0.631,0.785,0.215
19.468,-0.629,0.781,0.215
19.478,-0.629,0.781,0.211
19.488,-0.627,0.783,0.213
19.498,-0.629,0.779,0.215
19.508,-0.629,0.779,0.213
19.518,-0.631,0.781,0.215
19.528,-0.631,0.783,0.211
19.538,-0.629,0.785,0.213
19.548,-0.631,0.785,0.211
19.558,-0.631,0.787,0.211
19.568,-0.631,0.783,0.211
19.578,-0.631,0.779,0.215
19.588,-0.631,0.785,0.211
19.598,-0.633,0.779,0.209
19.608,-0.629,0.781,0.215
19.617,-0.629,0.783,0.215
19.627,-0.629,0.785,0.217
19.637,-0.625,0.777,0.213
19.647,-0.627,0.777,0.215
19.657,-0.625,0.779,0.219
19.667,-0.627,0.785,0.217
19.677,-0.627,0.783,0.213
19.687,-0.631,0.783,0.215
19.697,-0.635,0.783,0.213
19.707,-0.629,0.787,0.211
19.717,-0.629,0.787,0.213
19.727,-0.635,0.787,0.211
19.737,-0.639,0.785,0.213
19.747,-0.635,0.787,0.213
19.757,-0.631,0.783,0.215
19.766,-0.631,0.781,0.213
19.776,-0.629,0.783,0.215
19.786,-0.631,0.777,0.211
19.796,-0.629,0.781,0.209
19.806,-0.629,0.781,0.211
19.816,-0.629,0.783,0.213
19.826,-0.631,0.783,0.213
19.836,-0.631,0.785,0.213
19.846,-0.631,0.787,0.211
19.856,-0.631,0.787,0.211
19.866,-0.629,0.785,0.211
19.876,-0.629,0.783,0.211
19.886,-0.629,0.781,0.209
19.896,-0.631,0.783,0.211
19.906,-0.631,0.781,0.211
19.916,-0.631,0.783,0.211
19.925,-0.633,0.787,0.209
19.935,-0.631,0.785,0.209
19.945,-0.629,0.779,0.211
19.955,-0.633,0.781,0.211
19.965,-0.627,0.785,0.211
19.975,-0.625,0.783,0.211
19.985,-0.623,0.781,0.209
19.995,-0.627,0.781,0.207
20.005,-0.631,0.783,0.211
20.015,-0.627,0.789,0.209
20.025,-0.629,0.789,0.209
20.035,-0.629,0.789,0.215
20.045,-0.629,0.787,0.213
20.055,-0.625,0.785,0.207
20.065,-0.631,0.785,0.209
20.075,-0.625,0.783,0.209
20.084,-0.625,0.785,0.207
20.094,-0.623,0.779,0.207
20.104,-0.623,0.783,0.205
20.114,-0.625,0.787,0.209
20.124,-0.625,0.789,0.207
20.134,-0.627,0.789,0.209
20.144,-0.627,0.787,0.209
20.154,-0.625,0.787,0.203
20.164,-0.627,0.785,0.203
20.174,-0.623,0.787,0.205
20.184,-0.621,0.783,0.205
20.194,-0.621,0.789,0.207
20.204,-0.627,0.791,0.205
20.214,-0.625,0.787,0.209
20.224,-0.625,0.789,0.207
20.234,-0.627,0.785,0.207
20.243,-0.629,0.789,0.209
20.253,-0.625,0.783,0.211
20.263,-0.625,0.785,0.211
20.273,-0.627,0.785,0.207
20.283,-0.627,0.781,0.209
20.293,-0.625,0.783,0.209
20.303,-0.627,0.785,0.211
20.313,-0.631,0.785,0.215
20.323,-0.629,0.787,0.213
20.333,-0.627,0.785,0.211
20.343,-0.629,0.785,0.211
20.353,-0.629,0.787,0.213
20.363,-0.629,0.785,0.213
20.373,-0.629,0.781,0.215
20.383,-0.627,0.785,0.217
20.392,-0.629,0.785,0.213
20.402,-0.629,0.783,0.213
20.412,-0.627,0.781,0.211
20.422,-0.625,0.779,0.215
20.432,-0.627,0.783,0.215
20.442,-0.623,0.785,0.213
20.452,-0.619,0.783,0.209
20.462,-0.623,0.785,0.213
20.472,-0.625,0.791,0.211
20.482,-0.623,0.791,0.213
20.492,-0.623,0.789,0.213
20.502,-0.625,0.785,0.211
20.512,-0.631,0.785,0.213
20.522,-0.629,0.789,0.217
20.532,-0.627,0.787,0.219
20.542,-0.627,0.785,0.217
20.551,-0.631,0.783,0.217
20.561,-0.629,0.783,0.215
20.571,-0.631,0.777,0.217
20.581,-0.631,0.781,0.215
20.591,-0.633,0.781,0.219
20.601,-0.635,0.779,0.217
20.611,-0.633,0.779,0.219
20.621,-0.637,0.777,0.219
20.631,-0.633,0.777,0.217
20.641,-0.635,0.779,0.217
20.651,-0.635,0.779,0.219
20.661,-0.633,0.779,0.217
20.671,-0.635,0.779,0.213
20.681,-0.635,0.777,0.215
20.691,-0.637,0.781,0.217
20.701,-0.635,0.781,0.217
20.710,-0.639,0.779,0.217
20.720,-0.635,0.775,0.215
20.730,-0.637,0.777,0.217
20.740,-0.635,0.783,0.219
20.750,-0.633,0.781,0.217
20.760,-0.625,0.775,0.215
20.770,-0.629,0.773,0.213
20.780,-0.633,0.775,0.217
20.790,-0.635,0.777,0.217
20.800,-0.635,0.783,0.215
20.810,-0.633,0.783,0.217
20.820,-0.637,0.785,0.213
20.830,-0.635,0.781,0.213
20.840,-0.635,0.783,0.211
20.850,-0.635,0.781,0.213
20.859,-0.637,0.781,0.209
20.869,-0.633,0.781,0.207
20.879,-0.633,0.783,0.211
20.889,-0.633,0.787,0.209
20.899,-0.633,0.781,0.209
20.909,-0.633,0.785,0.211
20.919,-0.631,0.783,0.213
20.929,-0.631,0.781,0.209
20.939,-0.631,0.779,0.213
20.949,-0.631,0.781,0.211
20.959,-0.631,0.781,0.213
20.969,-0.635,0.781,0.211
20.979,-0.635,0.779,0.211
20.989,-0.633,0.781,0.211
20.999,-0.635,0.779,0.209
21.009,-0.639,0.781,0.213
21.018,-0.639,0.781,0.213
21.028,-0.637,0.781,0.215
21.038,-0.637,0.779,0.213
21.048,-0.635,0.783,0.211
21.058,-0.637,0.781,0.215
21.068,-0.635,0.781,0.211
21.078,-0.635,0.779,0.211
21.088,-0.633,0.775,0.213
21.098,-0.635,0.779,0.215
21.108,-0.633,0.779,0.211
21.118,-0.633,0.777,0.213
21.128,-0.633,0.779,0.209
21.138,-0.631,0.779,0.213
21.148,-0.633,0.779,0.211
21.158,-0.635,0.781,0.211
21.168,-0.633,0.783,0.211
21.177,-0.635,0.781,0.213
21.187,-0.635,0.783,0.211
21.197,-0.637,0.781,0.211
21.207,-0.637,0.781,0.211
21.217,-0.635,0.783,0.211
21.227,-0.633,0.781,0.209
21.237,-0.635,0.783,0.213
21.247,-0.635,0.783,0.213
21.257,-0.633,0.777,0.211
21.267,-0.635,0.777,0.209
21.277,-0.635,0.777,0.211
21.287,-0.633,0.777,0.211
21.297,-0.633,0.777,0.211
21.307,-0.633,0.779,0.211
21.317,-0.633,0.781,0.215
21.327,-0.633,0.781,0.209
21.336,-0.637,0.781,0.213
21.346,-0.637,0.779,0.213
21.356,-0.639,0.779,0.213
21.366,-0.641,0.781,0.213
21.376,-0.637,0.783,0.211
21.386,-0.635,0.781,0.213
21.396,-0.637,0.777,0.213
21.406,-0.637,0.777,0.215
21.416,-0.637,0.775,0.213
21.426,-0.637,0.775,0.213
21.436,-0.639,0.777,0.215
21.446,-0.637,0.777,0.213
21.456,-0.633,0.777,0.219
21.466,-0.637,0.779,0.211
21.476,-0.637,0.779,0.213
21.485,-0.633,0.779,0.213
21.495,-0.635,0.777,0.213
21.505,-0.637,0.779,0.213
21.515,-0.637,0.777,0.209
21.525,-0.637,0.779,0.213
21.535,-0.637,0.781,0.209
21.545,-0.635,0.781,0.213
21.555,-0.641,0.779,0.211
21.565,-0.637,0.783,0.207
21.575,-0.639,0.777,0.213
21.585,-0.637,0.775,0.209
21.595,-0.637,0.781,0.211
21.605,-0.631,0.781,0.211
21.615,-0.629,0.773,0.211
21.625,-0.633,0.777,0.211
21.635,-0.639,0.775,0.213
21.644,-0.637,0.785,0.213
21.654,-0.635,0.783,0.211
21.664,-0.633,0.783,0.209
21.674,-0.635,0.781,0.213
21.684,-0.633,0.781,0.213
21.694,-0.637,0.779,0.211
21.704,-0.637,0.777,0.209
21.714,-0.635,0.779,0.209
21.724,-0.635,0.777,0.211
21.734,-0.633,0.775,0.213
21.744,-0.633,0.777,0.211
21.754,-0.637,0.779,0.209
21.764,-0.637,0.781,0.207
21.774,-0.637,0.779,0.211
21.784,-0.635,0.777,0.211
21.794,-0.637,0.779,0.213
21.803,-0.635,0.779,0.209
21.813,-0.637,0.781,0.209
21.823,-0.637,0.781,0.215
21.833,-0.637,0.781,0.213
21.843,-0.637,0.781,0.209
21.853,-0.639,0.779,0.209
21.863,-0.639,0.777,0.211
21.873,-0.641,0.777,0.207
21.883,-0.643,0.777,0.209
21.893,-0.643,0.773,0.211
21.903,-0.643,0.773,0.213
21.913,-0.639,0.775,0.215
21.923,-0.641,0.775,0.213
21.933,-0.643,0.777,0.209
21.943,-0.643,0.773,0.211
21.952,-0.639,0.775,0.209
21.962,-0.643,0.777,0.213
21.972,-0.643,0.777,0.211
21.982,-0.643,0.775,0.213
21.992,-0.641,0.777,0.209
22.002,-0.641,0.775,0.213
22.012,-0.637,0.777,0.211
22.022,-0.639,0.779,0.209
22.032,-0.639,0.777,0.211
22.042,-0.639,0.775,0.211
22.052,-0.637,0.779,0.213
22.062,-0.635,0.779,0.209
22.072,-0.637,0.779,0.211
22.082,-0.637,0.779,0.213
22.092,-0.637,0.779,0.211
22.102,-0.639,0.781,0.209
22.111,-0.637,0.781,0.209
22.121,-0.635,0.779,0.211
22.131,-0.639,0.781,0.209
22.141,-0.635,0.779,0.209
22.151,-0.635,0.777,0.211
22.161,-0.635,0.779,0.213
22.171,-0.635,0.779,0.211
22.181,-0.635,0.773,0.213
22.191,-0.633,0.777,0.211
22.201,-0.633,0.777,0.217
22.211,-0.631,0.777,0.215
22.221,-0.631,0.779,0.217
22.231,-0.633,0.781,0.213
22.241,-0.637,0.779,0.211
22.251,-0.633,0.781,0.213
22.261,-0.637,0.779,0.213
22.270,-0.637,0.781,0.213
22.280,-0.637,0.785,0.217
22.290,-0.635,0.781,0.213
22.300,-0.633,0.781,0.213
22.310,-0.635,0.775,0.215
22.320,-0.633,0.775,0.213
22.330,-0.633,0.775,0.213
22.340,-0.635,0.773,0.211
22.350,-0.633,0.777,0.209
22.360,-0.637,0.779,0.211
22.370,-0.637,0.779,0.209
22.380,-0.637,0.781,0.209
22.390,-0.637,0.779,0.209
22.400,-0.641,0.781,0.211
22.410,-0.639,0.779,0.209
22.420,-0.639,0.773,0.211
22.429,-0.639,0.779,0.205
22.439,-0.639,0.779,0.209
22.449,-0.641,0.777,0.209
22.459,-0.639,0.777,0.211
22.469,-0.645,0.779,0.209
22.479,-0.641,0.779,0.213
22.489,-0.643,0.775,0.211
22.499,-0.639,0.771,0.211
22.509,-0.639,0.779,0.213
22.519,-0.633,0.777,0.209
22.529,-0.633,0.773,0.211
22.539,-0.635,0.775,0.209
22.549,-0.641,0.779,0.209
22.559,-0.637,0.785,0.209
22.569,-0.637,0.783,0.211
22.578,-0.637,0.783,0.213
22.588,-0.637,0.779,0.211
22.598,-0.639,0.779,0.213
22.608,-0.639,0.779,0.211
22.618,-0.635,0.775,0.213
22.628,-0.635,0.777,0.213
22.638,-0.633,0.775,0.211
22.648,-0.631,0.779,0.213
22.658,-0.637,0.777,0.217
22.668,-0.633,0.779,0.211
22.678,-0.635,0.777,0.219
22.688,-0.635,0.779,0.215
22.698,-0.635,0.775,0.219
22.708,-0.631,0.775,0.213
22.718,-0.635,0.775,0.215
22.728,-0.635,0.777,0.215
22.737,-0.635,0.777,0.215
22.747,-0.635,0.775,0.213
22.757,-0.637,0.777,0.217
22.767,-0.637,0.777,0.213
22.777,-0.637,0.779,0.211
22.787,-0.635,0.779,0.213
22.797,-0.635,0.779,0.209
22.807,-0.639,0.781,0.211
22.817,-0.637,0.781,0.211
22.827,-0.639,0.781,0.209
22.837,-0.637,0.777,0.209
22.847,-0.639,0.781,0.211
22.857,-0.637,0.777,0.211
22.867,-0.639,0.779,0.211
22.877,-0.633,0.777,0.211
22.887,-0.637,0.781,0.209
22.896,-0.635,0.779,0.211
22.906,-0.637,0.779,0.211
22.916,-0.635,0.779,0.211
22.926,-0.639,0.779,0.211
22.936,-0.635,0.777,0.207
22.946,-0.637,0.779,0.211
22.956,-0.637,0.779,0.209
22.966,-0.635,0.775,0.207
22.976,-0.635,0.775,0.207
22.986,-0.641,0.781,0.209
22.996,-0.637,0.783,0.211
23.006,-0.633,0.779,0.209
23.016,-0.637,0.779,0.211
23.026,-0.637,0.779,0.211
23.036,-0.635,0.785,0.207
23.045,-0.637,0.781,0.209
23.055,-0.637,0.779,0.209
23.065,-0.639,0.781,0.213
23.075,-0.637,0.781,0.213
23.085,-0.637,0.785,0.213
23.095,-0.633,0.779,0.213
23.105,-0.633,0.777,0.215
23.115,-0.637,0.775,0.217
23.125,-0.635,0.773,0.211
23.135,-0.635,0.771,0.217
23.145,-0.635,0.775,0.215
23.155,-0.637,0.777,0.215
23.165,-0.639,0.777,0.219
23.175,-0.635,0.777,0.217
23.185,-0.637,0.775,0.215
23.195,-0.637,0.775,0.217
23.204,-0.641,0.775,0.215
23.214,-0.637,0.775,0.215
23.224,-0.639,0.777,0.215
23.234,-0.637,0.775,0.217
23.244,-0.635,0.779,0.217
23.254,-0.637,0.781,0.213
23.264,-0.639,0.777,0.211
23.274,-0.641,0.773,0.209
23.284,-0.639,0.777,0.211
23.294,-0.639,0.781,0.215
23.304,-0.631,0.783,0.211
23.314,-0.635,0.775,0.207
23.324,-0.635,0.775,0.209
23.334,-0.639,0.775,0.207
23.344,-0.637,0.781,0.207
23.354,-0.637,0.783,0.207
23.363,-0.641,0.785,0.203
23.373,-0.639,0.783,0.205
23.383,-0.639,0.781,0.203
23.393,-0.635,0.779,0.205
23.403,-0.637,0.781,0.203
23.413,-0.637,0.779,0.201
23.423,-0.635,0.781,0.203
23.433,-0.635,0.779,0.199
23.443,-0.635,0.781,0.201
23.453,-0.633,0.781,0.197
23.463,-0.633,0.781,0.201
23.473,-0.633,0.783,0.203
23.483,-0.633,0.779,0.197
23.493,-0.635,0.781,0.201
23.503,-0.637,0.781,0.197
23.513,-0.639,0.781,0.199
23.522,-0.637,0.779,0.197
23.532,-0.637,0.781,0.199
23.542,-0.635,0.779,0.197
23.552,-0.639,0.781,0.199
23.562,-0.637,0.783,0.199
23.572,-0.637,0.783,0.203
23.582,-0.637,0.783,0.205
23.592,-0.637,0.783,0.205
23.602,-0.639,0.779,0.205
23.612,-0.639,0.779,0.205
23.622,-0.639,0.779,0.207
23.632,-0.639,0.777,0.203
23.642,-0.637,0.777,0.203
23.652,-0.641,0.777,0.205
23.662,-0.643,0.777,0.205
23.671,-0.639,0.779,0.207
23.681,-0.641,0.775,0.205
23.691,-0.639,0.777,0.207
23.701,-0.643,0.777,0.209
23.711,-0.641,0.777,0.213
23.721,-0.641,0.775,0.211
23.731,-0.639,0.777,0.209
23.741,-0.639,0.777,0.211
23.751,-0.641,0.779,0.213
23.761,-0.637,0.775,0.209
23.771,-0.635,0.773,0.213
23.781,-0.641,0.777,0.213
23.791,-0.633,0.779,0.207
23.801,-0.633,0.777,0.209
23.811,-0.635,0.777,0.213
23.821,-0.637,0.781,0.213
23.830,-0.635,0.779,0.215
23.840,-0.637,0.777,0.213
23.850,-0.639,0.773,0.211
23.860,-0.643,0.777,0.213
23.870,-0.645,0.779,0.215
23.880,-0.639,0.779,0.209
23.890,-0.639,0.775,0.213
23.900,-0.639,0.775,0.209
23.910,-0.639,0.771,0.211
23.920,-0.639,0.773,0.215
23.930,-0.641,0.771,0.209
23.940,-0.641,0.775,0.211
23.950,-0.637,0.775,0.209
23.960,-0.639,0.777,0.213
23.970,-0.639,0.775,0.207
23.980,-0.639,0.777,0.207
23.989,-0.639,0.773,0.211
23.999,-0.639,0.775,0.211
24.009,-0.639,0.777,0.207
24.019,-0.637,0.775,0.211
24.029,-0.635,0.779,0.205
24.039,-0.637,0.779,0.209
24.049,-0.643,0.779,0.209
24.059,-0.639,0.777,0.205
24.069,-0.643,0.781,0.205
24.079,-0.641,0.777,0.203
24.089,-0.639,0.775,0.205
24.099,-0.639,0.781,0.207
24.109,-0.633,0.779,0.207
24.119,-0.631,0.777,0.205
24.129,-0.631,0.777,0.205
24.139,-0.639,0.777,0.203
24.148,-0.639,0.781,0.203
24.158,-0.635,0.787,0.205
24.168,-0.637,0.785,0.203
24.178,-0.639,0.781,0.205
24.188,-0.639,0.781,0.205
24.198,-0.641,0.779,0.207
24.208,-0.637,0.779,0.205
24.218,-0.637,0.777,0.205
24.228,-0.637,0.775,0.203
24.238,-0.637,0.779,0.205
24.248,-0.635,0.779,0.207
24.258,-0.637,0.779,0.205
24.268,-0.639,0.779,0.201
24.278,-0.637,0.779,0.203
24.288,-0.637,0.781,0.203
24.297,-0.639,0.777,0.205
24.307,-0.641,0.777,0.205
24.317,-0.637,0.779,0.207
24.327,-0.639,0.779,0.205
24.337,-0.639,0.783,0.203
24.347,-0.641,0.779,0.207
24.357,-0.641,0.779,0.203
24.367,-0.643,0.777,0.205
24.377,-0.643,0.779,0.207
24.387,-0.643,0.775,0.205
24.397,-0.643,0.777,0.209
24.407,-0.641,0.777,0.209
24.417,-0.643,0.775,0.211
24.427,-0.643,0.773,0.209
24.437,-0.641,0.775,0.209
24.447,-0.643,0.775,0.209
24.456,-0.641,0.775,0.211
24.466,-0.645,0.775,0.207
24.476,-0.645,0.775,0.209
24.486,-0.643,0.773,0.207
24.496,-0.645,0.775,0.209
24.506,-0.645,0.775,0.209
24.516,-0.643,0.777,0.211
24.526,-0.645,0.775,0.207
24.536,-0.646,0.775,0.209
24.546,-0.643,0.775,0.211
24.556,-0.641,0.771,0.209
24.566,-0.641,0.775,0.209
24.576,-0.641,0.777,0.207
24.586,-0.639,0.771,0.205
24.596,-0.641,0.775,0.209
24.606,-0.639,0.777,0.211
24.615,-0.637,0.773,0.207
24.625,-0.637,0.775,0.207
24.635,-0.639,0.777,0.209
24.645,-0.637,0.779,0.207
24.655,-0.639,0.781,0.207
24.665,-0.639,0.775,0.205
24.675,-0.645,0.777,0.207
24.685,-0.646,0.781,0.209
24.695,-0.645,0.781,0.213
24.705,-0.645,0.781,0.207
24.715,-0.643,0.775,0.209
24.725,-0.643,0.775,0.209
24.735,-0.641,0.771,0.211
24.745,-0.639,0.770,0.207
24.755,-0.639,0.771,0.211
24.764,-0.639,0.771,0.209
24.774,-0.641,0.775,0.211
24.784,-0.641,0.775,0.209
24.794,-0.641,0.773,0.207
24.804,-0.641,0.777,0.207
24.814,-0.641,0.779,0.207
24.824,-0.641,0.777,0.209
24.834,-0.637,0.777,0.205
24.844,-0.641,0.777,0.205
24.854,-0.643,0.781,0.205
24.864,-0.639,0.781,0.205
24.874,-0.643,0.775,0.203
24.884,-0.643,0.781,0.205
24.894,-0.641,0.781,0.203
24.904,-0.641,0.775,0.205
24.914,-0.639,0.779,0.205
24.923,-0.639,0.781,0.207
24.933,-0.633,0.775,0.207
24.943,-0.635,0.775,0.203
24.953,-0.639,0.779,0.201
24.963,-0.641,0.783,0.203
24.973,-0.639,0.785,0.205
24.983,-0.637,0.785,0.205
24.993,-0.637,0.781,0.207
25.003,-0.639,0.781,0.207
25.013,-0.637,0.777,0.205
25.023,-0.639,0.775,0.209
25.033,-0.635,0.777,0.203
25.043,-0.637,0.779,0.205
25.053,-0.637,0.779,0.207
25.063,-0.637,0.781,0.201
25.073,-0.639,0.781,0.207
25.082,-0.637,0.779,0.207
25.092,-0.633,0.779,0.201
25.102,-0.639,0.783,0.205
25.112,-0.637,0.781,0.209
25.122,-0.635,0.779,0.203
25.132,-0.637,0.777,0.205
25.142,-0.639,0.779,0.201
25.152,-0.639,0.781,0.203
25.162,-0.637,0.779,0.203
25.172,-0.639,0.785,0.203
25.182,-0.637,0.781,0.203
25.192,-0.639,0.779,0.203
25.202,-0.637,0.779,0.207
25.212,-0.639,0.777,0.207
25.222,-0.639,0.779,0.209
25.232,-0.639,0.777,0.209
25.241,-0.641,0.779,0.205
25.251,-0.639,0.777,0.209
25.261,-0.641,0.777,0.211
25.271,-0.641,0.777,0.209
25.281,-0.645,0.777,0.211
25.291,-0.643,0.773,0.207
25.301,-0.643,0.773,0.211
25.311,-0.641,0.777,0.207
25.321,-0.643,0.771,0.211
25.331,-0.639,0.773,0.207
25.341,-0.641,0.775,0.213
25.351,-0.639,0.777,0.209
25.361,-0.635,0.771,0.207
25.371,-0.635,0.771,0.209
25.381,-0.639,0.775,0.215
25.390,-0.637,0.781,0.209
25.400,-0.633,0.779,0.213
25.410,-0.637,0.779,0.209
25.420,-0.635,0.779,0.209
25.430,-0.639,0.781,0.209
25.440,-0.637,0.781,0.209
25.450,-0.639,0.777,0.213
25.460,-0.641,0.777,0.211
25.470,-0.641,0.779,0.211
25.480,-0.635,0.779,0.211
25.490,-0.631,0.779,0.213
25.500,-0.637,0.775,0.213
25.510,-0.639,0.773,0.213
25.520,-0.637,0.775,0.209
25.530,-0.639,0.775,0.209
25.540,-0.639,0.777,0.211
25.549,-0.641,0.777,0.209
25.559,-0.641,0.777,0.209
25.569,-0.641,0.777,0.211
25.579,-0.641,0.773,0.209
25.589,-0.641,0.775,0.209
25.599,-0.643,0.775,0.209
25.609,-0.639,0.775,0.205
25.619,-0.643,0.777,0.207
25.629,-0.639,0.779,0.207
25.639,-0.641,0.779,0.209
25.649,-0.639,0.781,0.207
25.659,-0.641,0.775,0.205
25.669,-0.639,0.771,0.207
25.679,-0.639,0.779,0.207
25.689,-0.641,0.783,0.209
25.699,-0.635,0.779,0.211
25.708,-0.635,0.771,0.203
25.718,-0.637,0.775,0.205
25.728,-0.641,0.775,0.205
25.738,-0.639,0.779,0.205
25.748,-0.641,0.779,0.211
25.758,-0.639,0.781,0.209
25.768,-0.643,0.781,0.203
25.778,-0.641,0.777,0.209
25.788,-0.641,0.773,0.209
25.798,-0.643,0.775,0.207
25.808,-0.639,0.775,0.205
25.818,-0.641,0.771,0.203
25.828,-0.641,0.773,0.205
25.838,-0.637,0.779,0.209
25.848,-0.639,0.781,0.207
25.857,-0.641,0.779,0.205
25.867,-0.639,0.779,0.209
25.877,-0.639,0.773,0.207
25.887,-0.643,0.777,0.207
25.897,-0.641,0.773,0.207
25.907,-0.643,0.775,0.207
25.917,-0.641,0.775,0.207
25.927,-0.645,0.777,0.209
25.937,-0.646,0.777,0.203
25.947,-0.646,0.775,0.207
25.957,-0.646,0.775,0.203
25.967,-0.646,0.775,0.203
25.977,-0.645,0.775,0.203
25.987,-0.645,0.775,0.205
25.997,-0.645,0.775,0.207
26.007,-0.646,0.773,0.207
26.016,-0.643,0.775,0.203
26.026,-0.645,0.775,0.209
26.036,-0.646,0.775,0.209
26.046,-0.645,0.773,0.209
26.056,-0.646,0.771,0.207
26.066,-0.648,0.773,0.209
26.076,-0.648,0.771,0.205
26.086,-0.645,0.768,0.205
26.096,-0.648,0.770,0.203
26.106,-0.646,0.775,0.209
26.116,-0.643,0.779,0.205
26.126,-0.643,0.775,0.205
26.136,-0.645,0.773,0.209
26.146,-0.646,0.775,0.207
26.156,-0.645,0.773,0.205
26.166,-0.643,0.773,0.205
26.175,-0.648,0.775,0.207
26.185,-0.652,0.775,0.209
26.195,-0.648,0.775,0.205
26.205,-0.648,0.773,0.205
26.215,-0.652,0.771,0.207
26.225,-0.648,0.773,0.211
26.235,-0.646,0.777,0.211
26.245,-0.646,0.775,0.209
26.255,-0.643,0.775,0.209
26.265,-0.643,0.770,0.213
26.275,-0.645,0.770,0.211
26.285,-0.646,0.773,0.211
26.295,-0.645,0.770,0.207
26.305,-0.648,0.768,0.209
26.315,-0.645,0.773,0.209
26.325,-0.645,0.773,0.211
26.334,-0.648,0.773,0.213
26.344,-0.645,0.771,0.211
26.354,-0.645,0.773,0.209
26.364,-0.645,0.771,0.207
26.374,-0.643,0.773,0.211
26.384,-0.643,0.773,0.211
26.394,-0.641,0.775,0.211
26.404,-0.643,0.773,0.209
26.414,-0.645,0.775,0.211
26.424,-0.646,0.775,0.215
26.434,-0.645,0.771,0.211
26.444,-0.643,0.771,0.209
26.454,-0.645,0.775,0.211
26.464,-0.639,0.775,0.209
26.474,-0.639,0.770,0.207
26.483,-0.641,0.773,0.209
26.493,-0.648,0.773,0.209
26.503,-0.643,0.777,0.209
26.513,-0.645,0.779,0.203
26.523,-0.645,0.777,0.207
26.533,-0.646,0.773,0.213
26.543,-0.645,0.777,0.205
26.553,-0.648,0.771,0.205
26.563,-0.646,0.770,0.207
26.573,-0.645,0.768,0.207
26.583,-0.645,0.773,0.203
26.593,-0.645,0.768,0.209
26.603,-0.648,0.771,0.205
26.613,-0.646,0.771,0.207
26.623,-0.646,0.773,0.207
26.633,-0.646,0.771,0.205
26.642,-0.648,0.775,0.207
26.652,-0.646,0.771,0.203
26.662,-0.652,0.773,0.205
26.672,-0.648,0.775,0.203
26.682,-0.650,0.773,0.203
26.692,-0.648,0.773,0.207
26.702,-0.650,0.773,0.201
26.712,-0.650,0.771,0.205
26.722,-0.648,0.773,0.201
26.732,-0.648,0.771,0.205
26.742,-0.650,0.773,0.207
26.752,-0.648,0.770,0.203
26.762,-0.646,0.775,0.205
26.772,-0.646,0.771,0.207
26.782,-0.646,0.773,0.203
26.792,-0.645,0.773,0.207
26.801,-0.646,0.771,0.207
26.811,-0.646,0.771,0.207
26.821,-0.646,0.773,0.207
26.831,-0.646,0.773,0.207
26.841,-0.648,0.773,0.205
26.851,-0.650,0.771,0.207
26.861,-0.648,0.773,0.207
26.871,-0.646,0.773,0.209
26.881,-0.646,0.773,0.211
26.891,-0.645,0.773,0.207
26.901,-0.646,0.771,0.207
26.911,-0.646,0.773,0.205
26.921,-0.648,0.771,0.205
26.931,-0.641,0.768,0.209
26.941,-0.643,0.770,0.205
26.950,-0.645,0.773,0.209
26.960,-0.645,0.775,0.213
26.970,-0.643,0.771,0.207
26.980,-0.643,0.768,0.209
26.990,-0.650,0.770,0.207
27.000,-0.652,0.771,0.215
27.010,-0.648,0.773,0.209
27.020,-0.648,0.773,0.211
27.030,-0.650,0.770,0.211
27.040,-0.650,0.768,0.211
27.050,-0.652,0.764,0.209
27.060,-0.650,0.768,0.207
27.070,-0.650,0.770,0.207
27.080,-0.648,0.770,0.209
27.090,-0.646,0.770,0.209
27.100,-0.648,0.770,0.207
27.109,-0.648,0.770,0.205
27.119,-0.645,0.770,0.207
27.129,-0.648,0.771,0.203
27.139,-0.646,0.770,0.203
27.149,-0.645,0.768,0.199
27.159,-0.648,0.771,0.201
27.169,-0.652,0.773,0.199
27.179,-0.652,0.781,0.203
27.189,-0.650,0.781,0.199
27.199,-0.652,0.781,0.199
27.209,-0.652,0.773,0.199
27.219,-0.650,0.771,0.201
27.229,-0.652,0.771,0.201
27.239,-0.646,0.770,0.197
27.249,-0.646,0.768,0.199
27.259,-0.650,0.768,0.199
27.268,-0.656,0.771,0.203
27.278,-0.654,0.773,0.205
27.288,-0.650,0.775,0.207
27.298,-0.654,0.773,0.209
27.308,-0.652,0.771,0.207
27.318,-0.652,0.770,0.209
27.328,-0.652,0.768,0.209
27.338,-0.646,0.766,0.207
27.348,-0.643,0.770,0.211
27.358,-0.646,0.770,0.209
27.368,-0.643,0.770,0.209
27.378,-0.643,0.770,0.213
27.388,-0.641,0.771,0.213
27.398,-0.645,0.773,0.211
27.408,-0.646,0.773,0.211
27.418,-0.645,0.771,0.213
27.427,-0.646,0.773,0.209
27.437,-0.645,0.770,0.205
27.447,-0.646,0.771,0.207
27.457,-0.645,0.771,0.209
27.467,-0.646,0.775,0.209
27.477,-0.646,0.775,0.209
27.487,-0.645,0.775,0.207
27.497,-0.645,0.773,0.211
27.507,-0.646,0.771,0.209
27.517,-0.646,0.773,0.209
27.527,-0.645,0.771,0.209
27.537,-0.645,0.773,0.209
27.547,-0.643,0.773,0.211
27.557,-0.646,0.771,0.213
27.567,-0.645,0.773,0.215
27.576,-0.646,0.773,0.211
27.586,-0.646,0.771,0.217
27.596,-0.648,0.773,0.215
27.606,-0.645,0.770,0.213
27.616,-0.652,0.770,0.215
27.626,-0.650,0.771,0.213
27.636,-0.646,0.771,0.213
27.646,-0.648,0.770,0.213
27.656,-0.646,0.771,0.215
27.666,-0.645,0.773,0.213
27.676,-0.645,0.766,0.211
27.686,-0.645,0.766,0.215
27.696,-0.643,0.770,0.215
27.706,-0.645,0.771,0.217
27.716,-0.641,0.770,0.213
27.726,-0.643,0.771,0.217
27.735,-0.643,0.770,0.211
27.745,-0.641,0.771,0.213
27.755,-0.641,0.768,0.213
27.765,-0.643,0.770,0.211
27.775,-0.648,0.773,0.213
27.785,-0.643,0.773,0.213
27.795,-0.643,0.775,0.213
27.805,-0.643,0.775,0.213
27.815,-0.639,0.768,0.213
27.825,-0.645,0.771,0.211
27.835,-0.646,0.768,0.209
27.845,-0.648,0.766,0.207
27.855,-0.648,0.770,0.209
27.865,-0.652,0.770,0.209
27.875,-0.652,0.773,0.207
27.885,-0.654,0.770,0.209
27.894,-0.654,0.770,0.211
27.904,-0.654,0.770,0.209
27.914,-0.654,0.770,0.207
27.924,-0.656,0.770,0.209
27.934,-0.654,0.771,0.205
27.944,-0.656,0.770,0.207
27.954,-0.658,0.770,0.207
27.964,-0.654,0.775,0.209
27.974,-0.654,0.766,0.207
27.984,-0.652,0.764,0.205
27.994,-0.652,0.771,0.207
28.004,-0.648,0.771,0.211
28.014,-0.645,0.766,0.205
28.024,-0.646,0.766,0.205
28.034,-0.650,0.768,0.205
28.044,-0.652,0.770,0.205
28.053,-0.648,0.777,0.205
28.063,-0.650,0.775,0.207
28.073,-0.650,0.775,0.207
28.083,-0.650,0.768,0.207
28.093,-0.648,0.770,0.207
28.103,-0.645,0.771,0.209
28.113,-0.646,0.768,0.205
28.123,-0.646,0.770,0.205
28.133,-0.646,0.770,0.205
28.143,-0.648,0.766,0.209
28.153,-0.650,0.771,0.209
28.163,-0.650,0.770,0.211
28.173,-0.646,0.768,0.211
28.183,-0.648,0.773,0.209
28.193,-0.650,0.770,0.209
28.202,-0.648,0.768,0.211
28.212,-0.646,0.770,0.205
28.222,-0.643,0.770,0.209
28.232,-0.645,0.771,0.211
28.242,-0.646,0.775,0.209
28.252,-0.650,0.775,0.211
28.262,-0.650,0.771,0.215
28.272,-0.650,0.771,0.211
28.282,-0.650,0.771,0.213
28.292,-0.656,0.770,0.209
28.302,-0.654,0.768,0.209
28.312,-0.648,0.770,0.209
28.322,-0.650,0.771,0.211
28.332,-0.650,0.771,0.211
28.342,-0.654,0.768,0.213
28.352,-0.652,0.770,0.215
28.361,-0.652,0.768,0.215
28.371,-0.652,0.768,0.215
28.381,-0.652,0.766,0.213
28.391,-0.650,0.764,0.211
28.401,-0.648,0.768,0.213
28.411,-0.650,0.768,0.211
28.421,-0.646,0.768,0.213
28.431,-0.650,0.768,0.213
28.441,-0.650,0.768,0.211
28.451,-0.650,0.764,0.213
28.461,-0.650,0.766,0.211
28.471,-0.646,0.768,0.211
28.481,-0.645,0.770,0.211
28.491,-0.650,0.770,0.217
28.501,-0.648,0.773,0.215
28.511,-0.650,0.773,0.213
28.520,-0.648,0.770,0.209
28.530,-0.652,0.768,0.211
28.540,-0.656,0.768,0.209
28.550,-0.652,0.770,0.209
28.560,-0.650,0.771,0.211
28.570,-0.652,0.768,0.209
28.580,-0.652,0.768,0.211
28.590,-0.652,0.764,0.209
28.600,-0.650,0.766,0.209
28.610,-0.654,0.764,0.207
28.620,-0.654,0.766,0.209
28.630,-0.656,0.764,0.209
28.640,-0.652,0.768,0.209
28.650,-0.656,0.770,0.207
28.660,-0.654,0.770,0.207
28.669,-0.656,0.770,0.205
28.679,-0.656,0.768,0.209
28.689,-0.656,0.768,0.209
28.699,-0.656,0.770,0.207
28.709,-0.654,0.768,0.209
28.719,-0.654,0.768,0.207
28.729,-0.654,0.771,0.207
28.739,-0.654,0.770,0.209
28.749,-0.654,0.764,0.209
28.759,-0.652,0.768,0.211
28.769,-0.652,0.770,0.211
28.779,-0.650,0.768,0.205
28.789,-0.645,0.764,0.203
28.799,-0.648,0.764,0.205
28.809,-0.650,0.768,0.207
28.819,-0.650,0.770,0.207
28.828,-0.648,0.773,0.209
28.838,-0.650,0.773,0.211
28.848,-0.652,0.773,0.209
28.858,-0.652,0.771,0.209
28.868,-0.650,0.771,0.207
28.878,-0.650,0.768,0.207
28.888,-0.648,0.770,0.207
28.898,-0.648,0.768,0.205
28.908,-0.646,0.770,0.207
28.918,-0.650,0.770,0.209
28.928,-0.648,0.770,0.207
28.938,-0.652,0.771,0.207
28.948,-0.652,0.768,0.211
28.958,-0.648,0.771,0.209
28.968,-0.650,0.768,0.209
28.978,-0.652,0.771,0.211
28.987,-0.648,0.770,0.211
28.997,-0.650,0.768,0.211
29.007,-0.652,0.771,0.211
29.017,-0.652,0.770,0.209
29.027,-0.656,0.770,0.209
29.037,-0.654,0.768,0.213
29.047,-0.654,0.770,0.209
29.057,-0.654,0.768,0.211
29.067,-0.654,0.766,0.211
29.077,-0.652,0.764,0.211
29.087,-0.652,0.764,0.209
29.097,-0.654,0.768,0.211
29.107,-0.652,0.766,0.211
29.117,-0.652,0.768,0.211
29.127,-0.658,0.766,0.213
29.137,-0.654,0.766,0.211
29.146,-0.658,0.766,0.211
29.156,-0.656,0.766,0.213
29.166,-0.656,0.768,0.209
29.176,-0.656,0.766,0.215
29.186,-0.654,0.766,0.213
29.196,-0.654,0.766,0.211
29.206,-0.656,0.768,0.209
29.216,-0.654,0.766,0.213
29.226,-0.656,0.768,0.213
29.236,-0.654,0.768,0.211
29.246,-0.656,0.764,0.213
29.256,-0.652,0.766,0.213
29.266,-0.654,0.766,0.213
29.276,-0.654,0.768,0.209
29.286,-0.656,0.768,0.209
29.295,-0.654,0.766,0.211
29.305,-0.652,0.768,0.211
29.315,-0.656,0.768,0.213
29.325,-0.654,0.766,0.213
29.335,-0.658,0.764,0.213
29.345,-0.656,0.766,0.211
29.355,-0.654,0.764,0.213
29.365,-0.660,0.764,0.209
29.375,-0.656,0.768,0.211
29.385,-0.658,0.768,0.211
29.395,-0.654,0.764,0.209
29.405,-0.656,0.768,0.209
29.415,-0.654,0.764,0.205
29.425,-0.652,0.771,0.213
29.435,-0.650,0.764,0.211
29.445,-0.650,0.766,0.207
29.454,-0.650,0.768,0.211
29.464,-0.654,0.773,0.211
29.474,-0.648,0.771,0.211
29.484,-0.648,0.768,0.207
29.494,-0.654,0.764,0.207
29.504,-0.658,0.766,0.209
29.514,-0.654,0.768,0.207
29.524,-0.656,0.768,0.211
29.534,-0.654,0.770,0.211
29.544,-0.654,0.764,0.211
29.554,-0.660,0.764,0.209
29.564,-0.656,0.762,0.209
29.574,-0.658,0.764,0.211
29.584,-0.658,0.762,0.211
29.594,-0.658,0.762,0.213
29.604,-0.662,0.762,0.211
29.613,-0.660,0.762,0.207
29.623,-0.660,0.764,0.213
29.633,-0.660,0.764,0.211
29.643,-0.660,0.764,0.211
29.653,-0.660,0.762,0.211
29.663,-0.658,0.760,0.211
29.673,-0.654,0.766,0.209
29.683,-0.656,0.764,0.211
29.693,-0.658,0.766,0.213
29.703,-0.654,0.768,0.211
29.713,-0.658,0.766,0.209
29.723,-0.652,0.768,0.213
29.733,-0.656,0.762,0.211
29.743,-0.658,0.766,0.213
29.753,-0.652,0.764,0.213
29.762,-0.648,0.762,0.211
29.772,-0.654,0.758,0.207
29.782,-0.660,0.762,0.211
29.792,-0.660,0.766,0.213
29.802,-0.656,0.770,0.211
29.812,-0.658,0.770,0.213
29.822,-0.656,0.766,0.209
29.832,-0.658,0.764,0.211
29.842,-0.658,0.766,0.211
29.852,-0.658,0.764,0.211
29.862,-0.658,0.762,0.211
29.872,-0.652,0.762,0.211
29.882,-0.658,0.762,0.211
29.892,-0.652,0.764,0.213
29.902,-0.652,0.766,0.213
29.912,-0.652,0.766,0.211
29.921,-0.654,0.766,0.209
29.931,-0.654,0.766,0.211
29.941,-0.652,0.764,0.211
29.951,-0.652,0.766,0.209
29.961,-0.656,0.766,0.207
29.971,-0.656,0.764,0.209
29.981,-0.658,0.768,0.207
29.991,-0.658,0.771,0.209
30.001,-0.658,0.766,0.209
30.011,-0.658,0.766,0.211
30.021,-0.660,0.764,0.211
30.031,-0.656,0.764,0.211
30.041,-0.656,0.766,0.209
30.051,-0.658,0.760,0.211
30.061,-0.656,0.762,0.211
30.071,-0.658,0.762,0.211
30.080,-0.658,0.762,0.211
30.090,-0.656,0.762,0.211
30.100,-0.658,0.764,0.211
30.110,-0.658,0.764,0.211
30.120,-0.658,0.766,0.213
30.130,-0.658,0.764,0.211
30.140,-0.656,0.762,0.211
30.150,-0.660,0.768,0.211
30.160,-0.660,0.764,0.207
30.170,-0.662,0.762,0.213
30.180,-0.660,0.762,0.209
30.190,-0.660,0.766,0.213
30.200,-0.658,0.766,0.207
30.210,-0.656,0.766,0.211
30.220,-0.658,0.762,0.207
30.230,-0.660,0.762,0.211
30.239,-0.656,0.768,0.211
30.249,-0.654,0.764,0.215
30.259,-0.654,0.764,0.211
30.269,-0.656,0.766,0.213
30.279,-0.658,0.764,0.209
30.289,-0.656,0.762,0.211
30.299,-0.658,0.762,0.211
30.309,-0.654,0.764,0.213
30.319,-0.660,0.766,0.213
30.329,-0.660,0.766,0.211
30.339,-0.658,0.766,0.209
30.349,-0.658,0.764,0.211
30.359,-0.658,0.764,0.209
30.369,-0.660,0.764,0.209
30.379,-0.658,0.762,0.209
30.388,-0.656,0.762,0.213
30.398,-0.658,0.762,0.211
30.408,-0.656,0.760,0.213
30.418,-0.654,0.762,0.209
30.428,-0.654,0.766,0.211
30.438,-0.654,0.768,0.211
30.448,-0.656,0.768,0.209
30.458,-0.658,0.766,0.209
30.468,-0.660,0.764,0.211
30.478,-0.662,0.766,0.211
30.488,-0.656,0.770,0.213
30.498,-0.660,0.770,0.213
30.508,-0.656,0.766,0.209
30.518,-0.656,0.762,0.211
30.528,-0.660,0.762,0.209
30.538,-0.658,0.764,0.207
30.547,-0.660,0.762,0.209
30.557,-0.658,0.766,0.209
30.567,-0.656,0.764,0.209
30.577,-0.658,0.762,0.211
30.587,-0.660,0.764,0.209
30.597,-0.662,0.758,0.209
30.607,-0.662,0.764,0.209
30.617,-0.660,0.766,0.211
30.627,-0.660,0.762,0.211
30.637,-0.658,0.762,0.209
30.647,-0.660,0.762,0.209
30.657,-0.660,0.764,0.213
30.667,-0.660,0.764,0.211
30.677,-0.660,0.768,0.209
30.687,-0.660,0.766,0.213
30.697,-0.656,0.758,0.211
30.706,-0.662,0.762,0.213
30.716,-0.660,0.766,0.213
30.726,-0.654,0.758,0.207
30.736,-0.658,0.760,0.207
30.746,-0.658,0.762,0.209
30.756,-0.662,0.764,0.211
30.766,-0.660,0.768,0.213
30.776,-0.658,0.768,0.211
30.786,-0.660,0.768,0.211
30.796,-0.660,0.766,0.213
30.806,-0.660,0.766,0.213
30.816,-0.658,0.764,0.209
30.826,-0.658,0.762,0.209
30.836,-0.656,0.760,0.211
30.846,-0.654,0.762,0.211
30.855,-0.654,0.762,0.209
30.865,-0.656,0.764,0.213
30.875,-0.654,0.764,0.211
30.885,-0.656,0.766,0.213
30.895,-0.656,0.764,0.213
30.905,-0.656,0.764,0.213
30.915,-0.656,0.764,0.211
30.925,-0.656,0.764,0.211
30.935,-0.654,0.764,0.209
30.945,-0.658,0.766,0.209
30.955,-0.658,0.768,0.211
30.965,-0.656,0.766,0.209
30.975,-0.658,0.766,0.209
30.985,-0.658,0.768,0.211
30.995,-0.658,0.766,0.209
31.005,-0.658,0.768,0.209
31.014,-0.654,0.770,0.211
31.024,-0.658,0.764,0.209
31.034,-0.658,0.764,0.209
31.044,-0.658,0.764,0.213
31.054,-0.658,0.766,0.209
31.064,-0.660,0.764,0.211
31.074,-0.660,0.766,0.215
31.084,-0.660,0.764,0.211
31.094,-0.658,0.764,0.209
31.104,-0.660,0.766,0.211
31.114,-0.660,0.764,0.211
31.124,-0.656,0.764,0.211
31.134,-0.656,0.766,0.209
31.144,-0.656,0.764,0.213
31.154,-0.654,0.764,0.211
31.164,-0.656,0.766,0.215
31.173,-0.654,0.768,0.213
31.183,-0.654,0.766,0.213
31.193,-0.652,0.766,0.211
31.203,-0.650,0.766,0.209
31.213,-0.652,0.766,0.211
31.223,-0.654,0.764,0.213
31.233,-0.652,0.766,0.213
31.243,-0.650,0.764,0.215
31.253,-0.650,0.764,0.211
31.263,-0.650,0.764,0.211
31.273,-0.652,0.764,0.213
31.283,-0.654,0.768,0.213
31.293,-0.652,0.768,0.219
31.303,-0.650,0.768,0.215
31.313,-0.656,0.770,0.213
31.323,-0.656,0.770,0.213
31.332,-0.654,0.771,0.213
31.342,-0.658,0.766,0.211
31.352,-0.658,0.768,0.215
31.362,-0.658,0.766,0.217
31.372,-0.656,0.766,0.217
31.382,-0.654,0.766,0.215
31.392,-0.656,0.762,0.219
31.402,-0.658,0.760,0.215
31.412,-0.656,0.760,0.219
31.422,-0.656,0.760,0.213
31.432,-0.658,0.760,0.219
31.442,-0.658,0.764,0.217
31.452,-0.658,0.760,0.217
31.462,-0.658,0.762,0.215
31.472,-0.656,0.762,0.217
31.481,-0.660,0.762,0.219
31.491,-0.658,0.764,0.213
31.501,-0.658,0.764,0.217
31.511,-0.660,0.764,0.217
31.521,-0.660,0.760,0.211
31.531,-0.660,0.764,0.211
31.541,-0.658,0.764,0.215
31.551,-0.664,0.764,0.211
31.561,-0.660,0.758,0.213
31.571,-0.664,0.760,0.211
31.581,-0.664,0.768,0.215
31.591,-0.662,0.766,0.213
31.601,-0.656,0.760,0.207
31.611,-0.660,0.758,0.211
31.621,-0.662,0.758,0.211
31.631,-0.660,0.762,0.211
31.640,-0.660,0.764,0.213
31.650,-0.662,0.764,0.215
31.660,-0.662,0.766,0.217
31.670,-0.664,0.760,0.213
31.680,-0.662,0.762,0.213
31.690,-0.662,0.756,0.209
31.700,-0.662,0.758,0.211
31.710,-0.660,0.760,0.211
31.720,-0.660,0.760,0.211
31.730,-0.660,0.762,0.211
31.740,-0.660,0.762,0.213
31.750,-0.662,0.762,0.215
31.760,-0.660,0.764,0.213
31.770,-0.658,0.760,0.211
31.780,-0.658,0.760,0.215
31.790,-0.658,0.758,0.215
31.799,-0.658,0.756,0.211
31.809,-0.656,0.758,0.211
31.819,-0.662,0.762,0.211
31.829,-0.662,0.762,0.211
31.839,-0.662,0.762,0.213
31.849,-0.662,0.762,0.213
31.859,-0.662,0.760,0.215
31.869,-0.664,0.764,0.211
31.879,-0.664,0.760,0.215
31.889,-0.666,0.760,0.211
31.899,-0.666,0.760,0.213
31.909,-0.666,0.760,0.211
31.919,-0.668,0.760,0.211
31.929,-0.668,0.758,0.215
31.939,-0.668,0.760,0.215
31.948,-0.670,0.758,0.215
31.958,-0.670,0.756,0.217
31.968,-0.670,0.760,0.215
31.978,-0.670,0.756,0.217
31.988,-0.670,0.754,0.215
31.998,-0.670,0.756,0.213
32.008,-0.670,0.756,0.213
32.018,-0.674,0.756,0.215
32.028,-0.670,0.754,0.215
32.038,-0.670,0.752,0.213
32.048,-0.668,0.754,0.217
32.058,-0.668,0.756,0.217
32.068,-0.670,0.756,0.219
32.078,-0.668,0.758,0.217
32.088,-0.666,0.754,0.219
32.098,-0.666,0.756,0.217
32.107,-0.666,0.752,0.221
32.117,-0.666,0.750,0.217
32.127,-0.664,0.752,0.217
32.137,-0.666,0.756,0.219
32.147,-0.668,0.762,0.219
32.157,-0.666,0.756,0.217
32.167,-0.668,0.756,0.215
32.177,-0.672,0.754,0.217
32.187,-0.672,0.756,0.217
32.197,-0.672,0.756,0.217
32.207,-0.668,0.760,0.215
32.217,-0.672,0.760,0.219
32.227,-0.670,0.756,0.217
32.237,-0.670,0.754,0.215
32.247,-0.668,0.754,0.213
32.257,-0.666,0.758,0.211
32.266,-0.664,0.756,0.213
32.276,-0.666,0.754,0.213
32.286,-0.668,0.758,0.211
32.296,-0.664,0.758,0.215
32.306,-0.666,0.760,0.213
32.316,-0.666,0.758,0.211
32.326,-0.666,0.760,0.211
32.336,-0.668,0.758,0.209
32.346,-0.668,0.760,0.211
32.356,-0.668,0.762,0.209
32.366,-0.666,0.758,0.211
32.376,-0.666,0.756,0.209
32.386,-0.666,0.758,0.211
32.396,-0.666,0.762,0.209
32.406,-0.666,0.754,0.211
32.416,-0.664,0.760,0.209
32.425,-0.666,0.766,0.215
32.435,-0.660,0.762,0.211
32.445,-0.660,0.756,0.209
32.455,-0.662,0.756,0.209
32.465,-0.662,0.758,0.209
32.475,-0.666,0.760,0.211
32.485,-0.662,0.762,0.211
32.495,-0.666,0.764,0.211
32.505,-0.666,0.760,0.209
32.515,-0.664,0.762,0.213
32.525,-0.666,0.758,0.211
32.535,-0.666,0.754,0.209
32.545,-0.668,0.756,0.207
32.555,-0.666,0.758,0.211
32.565,-0.664,0.758,0.209
32.574,-0.664,0.756,0.211
32.584,-0.664,0.758,0.211
32.594,-0.666,0.760,0.213
32.604,-0.666,0.758,0.213
32.614,-0.666,0.760,0.213
32.624,-0.670,0.756,0.213
32.634,-0.668,0.758,0.213
32.644,-0.668,0.756,0.211
32.654,-0.668,0.760,0.213
32.664,-0.670,0.758,0.215
32.674,-0.668,0.756,0.211
32.684,-0.674,0.758,0.213
32.694,-0.670,0.756,0.215
32.704,-0.666,0.758,0.213
32.714,-0.668,0.756,0.215
32.724,-0.670,0.756,0.213
32.733,-0.668,0.756,0.217
32.743,-0.670,0.758,0.215
32.753,-0.670,0.756,0.215
32.763,-0.668,0.752,0.215
32.773,-0.668,0.756,0.217
32.783,-0.668,0.756,0.217
32.793,-0.668,0.754,0.215
32.803,-0.668,0.754,0.213
32.813,-0.664,0.756,0.215
32.823,-0.670,0.756,0.215
32.833,-0.668,0.756,0.215
32.843,-0.670,0.758,0.213
32.853,-0.666,0.756,0.215
32.863,-0.668,0.754,0.215
32.873,-0.666,0.754,0.215
32.883,-0.670,0.756,0.217
32.892,-0.664,0.758,0.211
32.902,-0.664,0.758,0.211
32.912,-0.662,0.758,0.211
32.922,-0.664,0.754,0.213
32.932,-0.664,0.756,0.215
32.942,-0.664,0.754,0.213
32.952,-0.660,0.752,0.213
32.962,-0.664,0.756,0.213
32.972,-0.664,0.760,0.217
32.982,-0.662,0.762,0.213
32.992,-0.664,0.762,0.211
33.002,-0.668,0.756,0.211
33.012,-0.674,0.758,0.215
33.022,-0.670,0.760,0.215
33.032,-0.668,0.760,0.215
33.041,-0.668,0.760,0.215
33.051,-0.670,0.758,0.211
33.061,-0.668,0.754,0.213
33.071,-0.670,0.756,0.213
33.081,-0.668,0.752,0.211
33.091,-0.666,0.754,0.213
33.101,-0.668,0.754,0.213
33.111,-0.664,0.756,0.211
33.121,-0.668,0.756,0.213
33.131,-0.666,0.758,0.211
33.141,-0.668,0.756,0.209
33.151,-0.666,0.756,0.209
33.161,-0.670,0.758,0.211
33.171,-0.668,0.756,0.211
33.181,-0.670,0.756,0.211
33.191,-0.668,0.758,0.211
33.200,-0.670,0.760,0.213
33.210,-0.672,0.760,0.213
33.220,-0.674,0.758,0.211
33.230,-0.670,0.752,0.213
33.240,-0.672,0.754,0.211
33.250,-0.670,0.760,0.213
33.260,-0.664,0.756,0.215
33.270,-0.662,0.752,0.209
33.280,-0.664,0.752,0.213
33.290,-0.670,0.756,0.217
33.300,-0.666,0.760,0.215
33.310,-0.668,0.760,0.213
33.320,-0.668,0.760,0.213
33.330,-0.668,0.758,0.213
33.340,-0.668,0.756,0.213
33.350,-0.670,0.754,0.215
33.359,-0.668,0.756,0.209
33.369,-0.668,0.754,0.211
33.379,-0.668,0.756,0.211
33.389,-0.668,0.754,0.213
33.399,-0.666,0.754,0.213
33.409,-0.664,0.760,0.211
33.419,-0.666,0.762,0.215
33.429,-0.666,0.760,0.213
33.439,-0.662,0.758,0.213
33.449,-0.664,0.756,0.211
33.459,-0.666,0.758,0.211
33.469,-0.668,0.756,0.215
33.479,-0.668,0.758,0.213
33.489,-0.662,0.758,0.215
33.499,-0.666,0.758,0.213
33.509,-0.666,0.760,0.213
33.518,-0.668,0.762,0.211
33.528,-0.668,0.756,0.213
33.538,-0.666,0.758,0.215
33.548,-0.668,0.758,0.213
33.558,-0.668,0.758,0.211
33.568,-0.666,0.756,0.211
33.578,-0.668,0.758,0.215
33.588,-0.666,0.754,0.215
33.598,-0.668,0.754,0.213
33.608,-0.668,0.752,0.213
33.618,-0.668,0.754,0.211
33.628,-0.666,0.754,0.213
33.638,-0.670,0.756,0.215
33.648,-0.670,0.758,0.211
33.658,-0.670,0.754,0.211
33.667,-0.668,0.758,0.213
33.677,-0.668,0.758,0.215
33.687,-0.670,0.760,0.213
33.697,-0.668,0.756,0.211
33.707,-0.666,0.758,0.215
33.717,-0.668,0.760,0.213
33.727,-0.666,0.754,0.211
33.737,-0.666,0.754,0.211
33.747,-0.666,0.754,0.211
33.757,-0.668,0.758,0.215
33.767,-0.666,0.758,0.211
33.777,-0.666,0.756,0.213
33.787,-0.668,0.760,0.211
33.797,-0.664,0.762,0.213
33.807,-0.666,0.760,0.211
33.817,-0.668,0.758,0.213
33.826,-0.672,0.760,0.217
33.836,-0.670,0.762,0.217
33.846,-0.664,0.760,0.215
33.856,-0.666,0.758,0.215
33.866,-0.666,0.756,0.215
33.876,-0.664,0.750,0.211
33.886,-0.666,0.754,0.213
33.896,-0.668,0.754,0.213
33.906,-0.668,0.756,0.217
33.916,-0.666,0.758,0.217
33.926,-0.664,0.756,0.213
33.936,-0.670,0.758,0.213
33.946,-0.668,0.758,0.215
33.956,-0.668,0.754,0.213
33.966,-0.668,0.754,0.213
33.976,-0.668,0.754,0.211
33.985,-0.668,0.756,0.211
33.995,-0.668,0.758,0.213
34.005,-0.666,0.760,0.211
34.015,-0.670,0.760,0.215
34.025,-0.670,0.758,0.217
34.035,-0.670,0.754,0.217
34.045,-0.668,0.758,0.215
34.055,-0.664,0.760,0.217
34.065,-0.662,0.758,0.215
34.075,-0.664,0.754,0.211
34.085,-0.666,0.756,0.211
34.095,-0.664,0.758,0.213
34.105,-0.668,0.762,0.213
34.115,-0.668,0.766,0.215
34.125,-0.668,0.762,0.215
34.134,-0.666,0.760,0.215
34.144,-0.664,0.762,0.213
34.154,-0.666,0.758,0.213
34.164,-0.664,0.758,0.213
34.174,-0.664,0.756,0.215
34.184,-0.662,0.756,0.213
34.194,-0.662,0.758,0.213
34.204,-0.664,0.758,0.217
34.214,-0.666,0.758,0.215
34.224,-0.666,0.758,0.217
34.234,-0.664,0.760,0.213
34.244,-0.666,0.760,0.213
34.254,-0.666,0.758,0.211
34.264,-0.664,0.758,0.209
34.274,-0.666,0.756,0.211
34.284,-0.666,0.758,0.209
34.293,-0.662,0.762,0.211
34.303,-0.664,0.762,0.211
34.313,-0.664,0.764,0.211
34.323,-0.662,0.766,0.211
34.333,-0.658,0.764,0.209
34.343,-0.660,0.760,0.209
34.353,-0.660,0.760,0.211
34.363,-0.656,0.760,0.213
34.373,-0.660,0.764,0.209
34.383,-0.662,0.762,0.215
34.393,-0.662,0.762,0.213
34.403,-0.662,0.760,0.215
34.413,-0.662,0.762,0.217
34.423,-0.666,0.762,0.213
34.433,-0.666,0.756,0.217
34.443,-0.664,0.754,0.215
34.452,-0.666,0.756,0.217
34.462,-0.664,0.758,0.217
34.472,-0.664,0.752,0.215
34.482,-0.666,0.750,0.219
34.492,-0.664,0.756,0.215
34.502,-0.666,0.762,0.219
34.512,-0.664,0.758,0.215
34.522,-0.664,0.756,0.221
34.532,-0.664,0.762,0.219
34.542,-0.664,0.766,0.217
34.552,-0.664,0.760,0.217
34.562,-0.664,0.758,0.215
34.572,-0.668,0.760,0.219
34.582,-0.668,0.760,0.219
34.592,-0.664,0.760,0.219
34.602,-0.664,0.762,0.219
34.611,-0.662,0.758,0.219
34.621,-0.662,0.756,0.217
34.631,-0.660,0.756,0.217
34.641,-0.664,0.758,0.219
34.651,-0.662,0.760,0.215
34.661,-0.666,0.758,0.215
34.671,-0.666,0.760,0.215
34.681,-0.666,0.758,0.217
34.691,-0.662,0.760,0.217
34.701,-0.666,0.758,0.213
34.711,-0.664,0.760,0.215
34.721,-0.666,0.758,0.213
34.731,-0.662,0.760,0.213
34.741,-0.664,0.762,0.215
34.751,-0.662,0.762,0.217
34.760,-0.664,0.764,0.215
34.770,-0.660,0.762,0.213
34.780,-0.662,0.756,0.211
34.790,-0.660,0.762,0.209
34.800,-0.658,0.768,0.213
34.810,-0.658,0.762,0.211
34.820,-0.656,0.760,0.211
34.830,-0.656,0.756,0.209
34.840,-0.662,0.758,0.213
34.850,-0.660,0.762,0.213
34.860,-0.660,0.766,0.213
34.870,-0.664,0.764,0.213
34.880,-0.664,0.764,0.211
34.890,-0.664,0.762,0.209
34.900,-0.664,0.760,0.209
34.910,-0.664,0.760,0.211
34.919,-0.662,0.758,0.211
34.929,-0.662,0.758,0.209
34.939,-0.660,0.760,0.207
34.949,-0.662,0.758,0.211
34.959,-0.660,0.758,0.211
34.969,-0.660,0.760,0.209
34.979,-0.656,0.760,0.213
34.989,-0.658,0.758,0.209
34.999,-0.664,0.758,0.211
35.009,-0.666,0.758,0.211
35.019,-0.666,0.764,0.213
35.029,-0.668,0.762,0.209
35.039,-0.668,0.766,0.211
35.049,-0.670,0.764,0.209
35.059,-0.666,0.762,0.211
35.069,-0.670,0.766,0.209
35.078,-0.666,0.766,0.209
35.088,-0.664,0.766,0.207
35.098,-0.662,0.764,0.209
35.108,-0.664,0.764,0.209
35.118,-0.662,0.764,0.209
35.128,-0.662,0.762,0.213
35.138,-0.660,0.760,0.211
35.148,-0.664,0.760,0.215
35.158,-0.658,0.762,0.211
35.168,-0.660,0.760,0.213
35.178,-0.662,0.762,0.211
35.188,-0.660,0.764,0.213
35.198,-0.658,0.762,0.213
35.208,-0.662,0.764,0.209
35.218,-0.658,0.762,0.215
35.228,-0.662,0.758,0.213
35.237,-0.660,0.762,0.213
35.247,-0.660,0.762,0.215
35.257,-0.658,0.760,0.215
35.267,-0.662,0.764,0.215
35.277,-0.658,0.762,0.217
35.287,-0.660,0.758,0.217
35.297,-0.658,0.762,0.215
35.307,-0.660,0.762,0.215
35.317,-0.658,0.766,0.213
35.327,-0.660,0.760,0.215
35.337,-0.662,0.760,0.215
35.347,-0.664,0.758,0.215
35.357,-0.664,0.760,0.215
35.367,-0.666,0.764,0.213
35.377,-0.664,0.764,0.217
35.386,-0.666,0.760,0.215
35.396,-0.664,0.756,0.215
35.406,-0.664,0.758,0.213
35.416,-0.666,0.756,0.213
35.426,-0.664,0.756,0.215
35.436,-0.666,0.758,0.213
35.446,-0.662,0.760,0.213
35.456,-0.666,0.758,0.215
35.466,-0.664,0.758,0.215
35.476,-0.664,0.762,0.213
35.486,-0.664,0.758,0.213
35.496,-0.666,0.758,0.211
35.506,-0.664,0.760,0.213
35.516,-0.666,0.760,0.209
35.526,-0.668,0.758,0.211
35.536,-0.668,0.762,0.211
35.545,-0.670,0.760,0.209
35.555,-0.668,0.762,0.211
35.565,-0.670,0.758,0.213
35.575,-0.666,0.756,0.213
35.585,-0.668,0.760,0.209
35.595,-0.662,0.760,0.211
35.605,-0.660,0.756,0.207
35.615,-0.662,0.756,0.213
35.625,-0.666,0.760,0.211
35.635,-0.668,0.758,0.211
35.645,-0.668,0.762,0.209
35.655,-0.666,0.764,0.213
35.665,-0.666,0.760,0.209
35.675,-0.670,0.756,0.211
35.685,-0.666,0.760,0.215
35.695,-0.666,0.758,0.209
35.704,-0.664,0.756,0.211
35.714,-0.664,0.758,0.211
35.724,-0.664,0.760,0.213
35.734,-0.664,0.758,0.211
35.744,-0.666,0.758,0.211
35.754,-0.662,0.760,0.211
35.764,-0.662,0.760,0.211
35.774,-0.662,0.762,0.213
35.784,-0.662,0.760,0.209
35.794,-0.664,0.762,0.213
35.804,-0.662,0.758,0.209
35.814,-0.662,0.758,0.211
35.824,-0.664,0.762,0.211
35.834,-0.662,0.760,0.213
35.844,-0.664,0.760,0.209
35.853,-0.662,0.762,0.213
35.863,-0.664,0.756,0.215
35.873,-0.662,0.758,0.209
35.883,-0.666,0.758,0.213
35.893,-0.664,0.758,0.215
35.903,-0.668,0.758,0.211
35.913,-0.668,0.756,0.211
35.923,-0.666,0.758,0.213
35.933,-0.666,0.756,0.213
35.943,-0.668,0.760,0.213
35.953,-0.670,0.760,0.213
35.963,-0.668,0.760,0.211
35.973,-0.666,0.758,0.209
35.983,-0.668,0.754,0.215
35.993,-0.666,0.758,0.213
36.003,-0.672,0.756,0.213
36.012,-0.670,0.754,0.211
36.022,-0.672,0.758,0.211
36.032,-0.670,0.760,0.211
36.042,-0.668,0.760,0.211
36.052,-0.666,0.754,0.213
36.062,-0.666,0.758,0.213
36.072,-0.668,0.758,0.211
36.082,-0.666,0.758,0.213
36.092,-0.670,0.758,0.207
36.102,-0.672,0.758,0.211
36.112,-0.666,0.756,0.211
36.122,-0.670,0.760,0.213
36.132,-0.668,0.758,0.211
36.142,-0.670,0.756,0.211
36.152,-0.668,0.760,0.209
36.162,-0.668,0.760,0.211
36.171,-0.666,0.758,0.209
36.181,-0.668,0.754,0.211
36.191,-0.666,0.756,0.211
36.201,-0.666,0.754,0.215
36.211,-0.662,0.754,0.207
36.221,-0.666,0.764,0.211
36.231,-0.664,0.762,0.209
36.241,-0.666,0.760,0.209
36.251,-0.666,0.758,0.209
36.261,-0.670,0.758,0.209
36.271,-0.672,0.760,0.213
36.281,-0.668,0.762,0.211
36.291,-0.666,0.760,0.209
36.301,-0.668,0.760,0.215
36.311,-0.666,0.758,0.209
36.321,-0.666,0.756,0.211
36.330,-0.666,0.756,0.213
36.340,-0.668,0.758,0.213
36.350,-0.666,0.758,0.213
36.360,-0.666,0.760,0.209
36.370,-0.668,0.762,0.213
36.380,-0.664,0.756,0.213
36.390,-0.666,0.762,0.211
36.400,-0.662,0.764,0.211
36.410,-0.664,0.762,0.213
36.420,-0.660,0.762,0.211
36.430,-0.660,0.762,0.211
36.440,-0.662,0.760,0.209
36.450,-0.658,0.764,0.215
36.460,-0.660,0.764,0.211
36.470,-0.660,0.764,0.213
36.479,-0.660,0.770,0.213
36.489,-0.658,0.760,0.211
36.499,-0.658,0.766,0.211
36.509,-0.656,0.768,0.213
36.519,-0.652,0.766,0.209
36.529,-0.650,0.762,0.213
36.539,-0.650,0.766,0.211
36.549,-0.654,0.770,0.211
36.559,-0.654,0.773,0.209
36.569,-0.654,0.770,0.209
36.579,-0.654,0.773,0.213
36.589,-0.654,0.771,0.213
36.599,-0.652,0.771,0.213
36.609,-0.650,0.768,0.211
36.619,-0.646,0.766,0.209
36.629,-0.646,0.766,0.207
36.638,-0.645,0.768,0.207
36.648,-0.650,0.768,0.207
36.658,-0.648,0.770,0.209
36.668,-0.650,0.770,0.211
36.678,-0.648,0.771,0.211
36.688,-0.648,0.771,0.209
36.698,-0.648,0.773,0.209
36.708,-0.648,0.770,0.207
36.718,-0.646,0.770,0.207
36.728,-0.646,0.768,0.209
36.738,-0.648,0.771,0.209
36.748,-0.646,0.771,0.205
36.758,-0.646,0.773,0.209
36.768,-0.648,0.771,0.211
36.778,-0.650,0.771,0.209
36.788,-0.646,0.771,0.209
36.797,-0.650,0.771,0.209
36.807,-0.646,0.771,0.215
36.817,-0.648,0.770,0.209
36.827,-0.650,0.771,0.209
36.837,-0.650,0.771,0.209
36.847,-0.650,0.771,0.209
36.857,-0.652,0.770,0.209
36.867,-0.650,0.771,0.209
36.877,-0.650,0.770,0.209
36.887,-0.650,0.770,0.209
36.897,-0.654,0.770,0.209
36.907,-0.652,0.766,0.211
36.917,-0.650,0.768,0.207
36.927,-0.652,0.771,0.209
36.937,-0.654,0.768,0.209
36.946,-0.650,0.771,0.211
36.956,-0.654,0.771,0.213
36.966,-0.652,0.770,0.211
36.976,-0.650,0.770,0.211
36.986,-0.650,0.770,0.209
36.996,-0.650,0.768,0.209
37.006,-0.652,0.770,0.213
37.016,-0.650,0.771,0.209
37.026,-0.646,0.771,0.207
37.036,-0.643,0.768,0.207
37.046,-0.648,0.771,0.213
37.056,-0.648,0.775,0.209
37.066,-0.646,0.775,0.209
37.076,-0.645,0.773,0.209
37.086,-0.646,0.773,0.209
37.096,-0.646,0.779,0.209
37.105,-0.645,0.777,0.209
37.115,-0.645,0.775,0.205
37.125,-0.648,0.775,0.213
37.135,-0.645,0.775,0.211
37.145,-0.645,0.775,0.213
37.155,-0.645,0.775,0.209
37.165,-0.639,0.773,0.211
37.175,-0.641,0.771,0.207
37.185,-0.641,0.768,0.207
37.195,-0.641,0.770,0.209
37.205,-0.639,0.775,0.207
37.215,-0.641,0.771,0.211
37.225,-0.641,0.777,0.211
37.235,-0.645,0.775,0.211
37.245,-0.643,0.777,0.207
37.255,-0.645,0.781,0.211
37.264,-0.643,0.781,0.209
37.274,-0.645,0.777,0.207
37.284,-0.641,0.777,0.207
37.294,-0.643,0.777,0.213
37.304,-0.643,0.777,0.209
37.314,-0.645,0.781,0.209
37.324,-0.645,0.779,0.211
37.334,-0.641,0.771,0.209
37.344,-0.643,0.775,0.211
37.354,-0.645,0.777,0.213
37.364,-0.643,0.775,0.211
37.374,-0.643,0.773,0.207
37.384,-0.643,0.768,0.207
37.394,-0.646,0.771,0.207
37.404,-0.646,0.775,0.211
37.414,-0.646,0.777,0.205
37.423,-0.646,0.777,0.209
37.433,-0.648,0.773,0.205
37.443,-0.648,0.777,0.211
37.453,-0.648,0.779,0.209
37.463,-0.648,0.777,0.203
37.473,-0.646,0.777,0.205
37.483,-0.646,0.777,0.207
37.493,-0.643,0.775,0.209
37.503,-0.645,0.777,0.211
37.513,-0.641,0.779,0.209
37.523,-0.646,0.777,0.209
37.533,-0.645,0.777,0.209
37.543,-0.641,0.777,0.209
37.553,-0.643,0.775,0.207
37.563,-0.646,0.773,0.209
37.572,-0.643,0.773,0.209
37.582,-0.645,0.777,0.209
37.592,-0.645,0.781,0.211
37.602,-0.641,0.779,0.211
37.612,-0.643,0.779,0.209
37.622,-0.639,0.781,0.209
37.632,-0.648,0.779,0.211
37.642,-0.645,0.779,0.209
37.652,-0.648,0.783,0.209
37.662,-0.639,0.783,0.207
37.672,-0.637,0.781,0.207
37.682,-0.639,0.781,0.209
37.692,-0.635,0.781,0.211
37.702,-0.633,0.783,0.213
37.712,-0.623,0.781,0.213
37.722,-0.627,0.785,0.209
37.731,-0.627,0.785,0.211
37.741,-0.625,0.783,0.211
37.751,-0.621,0.785,0.211
37.761,-0.615,0.789,0.213
37.771,-0.617,0.787,0.211
37.781,-0.617,0.785,0.209
37.791,-0.621,0.789,0.211
37.801,-0.621,0.789,0.213
37.811,-0.623,0.789,0.209
37.821,-0.625,0.785,0.211
37.831,-0.627,0.783,0.211
37.841,-0.625,0.785,0.211
37.851,-0.629,0.785,0.209
37.861,-0.627,0.785,0.211
37.871,-0.627,0.785,0.209
37.881,-0.627,0.781,0.207
37.890,-0.627,0.785,0.207
37.900,-0.633,0.787,0.209
37.910,-0.627,0.787,0.205
37.920,-0.631,0.785,0.203
37.930,-0.633,0.781,0.205
37.940,-0.635,0.781,0.205
37.950,-0.633,0.787,0.207
37.960,-0.633,0.787,0.209
37.970,-0.633,0.785,0.207
37.980,-0.629,0.781,0.209
37.990,-0.635,0.783,0.205
38.000,-0.637,0.781,0.203
38.010,-0.637,0.779,0.203
38.020,-0.639,0.785,0.203
38.030,-0.639,0.783,0.203
38.039,-0.639,0.785,0.205
38.049,-0.643,0.781,0.203
38.059,-0.639,0.781,0.199
38.069,-0.643,0.779,0.201
38.079,-0.639,0.781,0.201
38.089,-0.643,0.781,0.199
38.099,-0.639,0.781,0.199
38.109,-0.641,0.783,0.203
38.119,-0.643,0.783,0.201
38.129,-0.641,0.781,0.201
38.139,-0.639,0.779,0.203
38.149,-0.643,0.785,0.201
38.159,-0.639,0.777,0.205
38.169,-0.641,0.777,0.207
38.179,-0.641,0.783,0.205
38.189,-0.637,0.779,0.205
38.198,-0.633,0.779,0.199
38.208,-0.639,0.781,0.203
38.218,-0.643,0.779,0.205
38.228,-0.637,0.781,0.203
38.238,-0.637,0.787,0.203
38.248,-0.639,0.787,0.201
38.258,-0.637,0.785,0.205
38.268,-0.641,0.783,0.205
38.278,-0.639,0.785,0.207
38.288,-0.637,0.781,0.203
38.298,-0.637,0.781,0.203
38.308,-0.633,0.779,0.207
38.318,-0.631,0.781,0.205
38.328,-0.633,0.783,0.203
38.338,-0.633,0.785,0.207
38.348,-0.633,0.783,0.203
38.357,-0.633,0.787,0.205
38.367,-0.633,0.785,0.205
38.377,-0.635,0.785,0.201
38.387,-0.631,0.783,0.203
38.397,-0.631,0.785,0.201
38.407,-0.633,0.783,0.209
38.417,-0.633,0.783,0.203
38.427,-0.631,0.783,0.203
38.437,-0.631,0.783,0.207
38.447,-0.627,0.785,0.203
38.457,-0.637,0.787,0.205
38.467,-0.633,0.785,0.207
38.477,-0.635,0.785,0.207
38.487,-0.633,0.783,0.207
38.497,-0.635,0.783,0.207
38.507,-0.635,0.783,0.207
38.516,-0.637,0.779,0.203
38.526,-0.637,0.779,0.207
38.536,-0.637,0.779,0.207
38.546,-0.635,0.783,0.207
38.556,-0.637,0.781,0.205
38.566,-0.637,0.783,0.211
38.576,-0.633,0.779,0.205
38.586,-0.635,0.783,0.203
38.596,-0.635,0.781,0.207
38.606,-0.635,0.783,0.203
38.616,-0.635,0.783,0.203
38.626,-0.633,0.783,0.205
38.636,-0.635,0.783,0.205
38.646,-0.637,0.785,0.207
38.656,-0.637,0.783,0.207
38.665,-0.637,0.783,0.207
38.675,-0.637,0.783,0.205
38.685,-0.635,0.781,0.201
38.695,-0.637,0.779,0.205
38.705,-0.639,0.783,0.207
38.715,-0.637,0.783,0.203
38.725,-0.637,0.779,0.203
38.735,-0.639,0.777,0.207
38.745,-0.637,0.781,0.203
38.755,-0.633,0.779,0.205
38.765,-0.635,0.779,0.207
38.775,-0.635,0.787,0.205
38.785,-0.639,0.785,0.205
38.795,-0.637,0.783,0.203
38.805,-0.637,0.781,0.203
38.815,-0.641,0.781,0.207
38.824,-0.641,0.781,0.203
38.834,-0.637,0.785,0.207
38.844,-0.641,0.777,0.207
38.854,-0.633,0.777,0.201
38.864,-0.639,0.775,0.207
38.874,-0.639,0.775,0.207
38.884,-0.639,0.779,0.205
38.894,-0.639,0.779,0.205
38.904,-0.643,0.781,0.205
38.914,-0.639,0.783,0.205
38.924,-0.641,0.777,0.203
38.934,-0.639,0.779,0.205
38.944,-0.641,0.781,0.209
38.954,-0.643,0.779,0.203
38.964,-0.639,0.777,0.205
38.974,-0.641,0.777,0.201
38.983,-0.641,0.779,0.205
38.993,-0.641,0.779,0.201
39.003,-0.643,0.781,0.203
39.013,-0.639,0.781,0.205
39.023,-0.639,0.783,0.209
39.033,-0.639,0.781,0.209
39.043,-0.639,0.777,0.207
39.053,-0.641,0.783,0.205
39.063,-0.635,0.781,0.205
39.073,-0.631,0.779,0.203
39.083,-0.633,0.777,0.205
39.093,-0.637,0.777,0.205
39.103,-0.641,0.781,0.205
39.113,-0.643,0.785,0.205
39.123,-0.643,0.783,0.205
39.133,-0.641,0.783,0.205
39.142,-0.641,0.781,0.205
39.152,-0.645,0.779,0.207
39.162,-0.641,0.775,0.205
39.172,-0.641,0.779,0.203
39.182,-0.639,0.777,0.203
39.192,-0.641,0.773,0.205
39.202,-0.635,0.775,0.203
39.212,-0.639,0.779,0.203
39.222,-0.641,0.779,0.207
39.232,-0.639,0.781,0.207
39.242,-0.641,0.779,0.205
39.252,-0.639,0.779,0.205
39.262,-0.635,0.779,0.205
39.272,-0.641,0.781,0.205
39.282,-0.643,0.781,0.207
39.291,-0.641,0.783,0.203
39.301,-0.641,0.781,0.203
39.311,-0.639,0.783,0.203
39.321,-0.641,0.783,0.201
39.331,-0.643,0.781,0.205
39.341,-0.645,0.779,0.205
39.351,-0.641,0.779,0.207
39.361,-0.641,0.777,0.207
39.371,-0.639,0.781,0.209
39.381,-0.641,0.777,0.205
39.391,-0.639,0.777,0.205
39.401,-0.643,0.777,0.205
39.411,-0.639,0.777,0.203
39.421,-0.641,0.775,0.205
39.431,-0.643,0.779,0.205
39.441,-0.643,0.777,0.207
39.450,-0.643,0.777,0.205
39.460,-0.639,0.781,0.203
39.470,-0.643,0.781,0.205
39.480,-0.641,0.781,0.207
39.490,-0.639,0.777,0.207
39.500,-0.639,0.781,0.207
39.510,-0.639,0.779,0.207
39.520,-0.639,0.779,0.207
39.530,-0.637,0.779,0.207
39.540,-0.639,0.781,0.207
39.550,-0.637,0.779,0.209
39.560,-0.641,0.777,0.209
39.570,-0.635,0.779,0.207
39.580,-0.637,0.781,0.209
39.590,-0.637,0.779,0.207
39.600,-0.635,0.781,0.207
39.609,-0.633,0.779,0.207
39.619,-0.637,0.779,0.209
39.629,-0.637,0.777,0.209
39.639,-0.635,0.781,0.209
39.649,-0.637,0.779,0.211
39.659,-0.637,0.781,0.209
39.669,-0.637,0.783,0.213
39.679,-0.641,0.783,0.209
39.689,-0.639,0.781,0.205
39.699,-0.641,0.779,0.205
39.709,-0.646,0.781,0.211
39.719,-0.643,0.783,0.211
39.729,-0.641,0.783,0.209
39.739,-0.639,0.783,0.209
39.749,-0.637,0.777,0.209
39.758,-0.635,0.775,0.207
39.768,-0.639,0.775,0.209
39.778,-0.639,0.773,0.207
39.788,-0.637,0.777,0.211
39.798,-0.641,0.781,0.207
39.808,-0.635,0.781,0.209
39.818,-0.639,0.781,0.211
39.828,-0.639,0.779,0.209
39.838,-0.643,0.779,0.209
39.848,-0.641,0.777,0.209
39.858,-0.643,0.777,0.207
39.868,-0.643,0.779,0.207
39.878,-0.641,0.779,0.207
39.888,-0.641,0.779,0.209
39.898,-0.639,0.777,0.207
39.908,-0.641,0.779,0.209
39.917,-0.641,0.779,0.207
39.927,-0.643,0.775,0.211
39.937,-0.643,0.781,0.207
39.947,-0.641,0.781,0.211
39.957,-0.635,0.779,0.209
39.967,-0.635,0.771,0.205
39.977,-0.641,0.779,0.207
39.987,-0.641,0.781,0.211
39.997,-0.641,0.783,0.207
40.007,-0.639,0.781,0.205
40.017,-0.645,0.783,0.211
40.027,-0.643,0.781,0.205
40.037,-0.643,0.779,0.205
40.047,-0.641,0.777,0.207
40.057,-0.643,0.779,0.205
40.067,-0.639,0.775,0.209
40.076,-0.641,0.773,0.205
40.086,-0.637,0.777,0.209
40.096,-0.641,0.781,0.207
40.106,-0.639,0.781,0.207
40.116,-0.639,0.781,0.207
40.126,-0.641,0.779,0.205
40.136,-0.639,0.777,0.205
40.146,-0.641,0.775,0.205
40.156,-0.639,0.777,0.207
40.166,-0.641,0.779,0.205
40.176,-0.639,0.781,0.207
40.186,-0.641,0.781,0.209
40.196,-0.639,0.779,0.207
40.206,-0.639,0.779,0.209
40.216,-0.635,0.777,0.207
40.226,-0.639,0.777,0.209
40.235,-0.641,0.777,0.205
40.245,-0.637,0.777,0.211
40.255,-0.639,0.781,0.211
40.265,-0.639,0.777,0.211
40.275,-0.639,0.773,0.211
40.285,-0.641,0.777,0.211
40.295,-0.641,0.775,0.213
40.305,-0.639,0.777,0.209
40.315,-0.641,0.773,0.211
40.325,-0.643,0.775,0.211
40.335,-0.643,0.777,0.215
40.345,-0.643,0.779,0.211
40.355,-0.641,0.777,0.211
40.365,-0.643,0.777,0.209
40.375,-0.643,0.777,0.213
40.384,-0.645,0.775,0.209
40.394,-0.645,0.777,0.211
40.404,-0.641,0.775,0.211
40.414,-0.639,0.777,0.211
40.424,-0.639,0.779,0.207
40.434,-0.637,0.777,0.213
40.444,-0.637,0.777,0.211
40.454,-0.641,0.777,0.213
40.464,-0.639,0.779,0.209
40.474,-0.637,0.777,0.207
40.484,-0.639,0.779,0.213
40.494,-0.643,0.779,0.209
40.504,-0.641,0.781,0.213
40.514,-0.645,0.779,0.211
40.524,-0.643,0.777,0.211
40.534,-0.646,0.779,0.209
40.543,-0.648,0.779,0.209
40.553,-0.646,0.777,0.207
40.563,-0.645,0.777,0.211
40.573,-0.645,0.773,0.213
40.583,-0.648,0.770,0.207
40.593,-0.645,0.771,0.209
40.603,-0.645,0.771,0.207
40.613,-0.645,0.773,0.207
40.623,-0.643,0.771,0.211
40.633,-0.648,0.773,0.211
40.643,-0.648,0.773,0.207
40.653,-0.648,0.771,0.213
40.663,-0.646,0.773,0.209
40.673,-0.645,0.773,0.211
40.683,-0.646,0.775,0.209
40.693,-0.646,0.773,0.209
40.702,-0.646,0.775,0.209
40.712,-0.645,0.777,0.207
40.722,-0.646,0.779,0.203
40.732,-0.645,0.777,0.209
40.742,-0.646,0.773,0.207
40.752,-0.646,0.775,0.213
40.762,-0.645,0.777,0.211
40.772,-0.643,0.777,0.211
40.782,-0.641,0.773,0.207
40.792,-0.641,0.770,0.207
40.802,-0.641,0.770,0.207
40.812,-0.645,0.779,0.207
40.822,-0.641,0.781,0.209
40.832,-0.641,0.781,0.209
40.842,-0.643,0.781,0.207
40.851,-0.643,0.779,0.209
40.861,-0.643,0.779,0.209
40.871,-0.643,0.777,0.205
40.881,-0.641,0.777,0.205
40.891,-0.639,0.777,0.203
40.901,-0.643,0.777,0.207
40.911,-0.645,0.779,0.207
40.921,-0.643,0.775,0.205
40.931,-0.645,0.773,0.207
40.941,-0.643,0.777,0.209
40.951,-0.643,0.773,0.207
40.961,-0.643,0.771,0.205
40.971,-0.645,0.773,0.207
40.981,-0.645,0.773,0.207
40.991,-0.643,0.777,0.209
41.001,-0.646,0.775,0.209
41.010,-0.646,0.775,0.207
41.020,-0.646,0.771,0.209
41.030,-0.643,0.775,0.211
41.040,-0.645,0.777,0.209
41.050,-0.645,0.773,0.211
41.060,-0.646,0.777,0.211
41.070,-0.645,0.775,0.213
41.080,-0.646,0.775,0.213
41.090,-0.646,0.775,0.211
41.100,-0.646,0.773,0.209
41.110,-0.650,0.773,0.211
41.120,-0.648,0.771,0.211
41.130,-0.646,0.773,0.211
41.140,-0.648,0.771,0.209
41.150,-0.650,0.771,0.211
41.160,-0.650,0.771,0.211
41.169,-0.652,0.773,0.213
41.179,-0.650,0.771,0.209
41.189,-0.654,0.773,0.211
41.199,-0.650,0.775,0.213
41.209,-0.652,0.773,0.213
41.219,-0.648,0.771,0.209
41.229,-0.648,0.770,0.209
41.239,-0.648,0.775,0.213
41.249,-0.648,0.777,0.209
41.259,-0.646,0.771,0.209
41.269,-0.646,0.771,0.209
41.279,-0.648,0.770,0.211
41.289,-0.646,0.773,0.207
41.299,-0.643,0.775,0.213
41.309,-0.646,0.777,0.213
41.319,-0.645,0.781,0.213
41.328,-0.643,0.777,0.207
41.338,-0.645,0.775,0.211
41.348,-0.650,0.775,0.211
41.358,-0.648,0.773,0.213
41.368,-0.648,0.775,0.213
41.378,-0.646,0.777,0.211
41.388,-0.645,0.771,0.213
41.398,-0.646,0.768,0.215
41.408,-0.646,0.768,0.211
41.418,-0.645,0.768,0.213
41.428,-0.650,0.770,0.209
41.438,-0.650,0.770,0.211
41.448,-0.648,0.768,0.209
41.458,-0.648,0.771,0.209
41.468,-0.648,0.771,0.209
41.477,-0.648,0.770,0.209
41.487,-0.650,0.773,0.209
41.497,-0.650,0.770,0.205
41.507,-0.650,0.775,0.207
41.517,-0.650,0.770,0.205
41.527,-0.650,0.773,0.203
41.537,-0.650,0.775,0.207
41.547,-0.648,0.777,0.205
41.557,-0.648,0.775,0.205
41.567,-0.650,0.773,0.201
41.577,-0.652,0.771,0.203
41.587,-0.648,0.773,0.207
41.597,-0.646,0.775,0.205
41.607,-0.646,0.771,0.203
41.617,-0.648,0.770,0.205
41.627,-0.650,0.773,0.203
41.636,-0.654,0.777,0.205
41.646,-0.654,0.775,0.203
41.656,-0.654,0.777,0.203
41.666,-0.654,0.773,0.209
41.676,-0.656,0.775,0.203
41.686,-0.654,0.771,0.203
41.696,-0.654,0.770,0.207
41.706,-0.650,0.770,0.207
41.716,-0.650,0.770,0.207
41.726,-0.652,0.770,0.207
41.736,-0.650,0.771,0.209
41.746,-0.648,0.771,0.209
41.756,-0.648,0.773,0.209
41.766,-0.648,0.771,0.207
41.776,-0.650,0.773,0.209
41.786,-0.650,0.773,0.207
41.795,-0.646,0.773,0.209
41.805,-0.650,0.770,0.207
41.815,-0.650,0.775,0.209
41.825,-0.650,0.773,0.207
41.835,-0.646,0.773,0.209
41.845,-0.648,0.775,0.209
41.855,-0.648,0.773,0.209
41.865,-0.646,0.773,0.207
41.875,-0.646,0.775,0.211
41.885,-0.648,0.773,0.209
41.895,-0.646,0.773,0.213
41.905,-0.646,0.773,0.211
41.915,-0.646,0.775,0.211
41.925,-0.645,0.773,0.211
41.935,-0.648,0.773,0.207
41.944,-0.650,0.771,0.215
41.954,-0.645,0.771,0.211
41.964,-0.648,0.771,0.209
41.974,-0.648,0.771,0.209
41.984,-0.645,0.770,0.213
41.994,-0.648,0.771,0.211
42.004,-0.650,0.773,0.213
42.014,-0.648,0.771,0.215
42.024,-0.652,0.773,0.213
42.034,-0.650,0.773,0.213
42.044,-0.648,0.771,0.211
42.054,-0.648,0.771,0.211
42.064,-0.650,0.771,0.213
42.074,-0.646,0.775,0.211
42.084,-0.646,0.770,0.209
42.094,-0.646,0.773,0.207
42.103,-0.646,0.770,0.211
42.113,-0.646,0.771,0.211
42.123,-0.643,0.773,0.211
42.133,-0.646,0.775,0.207
42.143,-0.646,0.779,0.211
42.153,-0.648,0.775,0.207
42.163,-0.648,0.775,0.207
42.173,-0.654,0.773,0.207
42.183,-0.654,0.777,0.207
42.193,-0.650,0.773,0.209
42.203,-0.648,0.775,0.211
42.213,-0.648,0.773,0.209
42.223,-0.648,0.766,0.207
42.233,-0.646,0.768,0.209
42.243,-0.646,0.768,0.205
42.253,-0.648,0.770,0.209
42.262,-0.646,0.771,0.209
42.272,-0.650,0.771,0.209
42.282,-0.646,0.771,0.205
42.292,-0.650,0.773,0.205
42.302,-0.648,0.771,0.207
42.312,-0.652,0.771,0.209
42.322,-0.650,0.770,0.207
42.332,-0.646,0.771,0.207
42.342,-0.648,0.771,0.207
42.352,-0.648,0.777,0.205
42.362,-0.650,0.773,0.207
42.372,-0.652,0.773,0.207
42.382,-0.654,0.775,0.205
42.392,-0.654,0.768,0.209
42.402,-0.652,0.770,0.211
42.412,-0.652,0.773,0.211
42.421,-0.648,0.771,0.211
42.431,-0.645,0.770,0.205
42.441,-0.648,0.768,0.207
42.451,-0.648,0.771,0.207
42.461,-0.650,0.775,0.209
42.471,-0.652,0.777,0.211
42.481,-0.652,0.775,0.213
42.491,-0.650,0.775,0.209
42.501,-0.648,0.773,0.209
42.511,-0.646,0.770,0.209
42.521,-0.648,0.768,0.209
42.531,-0.645,0.773,0.213
42.541,-0.646,0.770,0.205
42.551,-0.646,0.770,0.207
42.561,-0.646,0.770,0.209
42.570,-0.650,0.771,0.207
42.580,-0.646,0.773,0.209
42.590,-0.646,0.775,0.207
42.600,-0.646,0.777,0.209
42.610,-0.643,0.775,0.211
42.620,-0.648,0.771,0.207
42.630,-0.648,0.775,0.207
42.640,-0.650,0.773,0.205
42.650,-0.648,0.771,0.209
42.660,-0.648,0.771,0.211
42.670,-0.648,0.771,0.207
42.680,-0.650,0.773,0.205
42.690,-0.646,0.771,0.209
42.700,-0.646,0.773,0.211
42.710,-0.648,0.771,0.211
42.720,-0.648,0.771,0.209
42.729,-0.648,0.770,0.211
42.739,-0.648,0.770,0.213
42.749,-0.646,0.771,0.211
42.759,-0.650,0.773,0.211
42.769,-0.648,0.773,0.213
42.779,-0.652,0.768,0.211
42.789,-0.650,0.770,0.213
42.799,-0.652,0.768,0.213
42.809,-0.652,0.770,0.213
42.819,-0.650,0.766,0.215
42.829,-0.652,0.771,0.211
42.839,-0.650,0.770,0.211
42.849,-0.648,0.766,0.211
42.859,-0.646,0.768,0.211
42.869,-0.650,0.771,0.215
42.879,-0.652,0.775,0.213
42.888,-0.648,0.770,0.211
42.898,-0.650,0.771,0.207
42.908,-0.648,0.771,0.211
42.918,-0.650,0.771,0.209
42.928,-0.650,0.771,0.207
42.938,-0.650,0.773,0.205
42.948,-0.652,0.773,0.207
42.958,-0.648,0.775,0.209
42.968,-0.646,0.775,0.211
42.978,-0.646,0.775,0.205
42.988,-0.648,0.771,0.207
42.998,-0.648,0.770,0.205
43.008,-0.650,0.768,0.203
43.018,-0.648,0.771,0.207
43.028,-0.654,0.770,0.203
43.037,-0.656,0.771,0.211
43.047,-0.654,0.771,0.207
43.057,-0.658,0.770,0.207
43.067,-0.656,0.770,0.207
43.077,-0.656,0.770,0.207
43.087,-0.656,0.770,0.207
43.097,-0.654,0.768,0.209
43.107,-0.656,0.764,0.209
43.117,-0.656,0.766,0.207
43.127,-0.660,0.770,0.211
43.137,-0.656,0.768,0.209
43.147,-0.658,0.768,0.211
43.157,-0.656,0.764,0.211
43.167,-0.658,0.771,0.211
43.177,-0.654,0.773,0.213
43.187,-0.652,0.768,0.209
43.196,-0.654,0.762,0.211
43.206,-0.654,0.760,0.213
43.216,-0.658,0.766,0.213
43.226,-0.656,0.770,0.211
43.236,-0.656,0.766,0.213
43.246,-0.658,0.770,0.213
43.256,-0.658,0.770,0.211
43.266,-0.656,0.766,0.213
43.276,-0.662,0.766,0.211
43.286,-0.658,0.764,0.209
43.296,-0.654,0.766,0.211
43.306,-0.658,0.762,0.213
43.316,-0.654,0.766,0.211
43.326,-0.654,0.771,0.211
43.336,-0.656,0.770,0.215
43.346,-0.654,0.768,0.211
43.355,-0.654,0.768,0.209
43.365,-0.656,0.764,0.213
43.375,-0.654,0.768,0.213
43.385,-0.654,0.766,0.209
43.395,-0.654,0.766,0.213
43.405,-0.652,0.766,0.211
43.415,-0.656,0.764,0.209
43.425,-0.658,0.768,0.213
43.435,-0.656,0.766,0.211
43.445,-0.658,0.768,0.211
43.455,-0.658,0.766,0.211
43.465,-0.662,0.766,0.207
43.475,-0.656,0.766,0.209
43.485,-0.660,0.766,0.211
43.495,-0.658,0.768,0.207
43.505,-0.658,0.764,0.209
43.514,-0.658,0.764,0.213
43.524,-0.658,0.766,0.209
43.534,-0.656,0.766,0.209
43.544,-0.656,0.766,0.209
43.554,-0.660,0.764,0.207
43.564,-0.660,0.768,0.209
43.574,-0.660,0.766,0.209
43.584,-0.660,0.764,0.211
43.594,-0.658,0.766,0.209
43.604,-0.660,0.766,0.211
43.614,-0.660,0.766,0.209
43.624,-0.658,0.764,0.211
43.634,-0.658,0.766,0.211
43.644,-0.654,0.762,0.209
43.654,-0.656,0.764,0.213
43.663,-0.656,0.764,0.213
43.673,-0.650,0.768,0.215
43.683,-0.652,0.764,0.217
43.693,-0.654,0.770,0.217
43.703,-0.654,0.768,0.215
43.713,-0.654,0.768,0.213
43.723,-0.660,0.766,0.213
43.733,-0.664,0.766,0.213
43.743,-0.662,0.762,0.219
43.753,-0.658,0.764,0.217
43.763,-0.660,0.762,0.219
43.773,-0.660,0.760,0.217
43.783,-0.658,0.760,0.217
43.793,-0.662,0.756,0.217
43.803,-0.662,0.758,0.219
43.813,-0.660,0.762,0.219
43.822,-0.664,0.762,0.215
43.832,-0.664,0.760,0.213
43.842,-0.664,0.758,0.215
43.852,-0.666,0.762,0.213
43.862,-0.668,0.762,0.215
43.872,-0.666,0.764,0.211
43.882,-0.670,0.762,0.213
43.892,-0.668,0.760,0.209
43.902,-0.668,0.762,0.209
43.912,-0.666,0.760,0.207
43.922,-0.666,0.760,0.209
43.932,-0.668,0.760,0.207
43.942,-0.670,0.760,0.205
43.952,-0.666,0.758,0.203
43.962,-0.666,0.758,0.205
43.972,-0.668,0.764,0.201
43.981,-0.662,0.762,0.205
43.991,-0.660,0.760,0.199
44.001,-0.658,0.760,0.201
44.011,-0.664,0.764,0.199
44.021,-0.666,0.768,0.199
44.031,-0.664,0.771,0.201
44.041,-0.662,0.771,0.199
44.051,-0.664,0.770,0.203
44.061,-0.664,0.770,0.199
44.071,-0.662,0.766,0.197
44.081,-0.660,0.764,0.201
44.091,-0.658,0.768,0.201
44.101,-0.660,0.762,0.203
44.111,-0.658,0.766,0.203
44.121,-0.658,0.766,0.201
44.130,-0.660,0.764,0.201
44.140,-0.658,0.768,0.203
44.150,-0.658,0.766,0.207
44.160,-0.658,0.764,0.207
44.170,-0.658,0.762,0.205
44.180,-0.662,0.766,0.205
44.190,-0.660,0.764,0.203
44.200,-0.658,0.766,0.207
44.210,-0.660,0.764,0.203
44.220,-0.660,0.768,0.205
44.230,-0.662,0.766,0.207
44.240,-0.664,0.766,0.209
44.250,-0.664,0.764,0.207
44.260,-0.658,0.764,0.211
44.270,-0.656,0.764,0.211
44.280,-0.662,0.762,0.211
44.289,-0.664,0.760,0.213
44.299,-0.660,0.762,0.213
44.309,-0.664,0.762,0.211
44.319,-0.662,0.762,0.211
44.329,-0.664,0.762,0.213
44.339,-0.660,0.760,0.215
44.349,-0.660,0.760,0.213
44.359,-0.662,0.760,0.213
44.369,-0.666,0.762,0.215
44.379,-0.668,0.762,0.213
44.389,-0.662,0.764,0.213
44.399,-0.666,0.762,0.213
44.409,-0.664,0.762,0.211
44.419,-0.664,0.762,0.211
44.429,-0.666,0.760,0.213
44.439,-0.662,0.766,0.213
44.448,-0.660,0.760,0.215
44.458,-0.664,0.758,0.215
44.468,-0.660,0.764,0.217
44.478,-0.658,0.760,0.215
44.488,-0.660,0.760,0.211
44.498,-0.662,0.762,0.209
44.508,-0.664,0.760,0.213
44.518,-0.660,0.756,0.215
44.528,-0.660,0.764,0.215
44.538,-0.662,0.766,0.213
44.548,-0.664,0.766,0.213
44.558,-0.662,0.762,0.209
44.568,-0.664,0.762,0.209
44.578,-0.672,0.764,0.211
44.588,-0.668,0.766,0.207
44.598,-0.666,0.766,0.209
44.607,-0.666,0.762,0.209
44.617,-0.664,0.760,0.209
44.627,-0.668,0.756,0.205
44.637,-0.664,0.756,0.207
44.647,-0.664,0.758,0.207
44.657,-0.660,0.762,0.207
44.667,-0.664,0.762,0.209
44.677,-0.666,0.760,0.205
44.687,-0.662,0.764,0.209
44.697,-0.660,0.764,0.207
44.707,-0.660,0.762,0.205
44.717,-0.666,0.766,0.207
44.727,-0.662,0.766,0.209
44.737,-0.664,0.766,0.207
44.747,-0.664,0.766,0.203
44.756,-0.664,0.764,0.205
44.766,-0.664,0.766,0.203
44.776,-0.666,0.762,0.205
44.786,-0.662,0.762,0.205
44.796,-0.662,0.762,0.207
44.806,-0.664,0.764,0.207
44.816,-0.658,0.766,0.207
44.826,-0.656,0.760,0.203
44.836,-0.660,0.760,0.203
44.846,-0.664,0.764,0.205
44.856,-0.664,0.764,0.209
44.866,-0.660,0.768,0.209
44.876,-0.660,0.771,0.209
44.886,-0.662,0.770,0.209
44.896,-0.662,0.768,0.209
44.906,-0.662,0.764,0.203
44.915,-0.658,0.764,0.209
44.925,-0.656,0.762,0.203
44.935,-0.656,0.766,0.207
44.945,-0.656,0.764,0.207
44.955,-0.652,0.766,0.205
44.965,-0.656,0.766,0.209
44.975,-0.658,0.768,0.207
44.985,-0.654,0.768,0.207
44.995,-0.654,0.770,0.207
45.005,-0.654,0.764,0.209
45.015,-0.656,0.766,0.209
45.025,-0.654,0.771,0.207
45.035,-0.656,0.770,0.205
45.045,-0.654,0.770,0.205
45.055,-0.656,0.770,0.209
45.065,-0.658,0.766,0.205
45.074,-0.658,0.768,0.205
45.084,-0.658,0.768,0.205
45.094,-0.656,0.770,0.211
45.104,-0.656,0.766,0.209
45.114,-0.658,0.766,0.211
45.124,-0.660,0.766,0.209
45.134,-0.656,0.762,0.209
45.144,-0.658,0.764,0.209
45.154,-0.662,0.764,0.207
45.164,-0.662,0.762,0.209
45.174,-0.664,0.764,0.207
45.184,-0.662,0.760,0.209
45.194,-0.662,0.764,0.209
45.204,-0.662,0.762,0.209
45.214,-0.662,0.766,0.207
45.224,-0.664,0.766,0.209
45.233,-0.666,0.768,0.207
45.243,-0.662,0.764,0.213
45.253,-0.662,0.764,0.209
45.263,-0.660,0.764,0.207
45.273,-0.660,0.766,0.207
45.283,-0.662,0.766,0.209
45.293,-0.658,0.764,0.209
45.303,-0.656,0.762,0.205
45.313,-0.660,0.762,0.211
45.323,-0.662,0.768,0.211
45.333,-0.654,0.766,0.207
45.343,-0.656,0.768,0.207
45.353,-0.658,0.771,0.209
45.363,-0.658,0.768,0.205
45.373,-0.662,0.770,0.203
45.382,-0.662,0.764,0.207
45.392,-0.664,0.771,0.209
45.402,-0.662,0.771,0.209
45.412,-0.658,0.768,0.209
45.422,-0.654,0.766,0.205
45.432,-0.656,0.766,0.209
45.442,-0.656,0.762,0.205
45.452,-0.658,0.758,0.207
45.462,-0.658,0.762,0.205
45.472,-0.656,0.764,0.205
45.482,-0.658,0.768,0.207
45.492,-0.660,0.768,0.209
45.502,-0.658,0.768,0.207
45.512,-0.660,0.768,0.207
45.522,-0.660,0.766,0.207
45.532,-0.658,0.764,0.205
45.541,-0.658,0.766,0.205
45.551,-0.658,0.766,0.209
45.561,-0.658,0.766,0.211
45.571,-0.658,0.770,0.209
45.581,-0.660,0.770,0.209
45.591,-0.660,0.766,0.209
45.601,-0.656,0.760,0.209
45.611,-0.662,0.766,0.209
45.621,-0.660,0.768,0.209
45.631,-0.656,0.762,0.209
45.641,-0.652,0.760,0.205
45.651,-0.658,0.762,0.207
45.661,-0.658,0.770,0.207
45.671,-0.660,0.771,0.209
45.681,-0.658,0.771,0.211
45.691,-0.658,0.770,0.209
45.700,-0.658,0.770,0.207
45.710,-0.656,0.764,0.205
45.720,-0.660,0.768,0.209
45.730,-0.654,0.764,0.205
45.740,-0.656,0.766,0.207
45.750,-0.656,0.766,0.207
45.760,-0.656,0.766,0.205
45.770,-0.654,0.768,0.209
45.780,-0.654,0.768,0.209
45.790,-0.654,0.768,0.205
45.800,-0.652,0.770,0.205
45.810,-0.654,0.766,0.207
45.820,-0.652,0.768,0.207
45.830,-0.656,0.766,0.205
45.840,-0.654,0.768,0.207
45.849,-0.658,0.768,0.205
45.859,-0.658,0.768,0.207
45.869,-0.658,0.770,0.207
45.879,-0.656,0.768,0.213
45.889,-0.656,0.766,0.209
45.899,-0.654,0.766,0.211
45.909,-0.656,0.764,0.209
45.919,-0.658,0.768,0.211
45.929,-0.656,0.764,0.209
45.939,-0.658,0.768,0.213
45.949,-0.660,0.764,0.211
45.959,-0.660,0.766,0.213
45.969,-0.662,0.766,0.211
45.979,-0.662,0.768,0.213
45.989,-0.662,0.764,0.213
45.999,-0.662,0.766,0.211
46.008,-0.658,0.764,0.213
46.018,-0.658,0.762,0.213
46.028,-0.660,0.762,0.211
46.038,-0.658,0.768,0.211
46.048,-0.658,0.764,0.213
46.058,-0.660,0.760,0.215
46.068,-0.660,0.764,0.217
46.078,-0.660,0.764,0.211
46.088,-0.656,0.764,0.211
46.098,-0.662,0.764,0.209
46.108,-0.662,0.766,0.213
46.118,-0.660,0.768,0.205
46.128,-0.660,0.768,0.209
46.138,-0.662,0.766,0.207
46.148,-0.664,0.768,0.211
46.158,-0.662,0.770,0.209
46.167,-0.658,0.766,0.209
46.177,-0.658,0.766,0.209
46.187,-0.662,0.766,0.207
46.197,-0.658,0.762,0.211
46.207,-0.658,0.762,0.211
46.217,-0.662,0.762,0.211
46.227,-0.660,0.764,0.209
46.237,-0.656,0.766,0.207
46.247,-0.662,0.764,0.207
46.257,-0.658,0.766,0.207
46.267,-0.662,0.762,0.207
46.277,-0.658,0.762,0.207
46.287,-0.658,0.766,0.205
46.297,-0.660,0.764,0.207
46.307,-0.660,0.764,0.207
46.317,-0.658,0.768,0.207
46.326,-0.662,0.766,0.207
46.336,-0.664,0.770,0.209
46.346,-0.662,0.768,0.207
46.356,-0.662,0.762,0.207
46.366,-0.666,0.766,0.211
46.376,-0.664,0.768,0.209
46.386,-0.658,0.762,0.209
46.396,-0.660,0.756,0.207
46.406,-0.664,0.756,0.207
46.416,-0.664,0.758,0.209
46.426,-0.664,0.762,0.209
46.436,-0.664,0.766,0.211
46.446,-0.662,0.764,0.213
46.456,-0.666,0.764,0.211
46.466,-0.668,0.762,0.213
46.475,-0.668,0.760,0.213
46.485,-0.664,0.762,0.209
46.495,-0.666,0.764,0.207
46.505,-0.664,0.762,0.209
46.515,-0.664,0.762,0.211
46.525,-0.662,0.762,0.211
46.535,-0.662,0.766,0.213
46.545,-0.662,0.762,0.213
46.555,-0.662,0.762,0.215
46.565,-0.660,0.760,0.215
46.575,-0.662,0.762,0.211
46.585,-0.662,0.762,0.211
46.595,-0.662,0.764,0.211
46.605,-0.662,0.762,0.213
46.615,-0.664,0.760,0.211
46.625,-0.666,0.762,0.215
46.634,-0.666,0.760,0.211
46.644,-0.666,0.762,0.213
46.654,-0.666,0.760,0.211
46.664,-0.666,0.760,0.211
46.674,-0.666,0.762,0.215
46.684,-0.666,0.760,0.217
46.694,-0.668,0.760,0.211
46.704,-0.668,0.758,0.215
46.714,-0.664,0.756,0.215
46.724,-0.666,0.756,0.217
46.734,-0.666,0.756,0.213
46.744,-0.666,0.760,0.215
46.754,-0.664,0.758,0.213
46.764,-0.668,0.758,0.213
46.774,-0.670,0.758,0.211
46.784,-0.668,0.760,0.213
46.793,-0.670,0.762,0.211
46.803,-0.666,0.760,0.215
46.813,-0.668,0.760,0.213
46.823,-0.666,0.764,0.213
46.833,-0.666,0.760,0.213
46.843,-0.660,0.762,0.211
46.853,-0.662,0.760,0.211
46.863,-0.658,0.762,0.209
46.873,-0.654,0.760,0.209
46.883,-0.656,0.762,0.209
46.893,-0.662,0.766,0.213
46.903,-0.658,0.766,0.211
46.913,-0.660,0.762,0.207
46.923,-0.664,0.764,0.209
46.933,-0.666,0.764,0.213
46.942,-0.668,0.766,0.213
46.952,-0.666,0.764,0.211
46.962,-0.668,0.762,0.213
46.972,-0.668,0.760,0.211
46.982,-0.670,0.756,0.209
46.992,-0.668,0.754,0.207
47.002,-0.666,0.758,0.209
47.012,-0.666,0.758,0.211
47.022,-0.664,0.760,0.213
47.032,-0.664,0.760,0.211
47.042,-0.664,0.760,0.209
47.052,-0.666,0.760,0.211
47.062,-0.664,0.760,0.211
47.072,-0.666,0.762,0.211
47.082,-0.664,0.762,0.209
47.092,-0.666,0.764,0.209
47.101,-0.664,0.762,0.213
47.111,-0.666,0.762,0.207
47.121,-0.666,0.764,0.209
47.131,-0.668,0.762,0.211
47.141,-0.670,0.762,0.205
47.151,-0.664,0.760,0.207
47.161,-0.668,0.762,0.209
47.171,-0.662,0.764,0.213
47.181,-0.656,0.758,0.207
47.191,-0.660,0.758,0.205
47.201,-0.662,0.760,0.209
47.211,-0.664,0.762,0.209
47.221,-0.664,0.768,0.211
47.231,-0.664,0.766,0.211
47.241,-0.668,0.766,0.209
47.251,-0.666,0.764,0.211
47.260,-0.666,0.762,0.213
47.270,-0.666,0.760,0.209
47.280,-0.666,0.760,0.207
47.290,-0.664,0.762,0.209
47.300,-0.664,0.760,0.211
47.310,-0.662,0.760,0.209
47.320,-0.662,0.758,0.209
47.330,-0.664,0.760,0.209
47.340,-0.666,0.760,0.209
47.350,-0.666,0.760,0.209
47.360,-0.664,0.762,0.207
47.370,-0.664,0.762,0.209
47.380,-0.664,0.764,0.211
47.390,-0.664,0.760,0.207
47.400,-0.666,0.766,0.211
47.410,-0.662,0.764,0.211
47.419,-0.668,0.760,0.207
47.429,-0.666,0.762,0.211
47.439,-0.668,0.758,0.211
47.449,-0.664,0.756,0.207
47.459,-0.662,0.760,0.207
47.469,-0.668,0.760,0.211
47.479,-0.666,0.760,0.213
47.489,-0.666,0.760,0.209
47.499,-0.664,0.762,0.211
47.509,-0.664,0.764,0.213
47.519,-0.664,0.760,0.211
47.529,-0.664,0.762,0.213
47.539,-0.664,0.760,0.211
47.549,-0.664,0.760,0.211
47.559,-0.668,0.758,0.211
47.568,-0.664,0.756,0.211
47.578,-0.670,0.758,0.211
47.588,-0.668,0.758,0.211
47.598,-0.672,0.758,0.209
47.608,-0.670,0.762,0.213
47.618,-0.670,0.762,0.213
47.628,-0.666,0.758,0.211
47.638,-0.668,0.760,0.213
47.648,-0.662,0.760,0.211
47.658,-0.662,0.764,0.213
47.668,-0.662,0.762,0.209
47.678,-0.662,0.760,0.213
47.688,-0.660,0.762,0.213
47.698,-0.658,0.758,0.213
47.708,-0.660,0.760,0.213
47.718,-0.662,0.764,0.211
47.727,-0.662,0.766,0.213
47.737,-0.664,0.760,0.213
47.747,-0.664,0.758,0.209
47.757,-0.668,0.758,0.209
47.767,-0.670,0.762,0.213
47.777,-0.668,0.764,0.215
47.787,-0.666,0.764,0.213
47.797,-0.668,0.760,0.213
47.807,-0.668,0.758,0.213
47.817,-0.672,0.756,0.211
47.827,-0.670,0.754,0.213
47.837,-0.668,0.758,0.209
47.847,-0.666,0.758,0.211
47.857,-0.668,0.760,0.211
47.867,-0.666,0.760,0.209
47.877,-0.668,0.760,0.211
47.886,-0.664,0.758,0.211
47.896,-0.666,0.760,0.213
47.906,-0.666,0.760,0.211
47.916,-0.666,0.760,0.209
47.926,-0.666,0.760,0.211
47.936,-0.668,0.764,0.211
47.946,-0.666,0.764,0.207
47.956,-0.670,0.762,0.209
47.966,-0.670,0.764,0.207
47.976,-0.670,0.760,0.211
47.986,-0.668,0.754,0.211
47.996,-0.666,0.760,0.211
48.006,-0.660,0.758,0.211
48.016,-0.658,0.754,0.207
48.026,-0.660,0.756,0.211
48.035,-0.666,0.760,0.213
48.045,-0.668,0.764,0.213
48.055,-0.668,0.768,0.211
48.065,-0.668,0.766,0.209
48.075,-0.668,0.766,0.211
48.085,-0.670,0.762,0.213
48.095,-0.668,0.760,0.213
48.105,-0.668,0.758,0.211
48.115,-0.666,0.754,0.213
48.125,-0.668,0.754,0.211
48.135,-0.664,0.754,0.211
48.145,-0.662,0.760,0.211
48.155,-0.666,0.760,0.213
48.165,-0.664,0.764,0.211
48.175,-0.664,0.762,0.211
48.185,-0.664,0.760,0.213
48.194,-0.666,0.762,0.209
48.204,-0.662,0.764,0.207
48.214,-0.666,0.760,0.207
48.224,-0.666,0.762,0.205
48.234,-0.664,0.760,0.207
48.244,-0.666,0.760,0.207
48.254,-0.668,0.762,0.207
48.264,-0.666,0.764,0.205
48.274,-0.668,0.764,0.203
48.284,-0.666,0.760,0.207
48.294,-0.666,0.762,0.207
48.304,-0.668,0.760,0.207
48.314,-0.664,0.760,0.203
48.324,-0.670,0.758,0.211
48.334,-0.664,0.760,0.209
48.344,-0.670,0.760,0.205
48.353,-0.670,0.760,0.209
48.363,-0.668,0.758,0.209
48.373,-0.666,0.760,0.207
48.383,-0.670,0.758,0.209
48.393,-0.668,0.762,0.207
48.403,-0.666,0.760,0.211
48.413,-0.664,0.760,0.211
48.423,-0.666,0.762,0.207
48.433,-0.666,0.764,0.207
48.443,-0.664,0.760,0.207
48.453,-0.666,0.760,0.211
48.463,-0.666,0.758,0.213
48.473,-0.664,0.764,0.209
48.483,-0.664,0.762,0.207
48.493,-0.664,0.764,0.209
48.503,-0.664,0.760,0.209
48.512,-0.666,0.760,0.209
48.522,-0.666,0.762,0.207
48.532,-0.662,0.760,0.207
48.542,-0.660,0.766,0.205
48.552,-0.658,0.762,0.207
48.562,-0.660,0.760,0.207
48.572,-0.662,0.756,0.209
48.582,-0.662,0.762,0.209
48.592,-0.660,0.764,0.211
48.602,-0.662,0.764,0.207
48.612,-0.664,0.766,0.211
48.622,-0.664,0.766,0.209
48.632,-0.662,0.762,0.207
48.642,-0.668,0.762,0.209
48.652,-0.668,0.764,0.213
48.661,-0.668,0.766,0.215
48.671,-0.666,0.764,0.215
48.681,-0.662,0.764,0.213
48.691,-0.664,0.758,0.211
48.701,-0.666,0.756,0.213
48.711,-0.662,0.754,0.213
48.721,-0.660,0.758,0.211
48.731,-0.664,0.758,0.211
48.741,-0.668,0.760,0.211
48.751,-0.668,0.762,0.211
48.761,-0.664,0.762,0.209
48.771,-0.662,0.760,0.217
48.781,-0.666,0.762,0.213
48.791,-0.666,0.760,0.207
48.801,-0.664,0.760,0.209
48.811,-0.664,0.760,0.211
48.820,-0.668,0.760,0.211
48.830,-0.664,0.764,0.209
48.840,-0.662,0.762,0.207
48.850,-0.664,0.764,0.209
48.860,-0.664,0.758,0.213
48.870,-0.660,0.756,0.211
48.880,-0.666,0.766,0.211
48.890,-0.658,0.764,0.207
48.900,-0.660,0.758,0.209
48.910,-0.658,0.758,0.203
48.920,-0.666,0.762,0.209
48.930,-0.664,0.766,0.207
48.940,-0.662,0.768,0.211
48.950,-0.664,0.766,0.209
48.960,-0.666,0.766,0.209
48.970,-0.664,0.766,0.205
48.979,-0.664,0.766,0.207
48.989,-0.662,0.762,0.209
48.999,-0.662,0.760,0.205
49.009,-0.658,0.762,0.207
49.019,-0.654,0.764,0.205
49.029,-0.658,0.764,0.203
49.039,-0.662,0.766,0.205
49.049,-0.660,0.766,0.205
49.059,-0.660,0.768,0.203
49.069,-0.660,0.768,0.201
49.079,-0.660,0.766,0.201
49.089,-0.660,0.766,0.199
49.099,-0.660,0.768,0.199
49.109,-0.660,0.770,0.203
49.119,-0.662,0.770,0.201
49.128,-0.662,0.770,0.201
49.138,-0.664,0.770,0.201
49.148,-0.664,0.770,0.203
49.158,-0.666,0.764,0.203
49.168,-0.668,0.764,0.205
49.178,-0.668,0.760,0.209
49.188,-0.666,0.762,0.209
49.198,-0.666,0.760,0.205
49.208,-0.664,0.758,0.211
49.218,-0.668,0.760,0.213
49.228,-0.664,0.758,0.213
49.238,-0.664,0.758,0.213
49.248,-0.664,0.760,0.215
49.258,-0.664,0.760,0.215
49.268,-0.668,0.758,0.219
49.278,-0.664,0.760,0.215
49.287,-0.664,0.762,0.217
49.297,-0.662,0.762,0.219
49.307,-0.662,0.760,0.219
49.317,-0.662,0.760,0.219
49.327,-0.660,0.758,0.221
49.337,-0.658,0.760,0.219
49.347,-0.658,0.762,0.221
49.357,-0.656,0.758,0.213
49.367,-0.662,0.758,0.219
49.377,-0.660,0.762,0.221
49.387,-0.658,0.764,0.221
49.397,-0.656,0.766,0.217
49.407,-0.660,0.762,0.217
49.417,-0.658,0.766,0.217
49.427,-0.658,0.768,0.217
49.437,-0.658,0.762,0.215
49.446,-0.660,0.766,0.217
49.456,-0.662,0.760,0.221
49.466,-0.660,0.762,0.221
49.476,-0.662,0.766,0.217
49.486,-0.660,0.762,0.225
49.496,-0.662,0.758,0.219
49.506,-0.664,0.756,0.221
49.516,-0.660,0.758,0.223
49.526,-0.662,0.758,0.221
49.536,-0.660,0.760,0.221
49.546,-0.664,0.758,0.217
49.556,-0.664,0.762,0.217
49.566,-0.664,0.758,0.217
49.576,-0.664,0.758,0.217
49.586,-0.668,0.760,0.217
49.596,-0.668,0.758,0.217
49.605,-0.668,0.758,0.217
49.615,-0.666,0.760,0.219
49.625,-0.668,0.760,0.217
49.635,-0.662,0.760,0.215
49.645,-0.666,0.762,0.217
49.655,-0.666,0.758,0.213
49.665,-0.664,0.758,0.215
49.675,-0.666,0.766,0.215
49.685,-0.664,0.764,0.217
49.695,-0.660,0.764,0.211
49.705,-0.660,0.756,0.209
49.715,-0.664,0.758,0.207
49.725,-0.666,0.762,0.211
49.735,-0.664,0.766,0.211
49.745,-0.664,0.766,0.209
49.754,-0.666,0.764,0.207
49.764,-0.668,0.762,0.211
49.774,-0.664,0.760,0.209
49.784,-0.668,0.760,0.209
49.794,-0.664,0.760,0.203
49.804,-0.664,0.762,0.207
49.814,-0.664,0.762,0.207
49.824,-0.662,0.764,0.209
49.834,-0.666,0.764,0.207
49.844,-0.666,0.762,0.211
49.854,-0.664,0.762,0.207
49.864,-0.664,0.762,0.209
49.874,-0.662,0.764,0.209
49.884,-0.664,0.760,0.205
49.894,-0.662,0.762,0.207
49.904,-0.668,0.764,0.205
49.913,-0.666,0.762,0.209
49.923,-0.664,0.766,0.209
49.933,-0.668,0.764,0.209
49.943,-0.666,0.764,0.209
49.953,-0.668,0.764,0.213
49.963,-0.664,0.760,0.209
49.973,-0.666,0.762,0.211
49.983,-0.670,0.758,0.213
49.993,-0.668,0.760,0.215
50.003,-0.668,0.758,0.211
50.013,-0.666,0.760,0.213
50.023,-0.666,0.762,0.213
50.033,-0.664,0.756,0.213
50.043,-0.668,0.760,0.213
50.053,-0.670,0.760,0.213
50.063,-0.668,0.758,0.213
50.072,-0.670,0.760,0.215
50.082,-0.670,0.758,0.211
50.092,-0.670,0.758,0.211
50.102,-0.668,0.760,0.213
50.112,-0.668,0.758,0.211
50.122,-0.668,0.760,0.215
50.132,-0.664,0.758,0.215
50.142,-0.666,0.760,0.213
50.152,-0.662,0.758,0.215
50.162,-0.664,0.758,0.213
50.172,-0.662,0.758,0.215
50.182,-0.664,0.754,0.213
50.192,-0.660,0.758,0.215
50.202,-0.666,0.760,0.217
50.212,-0.664,0.764,0.215
50.222,-0.666,0.764,0.215
50.231,-0.668,0.758,0.215
50.241,-0.670,0.760,0.219
50.251,-0.670,0.760,0.215
50.261,-0.670,0.762,0.215
50.271,-0.668,0.762,0.215
50.281,-0.664,0.758,0.213
50.291,-0.666,0.756,0.213
50.301,-0.668,0.756,0.213
50.311,-0.670,0.756,0.213
50.321,-0.668,0.758,0.211
50.331,-0.668,0.760,0.215
50.341,-0.668,0.760,0.211
50.351,-0.666,0.760,0.213
50.361,-0.666,0.760,0.211
50.371,-0.666,0.758,0.213
50.380,-0.668,0.754,0.213
50.390,-0.662,0.760,0.211
50.400,-0.666,0.760,0.211
50.410,-0.668,0.760,0.209
50.420,-0.668,0.760,0.207
50.430,-0.668,0.762,0.209
50.440,-0.666,0.764,0.209
50.450,-0.668,0.760,0.211
50.460,-0.670,0.758,0.209
50.470,-0.668,0.756,0.207
50.480,-0.668,0.762,0.207
50.490,-0.662,0.760,0.211
50.500,-0.662,0.756,0.209
50.510,-0.662,0.758,0.207
50.520,-0.664,0.758,0.209
50.530,-0.666,0.762,0.209
50.539,-0.666,0.764,0.211
