df_hash,22ZHK4.BUJ0BH
device,HZ2X61
project_hash,29R7
project_name,istanbul_aydin_university
person_hash,29R7.9UES
person_label,V95
date_time_start,2025-11-04_18-12-10.948000_+03
date_time_start_unix,1762265530.948
date_time_end,2025-11-04_18-20-27.976000_+03
length_difference_noticed,no

time,acc_x,acc_y,acc_z
4.643,-0.299,0.943,-0.127
4.653,-0.301,0.943,-0.129
4.663,-0.299,0.943,-0.129
4.673,-0.299,0.943,-0.129
4.683,-0.301,0.945,-0.127
4.693,-0.297,0.945,-0.133
4.703,-0.297,0.943,-0.127
4.713,-0.297,0.943,-0.131
4.723,-0.297,0.943,-0.129
4.733,-0.295,0.941,-0.129
4.743,-0.295,0.941,-0.127
4.753,-0.295,0.941,-0.129
4.763,-0.299,0.943,-0.127
4.773,-0.303,0.947,-0.129
4.782,-0.303,0.943,-0.129
4.792,-0.303,0.945,-0.129
4.802,-0.301,0.945,-0.127
4.812,-0.303,0.947,-0.129
4.822,-0.305,0.943,-0.131
4.832,-0.299,0.945,-0.125
4.842,-0.301,0.945,-0.125
4.852,-0.305,0.943,-0.127
4.862,-0.305,0.945,-0.127
4.872,-0.307,0.941,-0.129
4.882,-0.307,0.943,-0.125
4.892,-0.307,0.938,-0.125
4.902,-0.309,0.939,-0.127
4.912,-0.309,0.943,-0.127
4.921,-0.309,0.939,-0.123
4.931,-0.309,0.939,-0.123
4.941,-0.312,0.943,-0.123
4.951,-0.311,0.943,-0.125
4.961,-0.305,0.945,-0.125
4.971,-0.305,0.945,-0.123
4.981,-0.307,0.949,-0.125
4.991,-0.307,0.938,-0.127
5.001,-0.311,0.936,-0.129
5.011,-0.312,0.938,-0.125
5.021,-0.312,0.947,-0.127
5.031,-0.312,0.947,-0.127
5.041,-0.309,0.947,-0.127
5.051,-0.309,0.943,-0.123
5.060,-0.305,0.943,-0.123
5.070,-0.305,0.943,-0.119
5.080,-0.303,0.941,-0.119
5.090,-0.303,0.938,-0.123
5.100,-0.307,0.939,-0.123
5.110,-0.320,0.941,-0.125
5.120,-0.318,0.939,-0.123
5.130,-0.312,0.939,-0.123
5.140,-0.314,0.938,-0.123
5.150,-0.316,0.943,-0.119
5.160,-0.318,0.943,-0.121
5.170,-0.318,0.939,-0.119
5.180,-0.311,0.936,-0.117
5.190,-0.312,0.939,-0.117
5.199,-0.314,0.938,-0.117
5.209,-0.320,0.939,-0.113
5.219,-0.314,0.943,-0.119
5.229,-0.312,0.945,-0.115
5.239,-0.311,0.943,-0.121
5.249,-0.311,0.938,-0.117
5.259,-0.312,0.934,-0.119
5.269,-0.312,0.938,-0.119
5.279,-0.314,0.941,-0.119
5.289,-0.314,0.943,-0.117
5.299,-0.314,0.943,-0.119
5.309,-0.314,0.943,-0.117
5.319,-0.318,0.941,-0.117
5.329,-0.312,0.941,-0.119
5.339,-0.314,0.939,-0.115
5.348,-0.316,0.941,-0.119
5.358,-0.316,0.941,-0.119
5.368,-0.318,0.939,-0.119
5.378,-0.318,0.939,-0.121
5.388,-0.318,0.939,-0.123
5.398,-0.318,0.939,-0.117
5.408,-0.314,0.943,-0.121
5.418,-0.312,0.939,-0.123
5.428,-0.314,0.945,-0.119
5.438,-0.314,0.941,-0.123
5.448,-0.312,0.943,-0.123
5.458,-0.314,0.941,-0.121
5.468,-0.312,0.941,-0.123
5.478,-0.311,0.939,-0.121
5.487,-0.314,0.941,-0.123
5.497,-0.311,0.938,-0.125
5.507,-0.312,0.939,-0.125
5.517,-0.311,0.938,-0.123
5.527,-0.312,0.941,-0.121
5.537,-0.311,0.939,-0.123
5.547,-0.314,0.939,-0.123
5.557,-0.314,0.941,-0.123
5.567,-0.316,0.939,-0.123
5.577,-0.314,0.945,-0.121
5.587,-0.316,0.939,-0.125
5.597,-0.314,0.941,-0.125
5.607,-0.316,0.939,-0.121
5.617,-0.314,0.939,-0.127
5.626,-0.316,0.934,-0.125
5.636,-0.318,0.934,-0.127
5.646,-0.320,0.936,-0.125
5.656,-0.322,0.941,-0.129
5.666,-0.320,0.941,-0.127
5.676,-0.320,0.939,-0.131
5.686,-0.320,0.941,-0.129
5.696,-0.320,0.938,-0.131
5.706,-0.318,0.939,-0.129
5.716,-0.316,0.936,-0.129
5.726,-0.316,0.934,-0.131
5.736,-0.318,0.936,-0.125
5.746,-0.311,0.938,-0.127
5.756,-0.312,0.941,-0.127
5.765,-0.314,0.941,-0.129
5.775,-0.314,0.939,-0.129
5.785,-0.314,0.930,-0.133
5.795,-0.318,0.928,-0.129
5.805,-0.324,0.932,-0.133
5.815,-0.324,0.934,-0.131
5.825,-0.330,0.936,-0.127
5.835,-0.332,0.938,-0.131
5.845,-0.330,0.934,-0.129
5.855,-0.328,0.930,-0.131
5.865,-0.334,0.928,-0.131
5.875,-0.334,0.926,-0.133
5.885,-0.332,0.928,-0.135
5.895,-0.334,0.924,-0.133
5.905,-0.330,0.922,-0.133
5.914,-0.328,0.926,-0.139
5.924,-0.334,0.932,-0.137
5.934,-0.332,0.939,-0.143
5.944,-0.334,0.939,-0.141
5.954,-0.332,0.941,-0.143
5.964,-0.328,0.941,-0.143
5.974,-0.330,0.938,-0.146
5.984,-0.328,0.934,-0.143
5.994,-0.328,0.934,-0.145
6.004,-0.326,0.938,-0.145
6.014,-0.322,0.943,-0.141
6.024,-0.320,0.945,-0.141
6.034,-0.320,0.945,-0.141
6.044,-0.322,0.941,-0.143
6.053,-0.322,0.938,-0.143
6.063,-0.324,0.939,-0.143
6.073,-0.326,0.941,-0.143
6.083,-0.324,0.941,-0.143
6.093,-0.322,0.938,-0.137
6.103,-0.324,0.939,-0.139
6.113,-0.320,0.939,-0.137
6.123,-0.320,0.938,-0.135
6.133,-0.318,0.934,-0.137
6.143,-0.316,0.932,-0.135
6.153,-0.316,0.928,-0.139
6.163,-0.318,0.928,-0.137
6.173,-0.318,0.932,-0.137
6.183,-0.318,0.930,-0.137
6.192,-0.316,0.928,-0.135
6.202,-0.314,0.928,-0.133
6.212,-0.316,0.928,-0.133
6.222,-0.318,0.932,-0.139
6.232,-0.324,0.932,-0.133
6.242,-0.326,0.934,-0.135
6.252,-0.326,0.934,-0.133
6.262,-0.328,0.930,-0.137
6.272,-0.332,0.930,-0.137
6.282,-0.334,0.932,-0.135
6.292,-0.336,0.932,-0.135
6.302,-0.334,0.930,-0.143
6.312,-0.338,0.928,-0.139
6.322,-0.340,0.922,-0.141
6.331,-0.342,0.924,-0.141
6.341,-0.340,0.928,-0.141
6.351,-0.340,0.932,-0.141
6.361,-0.342,0.930,-0.141
6.371,-0.342,0.930,-0.143
6.381,-0.344,0.932,-0.145
6.391,-0.338,0.926,-0.146
6.401,-0.340,0.928,-0.148
6.411,-0.344,0.928,-0.150
6.421,-0.346,0.926,-0.152
6.431,-0.342,0.926,-0.150
6.441,-0.344,0.928,-0.154
6.451,-0.346,0.936,-0.154
6.461,-0.338,0.936,-0.152
6.471,-0.332,0.941,-0.150
6.480,-0.328,0.943,-0.148
6.490,-0.328,0.945,-0.148
6.500,-0.326,0.941,-0.148
6.510,-0.316,0.932,-0.150
6.520,-0.314,0.934,-0.154
6.530,-0.320,0.941,-0.148
6.540,-0.322,0.953,-0.145
6.550,-0.328,0.957,-0.143
6.560,-0.326,0.945,-0.145
6.570,-0.322,0.934,-0.146
6.580,-0.320,0.920,-0.150
6.590,-0.307,0.912,-0.154
6.600,-0.307,0.912,-0.156
6.610,-0.303,0.912,-0.162
6.619,-0.312,0.918,-0.162
6.629,-0.322,0.928,-0.162
6.639,-0.324,0.936,-0.158
6.649,-0.318,0.943,-0.156
6.659,-0.316,0.951,-0.156
6.669,-0.318,0.949,-0.154
6.679,-0.318,0.943,-0.154
6.689,-0.311,0.938,-0.152
6.699,-0.314,0.934,-0.154
6.709,-0.316,0.928,-0.150
6.719,-0.324,0.930,-0.148
6.729,-0.330,0.934,-0.154
6.739,-0.326,0.930,-0.150
6.749,-0.326,0.926,-0.145
6.758,-0.324,0.926,-0.146
6.768,-0.330,0.939,-0.148
6.778,-0.324,0.938,-0.146
6.788,-0.322,0.934,-0.146
6.798,-0.328,0.932,-0.146
6.808,-0.332,0.928,-0.146
6.818,-0.330,0.914,-0.154
6.828,-0.342,0.926,-0.150
6.838,-0.346,0.939,-0.150
6.848,-0.332,0.939,-0.152
6.858,-0.326,0.938,-0.150
6.868,-0.326,0.936,-0.150
6.878,-0.338,0.938,-0.154
6.888,-0.344,0.939,-0.150
6.897,-0.344,0.939,-0.150
6.907,-0.348,0.941,-0.148
6.917,-0.350,0.934,-0.148
6.927,-0.352,0.934,-0.141
6.937,-0.342,0.924,-0.148
6.947,-0.344,0.922,-0.146
6.957,-0.346,0.922,-0.145
6.967,-0.338,0.920,-0.145
6.977,-0.340,0.922,-0.145
6.987,-0.336,0.922,-0.150
6.997,-0.334,0.916,-0.152
7.007,-0.340,0.922,-0.152
7.017,-0.338,0.924,-0.150
7.027,-0.336,0.932,-0.152
7.037,-0.334,0.939,-0.146
7.046,-0.330,0.939,-0.148
7.056,-0.330,0.939,-0.146
7.066,-0.326,0.939,-0.146
7.076,-0.324,0.930,-0.146
7.086,-0.324,0.934,-0.145
7.096,-0.328,0.939,-0.141
7.106,-0.330,0.936,-0.141
7.116,-0.328,0.938,-0.145
7.126,-0.328,0.918,-0.135
7.136,-0.328,0.908,-0.137
7.146,-0.332,0.916,-0.135
7.156,-0.334,0.928,-0.135
7.166,-0.332,0.943,-0.131
7.176,-0.328,0.949,-0.131
7.185,-0.328,0.945,-0.129
7.195,-0.332,0.938,-0.127
7.205,-0.336,0.930,-0.135
7.215,-0.338,0.930,-0.131
7.225,-0.342,0.928,-0.131
7.235,-0.344,0.928,-0.129
7.245,-0.344,0.934,-0.131
7.255,-0.342,0.930,-0.129
7.265,-0.342,0.926,-0.129
7.275,-0.338,0.916,-0.129
7.285,-0.326,0.912,-0.127
7.295,-0.330,0.922,-0.127
7.305,-0.340,0.922,-0.131
7.315,-0.342,0.924,-0.137
7.324,-0.350,0.924,-0.137
7.334,-0.357,0.922,-0.139
7.344,-0.359,0.930,-0.137
7.354,-0.355,0.934,-0.141
7.364,-0.357,0.936,-0.139
7.374,-0.355,0.941,-0.135
7.384,-0.352,0.934,-0.137
7.394,-0.348,0.934,-0.137
7.404,-0.344,0.924,-0.141
7.414,-0.346,0.918,-0.137
7.424,-0.348,0.922,-0.139
7.434,-0.344,0.928,-0.135
7.444,-0.350,0.941,-0.131
7.454,-0.350,0.947,-0.129
7.463,-0.342,0.947,-0.127
7.473,-0.340,0.936,-0.127
7.483,-0.338,0.926,-0.129
7.493,-0.338,0.918,-0.129
7.503,-0.334,0.918,-0.125
7.513,-0.340,0.924,-0.127
7.523,-0.338,0.926,-0.123
7.533,-0.340,0.932,-0.121
7.543,-0.340,0.928,-0.117
7.553,-0.344,0.934,-0.121
7.563,-0.342,0.922,-0.123
7.573,-0.348,0.920,-0.121
7.583,-0.350,0.918,-0.121
7.593,-0.354,0.922,-0.127
7.603,-0.355,0.926,-0.123
7.612,-0.357,0.930,-0.127
7.622,-0.359,0.928,-0.127
7.632,-0.359,0.926,-0.125
7.642,-0.359,0.924,-0.125
7.652,-0.355,0.922,-0.125
7.662,-0.355,0.920,-0.121
7.672,-0.355,0.922,-0.123
7.682,-0.355,0.924,-0.121
7.692,-0.354,0.926,-0.119
7.702,-0.352,0.930,-0.119
7.712,-0.348,0.934,-0.121
7.722,-0.344,0.938,-0.115
7.732,-0.342,0.938,-0.117
7.742,-0.344,0.941,-0.117
7.751,-0.346,0.947,-0.117
7.761,-0.348,0.941,-0.113
7.771,-0.354,0.934,-0.113
7.781,-0.355,0.936,-0.113
7.791,-0.354,0.939,-0.115
7.801,-0.352,0.938,-0.117
7.811,-0.350,0.934,-0.117
7.821,-0.346,0.932,-0.117
7.831,-0.342,0.932,-0.119
7.841,-0.346,0.934,-0.121
7.851,-0.352,0.936,-0.115
7.861,-0.352,0.936,-0.119
7.871,-0.354,0.938,-0.119
7.881,-0.354,0.934,-0.117
7.890,-0.352,0.930,-0.119
7.900,-0.354,0.930,-0.123
7.910,-0.355,0.926,-0.125
7.920,-0.354,0.930,-0.117
7.930,-0.354,0.934,-0.117
7.940,-0.352,0.936,-0.117
7.950,-0.348,0.938,-0.117
7.960,-0.346,0.939,-0.117
7.970,-0.346,0.934,-0.115
7.980,-0.342,0.936,-0.115
7.990,-0.334,0.936,-0.111
8.000,-0.332,0.939,-0.109
8.010,-0.330,0.945,-0.113
8.020,-0.328,0.945,-0.111
8.029,-0.328,0.943,-0.115
8.039,-0.326,0.943,-0.113
8.049,-0.328,0.939,-0.111
8.059,-0.326,0.941,-0.109
8.069,-0.328,0.945,-0.109
8.079,-0.330,0.943,-0.105
8.089,-0.330,0.941,-0.105
8.099,-0.328,0.939,-0.105
8.109,-0.328,0.934,-0.107
8.119,-0.326,0.928,-0.104
8.129,-0.328,0.924,-0.105
8.139,-0.334,0.930,-0.102
8.149,-0.336,0.934,-0.107
8.159,-0.336,0.939,-0.107
8.168,-0.338,0.941,-0.109
8.178,-0.344,0.939,-0.109
8.188,-0.344,0.939,-0.109
8.198,-0.342,0.941,-0.107
8.208,-0.342,0.938,-0.109
8.218,-0.340,0.939,-0.111
8.228,-0.340,0.932,-0.107
8.238,-0.338,0.932,-0.111
8.248,-0.342,0.930,-0.111
8.258,-0.338,0.934,-0.111
8.268,-0.338,0.936,-0.111
8.278,-0.338,0.936,-0.111
8.288,-0.338,0.936,-0.111
8.298,-0.336,0.936,-0.109
8.308,-0.336,0.936,-0.111
8.317,-0.336,0.943,-0.109
8.327,-0.338,0.941,-0.111
8.337,-0.336,0.945,-0.113
8.347,-0.338,0.943,-0.109
8.357,-0.340,0.943,-0.109
8.367,-0.336,0.939,-0.107
8.377,-0.340,0.938,-0.109
8.387,-0.342,0.936,-0.109
8.397,-0.342,0.938,-0.111
8.407,-0.342,0.934,-0.107
8.417,-0.344,0.936,-0.109
8.427,-0.342,0.936,-0.111
8.437,-0.346,0.934,-0.113
8.447,-0.344,0.932,-0.111
8.456,-0.346,0.936,-0.115
8.466,-0.346,0.938,-0.115
8.476,-0.348,0.936,-0.113
8.486,-0.350,0.934,-0.115
8.496,-0.352,0.936,-0.113
8.506,-0.348,0.932,-0.115
8.516,-0.348,0.934,-0.113
8.526,-0.350,0.934,-0.111
8.536,-0.350,0.938,-0.111
8.546,-0.348,0.939,-0.109
8.556,-0.344,0.936,-0.109
8.566,-0.346,0.934,-0.113
8.576,-0.344,0.930,-0.109
8.586,-0.344,0.930,-0.111
8.595,-0.344,0.930,-0.109
8.605,-0.344,0.934,-0.111
8.615,-0.346,0.936,-0.109
8.625,-0.346,0.936,-0.109
8.635,-0.348,0.936,-0.109
8.645,-0.346,0.939,-0.109
8.655,-0.348,0.939,-0.105
8.665,-0.344,0.938,-0.109
8.675,-0.346,0.934,-0.111
8.685,-0.344,0.932,-0.111
8.695,-0.346,0.926,-0.113
8.705,-0.340,0.930,-0.115
8.715,-0.344,0.938,-0.115
8.725,-0.342,0.943,-0.111
8.734,-0.338,0.939,-0.115
8.744,-0.346,0.934,-0.115
8.754,-0.342,0.936,-0.111
8.764,-0.346,0.938,-0.113
8.774,-0.344,0.941,-0.109
8.784,-0.344,0.941,-0.109
8.794,-0.346,0.936,-0.109
8.804,-0.342,0.934,-0.107
8.814,-0.342,0.928,-0.107
8.824,-0.342,0.924,-0.109
8.834,-0.342,0.928,-0.109
8.844,-0.348,0.932,-0.109
8.854,-0.348,0.930,-0.105
8.864,-0.346,0.936,-0.105
8.874,-0.352,0.938,-0.109
8.883,-0.350,0.938,-0.109
8.893,-0.352,0.936,-0.107
8.903,-0.350,0.936,-0.107
8.913,-0.348,0.939,-0.111
8.923,-0.346,0.934,-0.111
8.933,-0.342,0.939,-0.109
8.943,-0.342,0.941,-0.109
8.953,-0.344,0.939,-0.113
8.963,-0.340,0.939,-0.109
8.973,-0.338,0.936,-0.111
8.983,-0.340,0.936,-0.111
8.993,-0.336,0.936,-0.107
9.003,-0.340,0.938,-0.109
9.013,-0.332,0.938,-0.109
9.022,-0.336,0.939,-0.109
9.032,-0.342,0.939,-0.107
9.042,-0.342,0.938,-0.109
9.052,-0.344,0.939,-0.113
9.062,-0.342,0.938,-0.113
9.072,-0.348,0.938,-0.111
9.082,-0.346,0.939,-0.109
9.092,-0.346,0.936,-0.111
9.102,-0.350,0.936,-0.109
9.112,-0.348,0.936,-0.111
9.122,-0.346,0.932,-0.105
9.132,-0.348,0.936,-0.113
9.142,-0.344,0.932,-0.107
9.152,-0.346,0.932,-0.109
9.161,-0.346,0.932,-0.105
9.171,-0.346,0.930,-0.109
9.181,-0.346,0.932,-0.107
9.191,-0.346,0.934,-0.105
9.201,-0.346,0.932,-0.111
9.211,-0.344,0.934,-0.109
9.221,-0.342,0.934,-0.109
9.231,-0.344,0.938,-0.107
9.241,-0.344,0.938,-0.113
9.251,-0.344,0.938,-0.113
9.261,-0.344,0.938,-0.111
9.271,-0.346,0.938,-0.109
9.281,-0.344,0.938,-0.113
9.291,-0.344,0.936,-0.113
9.300,-0.344,0.938,-0.111
9.310,-0.350,0.936,-0.109
9.320,-0.346,0.936,-0.111
9.330,-0.344,0.936,-0.111
9.340,-0.342,0.936,-0.113
9.350,-0.346,0.934,-0.109
9.360,-0.344,0.936,-0.107
9.370,-0.350,0.936,-0.115
9.380,-0.346,0.936,-0.115
9.390,-0.348,0.936,-0.115
9.400,-0.350,0.936,-0.111
9.410,-0.346,0.938,-0.109
9.420,-0.346,0.938,-0.111
9.430,-0.346,0.941,-0.113
9.440,-0.348,0.941,-0.107
9.449,-0.344,0.934,-0.111
9.459,-0.344,0.930,-0.111
9.469,-0.344,0.928,-0.109
9.479,-0.346,0.932,-0.107
9.489,-0.346,0.938,-0.105
9.499,-0.344,0.941,-0.104
9.509,-0.346,0.943,-0.104
9.519,-0.344,0.941,-0.105
9.529,-0.346,0.938,-0.104
9.539,-0.346,0.932,-0.107
9.549,-0.346,0.930,-0.109
9.559,-0.348,0.926,-0.107
9.569,-0.350,0.928,-0.109
9.579,-0.350,0.928,-0.109
9.588,-0.348,0.934,-0.107
9.598,-0.354,0.936,-0.107
9.608,-0.354,0.938,-0.104
9.618,-0.352,0.939,-0.104
9.628,-0.350,0.941,-0.105
9.638,-0.348,0.939,-0.102
9.648,-0.346,0.934,-0.102
9.658,-0.344,0.932,-0.105
9.668,-0.346,0.930,-0.107
9.678,-0.344,0.932,-0.104
9.688,-0.346,0.941,-0.107
9.698,-0.342,0.938,-0.100
9.708,-0.344,0.934,-0.104
9.718,-0.342,0.936,-0.104
9.727,-0.346,0.934,-0.104
9.737,-0.344,0.934,-0.105
9.747,-0.346,0.939,-0.105
9.757,-0.342,0.941,-0.104
9.767,-0.338,0.939,-0.102
9.777,-0.344,0.938,-0.107
9.787,-0.344,0.936,-0.104
9.797,-0.342,0.938,-0.104
9.807,-0.340,0.939,-0.105
9.817,-0.346,0.938,-0.107
9.827,-0.344,0.934,-0.105
9.837,-0.342,0.930,-0.105
9.847,-0.348,0.936,-0.107
9.857,-0.346,0.938,-0.104
9.866,-0.350,0.938,-0.107
9.876,-0.346,0.934,-0.111
9.886,-0.348,0.934,-0.105
9.896,-0.348,0.936,-0.105
9.906,-0.346,0.936,-0.107
9.916,-0.346,0.936,-0.107
9.926,-0.344,0.936,-0.109
9.936,-0.344,0.934,-0.105
9.946,-0.346,0.934,-0.107
9.956,-0.346,0.930,-0.105
9.966,-0.342,0.934,-0.111
9.976,-0.346,0.934,-0.109
9.986,-0.342,0.936,-0.111
9.996,-0.348,0.934,-0.107
10.006,-0.344,0.941,-0.107
10.015,-0.346,0.943,-0.113
10.025,-0.348,0.939,-0.109
10.035,-0.352,0.938,-0.113
10.045,-0.352,0.939,-0.111
10.055,-0.350,0.938,-0.107
10.065,-0.352,0.936,-0.111
10.075,-0.352,0.936,-0.109
10.085,-0.350,0.932,-0.107
10.095,-0.352,0.934,-0.109
10.105,-0.350,0.936,-0.111
10.115,-0.348,0.938,-0.109
10.125,-0.350,0.926,-0.109
10.135,-0.350,0.930,-0.111
10.145,-0.348,0.930,-0.109
10.154,-0.352,0.941,-0.109
10.164,-0.350,0.943,-0.107
10.174,-0.346,0.936,-0.109
10.184,-0.350,0.928,-0.111
10.194,-0.346,0.926,-0.107
10.204,-0.352,0.928,-0.111
10.214,-0.350,0.936,-0.109
10.224,-0.350,0.941,-0.111
10.234,-0.348,0.938,-0.105
10.244,-0.348,0.938,-0.111
10.254,-0.348,0.936,-0.111
10.264,-0.348,0.930,-0.113
10.274,-0.350,0.932,-0.113
10.284,-0.350,0.930,-0.111
10.293,-0.352,0.932,-0.109
10.303,-0.354,0.932,-0.113
10.313,-0.354,0.936,-0.117
10.323,-0.352,0.936,-0.113
10.333,-0.350,0.936,-0.113
10.343,-0.350,0.936,-0.115
10.353,-0.350,0.939,-0.117
10.363,-0.348,0.938,-0.109
10.373,-0.346,0.936,-0.113
10.383,-0.344,0.936,-0.109
10.393,-0.340,0.932,-0.113
10.403,-0.348,0.932,-0.107
10.413,-0.346,0.934,-0.111
10.423,-0.346,0.938,-0.111
10.432,-0.346,0.936,-0.115
10.442,-0.344,0.936,-0.115
10.452,-0.344,0.934,-0.113
10.462,-0.350,0.934,-0.113
10.472,-0.348,0.934,-0.115
10.482,-0.346,0.936,-0.111
10.492,-0.342,0.939,-0.115
10.502,-0.344,0.936,-0.111
10.512,-0.344,0.934,-0.111
10.522,-0.348,0.932,-0.113
10.532,-0.346,0.934,-0.113
10.542,-0.348,0.934,-0.115
10.552,-0.350,0.932,-0.113
10.562,-0.346,0.936,-0.113
10.572,-0.346,0.934,-0.113
10.581,-0.350,0.934,-0.111
10.591,-0.342,0.936,-0.113
10.601,-0.344,0.936,-0.117
10.611,-0.344,0.932,-0.117
10.621,-0.348,0.934,-0.119
10.631,-0.348,0.934,-0.111
10.641,-0.348,0.936,-0.115
10.651,-0.348,0.936,-0.115
10.661,-0.346,0.936,-0.113
10.671,-0.348,0.934,-0.111
10.681,-0.350,0.934,-0.115
10.691,-0.352,0.932,-0.117
10.701,-0.350,0.932,-0.115
10.711,-0.350,0.934,-0.113
10.720,-0.348,0.936,-0.111
10.730,-0.348,0.934,-0.113
10.740,-0.350,0.934,-0.111
10.750,-0.350,0.938,-0.115
10.760,-0.350,0.934,-0.109
10.770,-0.348,0.934,-0.113
10.780,-0.346,0.932,-0.111
10.790,-0.350,0.932,-0.117
10.800,-0.350,0.936,-0.113
10.810,-0.346,0.934,-0.109
10.820,-0.350,0.932,-0.115
10.830,-0.348,0.936,-0.115
10.840,-0.348,0.932,-0.117
10.850,-0.350,0.938,-0.111
10.859,-0.348,0.938,-0.115
10.869,-0.348,0.932,-0.117
10.879,-0.348,0.936,-0.115
10.889,-0.350,0.934,-0.117
10.899,-0.344,0.939,-0.111
10.909,-0.344,0.943,-0.113
10.919,-0.344,0.939,-0.111
10.929,-0.344,0.928,-0.117
10.939,-0.348,0.928,-0.117
10.949,-0.346,0.928,-0.117
10.959,-0.350,0.934,-0.111
10.969,-0.346,0.939,-0.115
10.979,-0.348,0.939,-0.115
10.989,-0.348,0.938,-0.113
10.998,-0.350,0.939,-0.113
11.008,-0.352,0.934,-0.113
11.018,-0.350,0.930,-0.117
11.028,-0.354,0.928,-0.119
11.038,-0.354,0.926,-0.115
11.048,-0.354,0.930,-0.113
11.058,-0.352,0.930,-0.113
11.068,-0.352,0.936,-0.115
11.078,-0.352,0.938,-0.115
11.088,-0.352,0.934,-0.115
11.098,-0.348,0.938,-0.113
11.108,-0.348,0.938,-0.117
11.118,-0.350,0.938,-0.115
11.128,-0.348,0.936,-0.113
11.137,-0.348,0.934,-0.115
11.147,-0.348,0.932,-0.115
11.157,-0.346,0.928,-0.113
11.167,-0.350,0.934,-0.113
11.177,-0.348,0.938,-0.115
11.187,-0.346,0.936,-0.113
11.197,-0.344,0.938,-0.117
11.207,-0.346,0.932,-0.117
11.217,-0.348,0.930,-0.115
11.227,-0.346,0.930,-0.117
11.237,-0.348,0.934,-0.115
11.247,-0.346,0.936,-0.113
11.257,-0.348,0.939,-0.113
11.267,-0.352,0.939,-0.113
11.277,-0.352,0.941,-0.111
11.286,-0.352,0.939,-0.115
11.296,-0.354,0.932,-0.115
11.306,-0.348,0.932,-0.115
11.316,-0.346,0.928,-0.113
11.326,-0.342,0.934,-0.113
11.336,-0.342,0.934,-0.111
11.346,-0.344,0.934,-0.113
11.356,-0.346,0.934,-0.111
11.366,-0.340,0.932,-0.113
11.376,-0.346,0.932,-0.111
11.386,-0.350,0.934,-0.115
11.396,-0.348,0.938,-0.111
11.406,-0.348,0.934,-0.113
11.416,-0.346,0.934,-0.115
11.425,-0.344,0.934,-0.113
11.435,-0.338,0.928,-0.113
11.445,-0.348,0.939,-0.111
11.455,-0.344,0.938,-0.113
11.465,-0.344,0.932,-0.119
11.475,-0.346,0.936,-0.113
11.485,-0.350,0.939,-0.113
11.495,-0.350,0.936,-0.117
11.505,-0.350,0.939,-0.113
11.515,-0.350,0.939,-0.115
11.525,-0.348,0.938,-0.113
11.535,-0.346,0.936,-0.113
11.545,-0.344,0.934,-0.119
11.555,-0.350,0.934,-0.113
11.564,-0.352,0.936,-0.119
11.574,-0.348,0.934,-0.115
11.584,-0.350,0.936,-0.113
11.594,-0.348,0.939,-0.115
11.604,-0.348,0.936,-0.115
11.614,-0.346,0.934,-0.115
11.624,-0.346,0.936,-0.113
11.634,-0.338,0.934,-0.113
11.644,-0.338,0.939,-0.111
11.654,-0.340,0.943,-0.113
11.664,-0.336,0.928,-0.113
11.674,-0.338,0.928,-0.115
11.684,-0.338,0.922,-0.115
11.694,-0.346,0.926,-0.115
11.703,-0.350,0.934,-0.113
11.713,-0.346,0.939,-0.115
11.723,-0.346,0.941,-0.111
11.733,-0.342,0.941,-0.113
11.743,-0.340,0.939,-0.115
11.753,-0.336,0.938,-0.115
11.763,-0.338,0.932,-0.113
11.773,-0.338,0.936,-0.115
11.783,-0.338,0.934,-0.117
11.793,-0.338,0.934,-0.119
11.803,-0.344,0.936,-0.117
11.813,-0.344,0.936,-0.119
11.823,-0.346,0.938,-0.123
11.833,-0.346,0.939,-0.119
11.843,-0.348,0.938,-0.117
11.852,-0.348,0.938,-0.121
11.862,-0.346,0.939,-0.119
11.872,-0.344,0.938,-0.117
11.882,-0.344,0.936,-0.119
11.892,-0.346,0.934,-0.117
11.902,-0.340,0.934,-0.119
11.912,-0.342,0.943,-0.113
11.922,-0.340,0.939,-0.115
11.932,-0.334,0.939,-0.117
11.942,-0.330,0.936,-0.117
11.952,-0.334,0.934,-0.115
11.962,-0.338,0.936,-0.117
11.972,-0.338,0.941,-0.119
11.982,-0.340,0.941,-0.121
11.991,-0.342,0.939,-0.119
12.001,-0.342,0.939,-0.115
12.011,-0.342,0.936,-0.117
12.021,-0.338,0.936,-0.115
12.031,-0.334,0.936,-0.115
12.041,-0.344,0.934,-0.115
12.051,-0.346,0.930,-0.117
12.061,-0.350,0.932,-0.117
12.071,-0.352,0.932,-0.117
12.081,-0.350,0.936,-0.115
12.091,-0.352,0.934,-0.117
12.101,-0.354,0.934,-0.117
12.111,-0.354,0.932,-0.117
12.121,-0.354,0.932,-0.115
12.130,-0.357,0.932,-0.115
12.140,-0.354,0.932,-0.117
12.150,-0.350,0.930,-0.117
12.160,-0.352,0.936,-0.115
12.170,-0.350,0.938,-0.115
12.180,-0.348,0.936,-0.111
12.190,-0.344,0.938,-0.115
12.200,-0.342,0.936,-0.115
12.210,-0.342,0.938,-0.113
12.220,-0.338,0.936,-0.111
12.230,-0.340,0.939,-0.113
12.240,-0.340,0.939,-0.111
12.250,-0.336,0.938,-0.111
12.260,-0.338,0.938,-0.111
12.269,-0.340,0.939,-0.113
12.279,-0.338,0.943,-0.107
12.289,-0.340,0.939,-0.111
12.299,-0.338,0.936,-0.113
12.309,-0.340,0.934,-0.113
12.319,-0.340,0.932,-0.109
12.329,-0.338,0.941,-0.107
12.339,-0.340,0.941,-0.111
12.349,-0.342,0.939,-0.113
12.359,-0.342,0.934,-0.113
12.369,-0.342,0.930,-0.113
12.379,-0.346,0.936,-0.113
12.389,-0.348,0.936,-0.111
12.399,-0.350,0.941,-0.111
12.409,-0.346,0.943,-0.111
12.418,-0.342,0.939,-0.113
12.428,-0.344,0.936,-0.109
12.438,-0.346,0.932,-0.111
12.448,-0.344,0.932,-0.111
12.458,-0.344,0.928,-0.113
12.468,-0.344,0.930,-0.111
12.478,-0.346,0.934,-0.111
12.488,-0.344,0.934,-0.111
12.498,-0.344,0.936,-0.111
12.508,-0.348,0.939,-0.113
12.518,-0.350,0.939,-0.115
12.528,-0.348,0.939,-0.115
12.538,-0.350,0.939,-0.113
12.548,-0.350,0.936,-0.113
12.557,-0.352,0.934,-0.113
12.567,-0.352,0.932,-0.111
12.577,-0.348,0.934,-0.115
12.587,-0.346,0.936,-0.113
12.597,-0.350,0.938,-0.115
12.607,-0.348,0.934,-0.105
12.617,-0.344,0.934,-0.113
12.627,-0.342,0.932,-0.113
12.637,-0.348,0.934,-0.115
12.647,-0.350,0.932,-0.117
12.657,-0.346,0.936,-0.113
12.667,-0.348,0.938,-0.113
12.677,-0.344,0.936,-0.115
12.687,-0.346,0.938,-0.117
12.696,-0.350,0.938,-0.111
12.706,-0.348,0.936,-0.117
12.716,-0.348,0.932,-0.113
12.726,-0.346,0.934,-0.113
12.736,-0.350,0.932,-0.115
12.746,-0.346,0.932,-0.115
12.756,-0.348,0.934,-0.113
12.766,-0.348,0.934,-0.113
12.776,-0.346,0.938,-0.115
12.786,-0.348,0.936,-0.113
12.796,-0.348,0.936,-0.121
12.806,-0.350,0.936,-0.117
12.816,-0.350,0.934,-0.117
12.826,-0.346,0.938,-0.115
12.835,-0.346,0.934,-0.113
12.845,-0.346,0.938,-0.115
12.855,-0.346,0.936,-0.113
12.865,-0.346,0.934,-0.113
12.875,-0.348,0.936,-0.117
12.885,-0.344,0.938,-0.115
12.895,-0.346,0.938,-0.113
12.905,-0.346,0.932,-0.115
12.915,-0.346,0.936,-0.115
12.925,-0.344,0.939,-0.113
12.935,-0.344,0.941,-0.115
12.945,-0.344,0.938,-0.113
12.955,-0.342,0.936,-0.117
12.965,-0.346,0.938,-0.117
12.975,-0.344,0.939,-0.117
12.984,-0.346,0.936,-0.115
12.994,-0.346,0.932,-0.111
13.004,-0.348,0.934,-0.115
13.014,-0.346,0.934,-0.115
13.024,-0.342,0.939,-0.115
13.034,-0.342,0.941,-0.113
13.044,-0.338,0.941,-0.111
13.054,-0.342,0.932,-0.111
13.064,-0.340,0.924,-0.115
13.074,-0.346,0.928,-0.115
13.084,-0.346,0.936,-0.113
13.094,-0.346,0.939,-0.113
13.104,-0.344,0.941,-0.111
13.114,-0.346,0.939,-0.115
13.123,-0.342,0.936,-0.113
13.133,-0.346,0.934,-0.113
13.143,-0.344,0.934,-0.115
13.153,-0.348,0.932,-0.115
13.163,-0.342,0.932,-0.113
13.173,-0.342,0.932,-0.115
13.183,-0.344,0.934,-0.113
13.193,-0.344,0.938,-0.115
13.203,-0.344,0.939,-0.113
13.213,-0.344,0.939,-0.115
13.223,-0.342,0.939,-0.113
13.233,-0.338,0.941,-0.109
13.243,-0.342,0.939,-0.115
13.253,-0.340,0.936,-0.115
13.262,-0.342,0.939,-0.111
13.272,-0.344,0.936,-0.115
13.282,-0.340,0.938,-0.113
13.292,-0.338,0.943,-0.115
13.302,-0.340,0.938,-0.113
13.312,-0.336,0.938,-0.113
13.322,-0.336,0.936,-0.109
13.332,-0.340,0.934,-0.113
13.342,-0.338,0.934,-0.113
13.352,-0.344,0.936,-0.115
13.362,-0.342,0.939,-0.115
13.372,-0.340,0.939,-0.113
13.382,-0.340,0.941,-0.113
13.392,-0.340,0.941,-0.111
13.401,-0.340,0.936,-0.113
13.411,-0.340,0.938,-0.113
13.421,-0.340,0.938,-0.117
13.431,-0.340,0.936,-0.111
13.441,-0.340,0.936,-0.113
13.451,-0.342,0.934,-0.115
13.461,-0.336,0.934,-0.115
13.471,-0.342,0.938,-0.117
13.481,-0.342,0.939,-0.117
13.491,-0.344,0.936,-0.117
13.501,-0.344,0.939,-0.113
13.511,-0.344,0.936,-0.115
13.521,-0.342,0.938,-0.117
13.531,-0.342,0.934,-0.117
13.541,-0.346,0.938,-0.111
13.550,-0.344,0.936,-0.115
13.560,-0.346,0.934,-0.115
13.570,-0.344,0.934,-0.117
13.580,-0.344,0.938,-0.117
13.590,-0.342,0.938,-0.117
13.600,-0.344,0.939,-0.115
13.610,-0.344,0.939,-0.117
13.620,-0.342,0.939,-0.117
13.630,-0.340,0.938,-0.113
13.640,-0.338,0.934,-0.113
13.650,-0.342,0.938,-0.117
13.660,-0.342,0.938,-0.115
13.670,-0.342,0.939,-0.115
13.680,-0.344,0.939,-0.115
13.689,-0.344,0.936,-0.113
13.699,-0.344,0.936,-0.113
13.709,-0.342,0.938,-0.113
13.719,-0.342,0.932,-0.115
13.729,-0.344,0.934,-0.115
13.739,-0.342,0.934,-0.115
13.749,-0.340,0.936,-0.111
13.759,-0.336,0.941,-0.113
13.769,-0.334,0.945,-0.113
13.779,-0.334,0.941,-0.115
13.789,-0.336,0.938,-0.111
13.799,-0.342,0.928,-0.117
13.809,-0.344,0.932,-0.117
13.819,-0.344,0.936,-0.111
13.828,-0.342,0.939,-0.111
13.838,-0.342,0.941,-0.113
13.848,-0.340,0.939,-0.115
13.858,-0.340,0.938,-0.109
13.868,-0.338,0.934,-0.115
13.878,-0.340,0.932,-0.113
13.888,-0.338,0.930,-0.115
13.898,-0.340,0.932,-0.111
13.908,-0.342,0.934,-0.117
13.918,-0.346,0.936,-0.115
13.928,-0.344,0.938,-0.113
13.938,-0.344,0.943,-0.111
13.948,-0.342,0.945,-0.113
13.958,-0.340,0.945,-0.111
13.967,-0.338,0.943,-0.111
13.977,-0.338,0.938,-0.111
13.987,-0.336,0.934,-0.113
13.997,-0.340,0.936,-0.115
14.007,-0.336,0.936,-0.111
14.017,-0.336,0.938,-0.111
14.027,-0.336,0.941,-0.113
14.037,-0.334,0.938,-0.113
14.047,-0.338,0.939,-0.113
14.057,-0.336,0.936,-0.117
14.067,-0.338,0.936,-0.113
14.077,-0.340,0.941,-0.115
14.087,-0.340,0.941,-0.111
14.097,-0.338,0.941,-0.113
14.106,-0.338,0.938,-0.111
14.116,-0.338,0.938,-0.113
14.126,-0.334,0.941,-0.109
14.136,-0.338,0.938,-0.111
14.146,-0.340,0.936,-0.111
14.156,-0.336,0.936,-0.113
14.166,-0.336,0.936,-0.111
14.176,-0.338,0.938,-0.109
14.186,-0.336,0.936,-0.111
14.196,-0.336,0.938,-0.109
14.206,-0.338,0.938,-0.113
14.216,-0.338,0.941,-0.109
14.226,-0.342,0.939,-0.113
14.236,-0.340,0.939,-0.111
14.246,-0.340,0.936,-0.113
14.255,-0.336,0.938,-0.115
14.265,-0.340,0.938,-0.115
14.275,-0.340,0.939,-0.111
14.285,-0.338,0.938,-0.111
14.295,-0.338,0.939,-0.113
14.305,-0.340,0.938,-0.113
14.315,-0.338,0.938,-0.113
14.325,-0.338,0.939,-0.111
14.335,-0.338,0.938,-0.111
14.345,-0.338,0.938,-0.113
14.355,-0.340,0.936,-0.115
14.365,-0.340,0.936,-0.113
14.375,-0.340,0.939,-0.109
14.385,-0.340,0.936,-0.111
14.394,-0.340,0.939,-0.111
14.404,-0.342,0.938,-0.115
14.414,-0.344,0.938,-0.113
14.424,-0.344,0.939,-0.111
14.434,-0.342,0.939,-0.109
14.444,-0.342,0.938,-0.115
14.454,-0.344,0.932,-0.109
14.464,-0.344,0.934,-0.109
14.474,-0.340,0.932,-0.111
14.484,-0.340,0.939,-0.109
14.494,-0.338,0.943,-0.107
14.504,-0.336,0.939,-0.109
14.514,-0.340,0.934,-0.111
14.524,-0.344,0.928,-0.111
14.533,-0.348,0.932,-0.115
14.543,-0.346,0.939,-0.111
14.553,-0.346,0.939,-0.109
14.563,-0.344,0.943,-0.113
14.573,-0.344,0.938,-0.109
14.583,-0.346,0.938,-0.107
14.593,-0.342,0.934,-0.111
14.603,-0.344,0.934,-0.109
14.613,-0.342,0.936,-0.109
14.623,-0.340,0.932,-0.111
14.633,-0.344,0.934,-0.111
14.643,-0.342,0.936,-0.109
14.653,-0.344,0.938,-0.113
14.663,-0.346,0.938,-0.113
14.672,-0.344,0.939,-0.113
14.682,-0.344,0.945,-0.115
14.692,-0.340,0.941,-0.109
14.702,-0.340,0.939,-0.111
14.712,-0.342,0.939,-0.111
14.722,-0.340,0.941,-0.111
14.732,-0.342,0.936,-0.111
14.742,-0.340,0.938,-0.109
14.752,-0.340,0.939,-0.113
14.762,-0.336,0.939,-0.109
14.772,-0.338,0.938,-0.111
14.782,-0.338,0.938,-0.109
14.792,-0.338,0.936,-0.113
14.802,-0.340,0.939,-0.109
14.812,-0.340,0.938,-0.109
14.821,-0.338,0.939,-0.109
14.831,-0.338,0.941,-0.109
14.841,-0.336,0.941,-0.111
14.851,-0.338,0.939,-0.109
14.861,-0.332,0.939,-0.109
14.871,-0.338,0.939,-0.107
14.881,-0.336,0.938,-0.109
14.891,-0.336,0.939,-0.107
14.901,-0.334,0.938,-0.105
14.911,-0.336,0.936,-0.107
14.921,-0.338,0.936,-0.107
14.931,-0.340,0.934,-0.107
14.941,-0.340,0.939,-0.107
14.951,-0.344,0.941,-0.109
14.960,-0.342,0.941,-0.105
14.970,-0.340,0.938,-0.111
14.980,-0.342,0.939,-0.111
14.990,-0.342,0.936,-0.107
15.000,-0.342,0.936,-0.105
15.010,-0.342,0.938,-0.109
15.020,-0.342,0.938,-0.107
15.030,-0.340,0.939,-0.105
15.040,-0.340,0.936,-0.107
15.050,-0.340,0.941,-0.107
15.060,-0.342,0.939,-0.105
15.070,-0.340,0.943,-0.105
15.080,-0.340,0.938,-0.104
15.090,-0.340,0.936,-0.107
15.099,-0.342,0.938,-0.109
15.109,-0.340,0.934,-0.107
15.119,-0.342,0.938,-0.109
15.129,-0.348,0.938,-0.105
15.139,-0.346,0.939,-0.105
15.149,-0.348,0.938,-0.109
15.159,-0.350,0.939,-0.109
15.169,-0.348,0.938,-0.107
15.179,-0.346,0.941,-0.109
15.189,-0.348,0.941,-0.109
15.199,-0.346,0.934,-0.107
15.209,-0.346,0.938,-0.107
15.219,-0.340,0.936,-0.109
15.229,-0.340,0.939,-0.107
15.238,-0.338,0.938,-0.105
15.248,-0.336,0.939,-0.109
15.258,-0.340,0.930,-0.107
15.268,-0.342,0.930,-0.107
15.278,-0.344,0.938,-0.107
15.288,-0.344,0.941,-0.107
15.298,-0.346,0.941,-0.105
15.308,-0.346,0.939,-0.107
15.318,-0.344,0.939,-0.109
15.328,-0.344,0.932,-0.107
15.338,-0.344,0.934,-0.109
15.348,-0.344,0.936,-0.107
15.358,-0.344,0.930,-0.109
15.368,-0.342,0.934,-0.113
15.378,-0.342,0.938,-0.109
15.387,-0.344,0.938,-0.111
15.397,-0.344,0.938,-0.111
15.407,-0.346,0.939,-0.109
15.417,-0.344,0.943,-0.111
15.427,-0.342,0.939,-0.109
15.437,-0.342,0.943,-0.105
15.447,-0.344,0.938,-0.107
15.457,-0.338,0.936,-0.109
15.467,-0.342,0.934,-0.109
15.477,-0.340,0.936,-0.111
15.487,-0.340,0.936,-0.111
15.497,-0.340,0.943,-0.111
15.507,-0.338,0.939,-0.109
15.517,-0.342,0.939,-0.111
15.526,-0.342,0.934,-0.111
15.536,-0.340,0.939,-0.109
15.546,-0.348,0.941,-0.111
15.556,-0.342,0.941,-0.111
15.566,-0.344,0.941,-0.109
15.576,-0.344,0.939,-0.109
15.586,-0.340,0.941,-0.107
15.596,-0.342,0.938,-0.109
15.606,-0.340,0.939,-0.111
15.616,-0.344,0.934,-0.111
15.626,-0.342,0.936,-0.105
15.636,-0.340,0.934,-0.109
15.646,-0.344,0.936,-0.109
15.656,-0.342,0.936,-0.109
15.665,-0.344,0.938,-0.109
15.675,-0.346,0.938,-0.109
15.685,-0.348,0.938,-0.107
15.695,-0.346,0.938,-0.109
15.705,-0.348,0.936,-0.109
15.715,-0.344,0.936,-0.113
15.725,-0.346,0.936,-0.109
15.735,-0.348,0.936,-0.109
15.745,-0.344,0.934,-0.109
15.755,-0.346,0.934,-0.107
15.765,-0.346,0.936,-0.109
15.775,-0.346,0.938,-0.111
15.785,-0.348,0.939,-0.107
15.795,-0.342,0.938,-0.109
15.804,-0.344,0.938,-0.111
15.814,-0.344,0.938,-0.107
15.824,-0.346,0.939,-0.111
15.834,-0.346,0.938,-0.107
15.844,-0.342,0.934,-0.109
15.854,-0.342,0.936,-0.109
15.864,-0.338,0.936,-0.107
15.874,-0.340,0.936,-0.113
15.884,-0.344,0.936,-0.109
15.894,-0.346,0.938,-0.109
15.904,-0.344,0.939,-0.111
15.914,-0.344,0.941,-0.113
15.924,-0.344,0.941,-0.111
15.934,-0.344,0.938,-0.111
15.944,-0.340,0.938,-0.109
15.953,-0.338,0.938,-0.115
15.963,-0.340,0.938,-0.113
15.973,-0.340,0.938,-0.109
15.983,-0.332,0.936,-0.111
15.993,-0.338,0.943,-0.111
16.003,-0.338,0.949,-0.109
16.013,-0.336,0.939,-0.113
16.023,-0.340,0.934,-0.113
16.033,-0.344,0.930,-0.111
16.043,-0.348,0.936,-0.111
16.053,-0.346,0.938,-0.115
16.063,-0.346,0.941,-0.111
16.073,-0.346,0.939,-0.109
16.083,-0.342,0.938,-0.111
16.092,-0.338,0.936,-0.111
16.102,-0.342,0.936,-0.113
16.112,-0.340,0.934,-0.109
16.122,-0.342,0.932,-0.111
16.132,-0.346,0.932,-0.109
16.142,-0.344,0.934,-0.113
16.152,-0.346,0.938,-0.113
16.162,-0.346,0.943,-0.115
16.172,-0.344,0.939,-0.111
16.182,-0.344,0.939,-0.111
16.192,-0.344,0.939,-0.109
16.202,-0.342,0.938,-0.113
16.212,-0.342,0.936,-0.111
16.222,-0.342,0.938,-0.113
16.231,-0.342,0.938,-0.117
16.241,-0.346,0.938,-0.113
16.251,-0.340,0.938,-0.113
16.261,-0.338,0.939,-0.113
16.271,-0.338,0.939,-0.111
16.281,-0.340,0.936,-0.113
16.291,-0.340,0.934,-0.115
16.301,-0.340,0.936,-0.113
16.311,-0.342,0.939,-0.111
16.321,-0.340,0.943,-0.113
16.331,-0.340,0.941,-0.111
16.341,-0.340,0.939,-0.113
16.351,-0.338,0.938,-0.111
16.361,-0.334,0.936,-0.113
16.370,-0.336,0.934,-0.115
16.380,-0.340,0.934,-0.113
16.390,-0.336,0.934,-0.115
16.400,-0.334,0.938,-0.113
16.410,-0.336,0.939,-0.117
16.420,-0.334,0.939,-0.115
16.430,-0.336,0.941,-0.119
16.440,-0.334,0.945,-0.121
16.450,-0.334,0.943,-0.119
16.460,-0.332,0.943,-0.119
16.470,-0.334,0.943,-0.117
16.480,-0.330,0.943,-0.119
16.490,-0.332,0.943,-0.115
16.500,-0.328,0.938,-0.117
16.510,-0.326,0.936,-0.119
16.519,-0.328,0.934,-0.115
16.529,-0.326,0.934,-0.113
16.539,-0.330,0.936,-0.115
16.549,-0.334,0.941,-0.113
16.559,-0.338,0.943,-0.115
16.569,-0.338,0.941,-0.115
16.579,-0.338,0.941,-0.119
16.589,-0.338,0.939,-0.111
16.599,-0.336,0.938,-0.115
16.609,-0.340,0.936,-0.113
16.619,-0.336,0.941,-0.111
16.629,-0.338,0.939,-0.113
16.639,-0.334,0.936,-0.113
16.649,-0.334,0.936,-0.113
16.658,-0.336,0.936,-0.111
16.668,-0.334,0.939,-0.113
16.678,-0.336,0.938,-0.111
16.688,-0.336,0.932,-0.115
16.698,-0.338,0.934,-0.113
16.708,-0.334,0.936,-0.115
16.718,-0.328,0.941,-0.117
16.728,-0.332,0.945,-0.115
16.738,-0.330,0.945,-0.117
16.748,-0.330,0.938,-0.119
16.758,-0.332,0.932,-0.121
16.768,-0.334,0.934,-0.123
16.778,-0.334,0.941,-0.119
16.788,-0.334,0.943,-0.119
16.797,-0.332,0.941,-0.121
16.807,-0.334,0.938,-0.123
16.817,-0.330,0.939,-0.119
16.827,-0.332,0.941,-0.123
16.837,-0.334,0.941,-0.121
16.847,-0.334,0.939,-0.123
16.857,-0.330,0.938,-0.121
16.867,-0.334,0.936,-0.123
16.877,-0.338,0.938,-0.127
16.887,-0.338,0.939,-0.121
16.897,-0.336,0.941,-0.121
16.907,-0.334,0.939,-0.123
16.917,-0.332,0.941,-0.121
16.927,-0.334,0.941,-0.121
16.936,-0.338,0.939,-0.123
16.946,-0.332,0.941,-0.121
16.956,-0.334,0.938,-0.119
16.966,-0.334,0.938,-0.123
16.976,-0.332,0.936,-0.121
16.986,-0.334,0.943,-0.121
16.996,-0.332,0.943,-0.119
17.006,-0.330,0.939,-0.117
17.016,-0.328,0.939,-0.119
17.026,-0.330,0.936,-0.121
17.036,-0.332,0.939,-0.119
17.046,-0.334,0.938,-0.121
17.056,-0.334,0.939,-0.119
17.066,-0.332,0.941,-0.117
17.076,-0.336,0.943,-0.119
17.085,-0.336,0.943,-0.115
17.095,-0.336,0.939,-0.115
17.105,-0.336,0.941,-0.117
17.115,-0.334,0.936,-0.115
17.125,-0.338,0.938,-0.115
17.135,-0.338,0.936,-0.117
17.145,-0.338,0.934,-0.117
17.155,-0.338,0.932,-0.115
17.165,-0.340,0.938,-0.115
17.175,-0.340,0.934,-0.115
17.185,-0.338,0.938,-0.117
17.195,-0.338,0.939,-0.115
17.205,-0.338,0.939,-0.115
17.215,-0.342,0.936,-0.117
17.224,-0.338,0.936,-0.115
17.234,-0.336,0.936,-0.117
17.244,-0.342,0.934,-0.119
17.254,-0.340,0.934,-0.115
17.264,-0.338,0.938,-0.113
17.274,-0.338,0.936,-0.115
17.284,-0.340,0.941,-0.115
17.294,-0.338,0.938,-0.115
17.304,-0.334,0.939,-0.109
17.314,-0.332,0.936,-0.111
17.324,-0.330,0.932,-0.109
17.334,-0.332,0.932,-0.109
17.344,-0.332,0.926,-0.111
17.354,-0.334,0.928,-0.109
17.363,-0.332,0.934,-0.113
17.373,-0.330,0.936,-0.111
17.383,-0.328,0.939,-0.109
17.393,-0.326,0.936,-0.113
17.403,-0.324,0.928,-0.115
17.413,-0.322,0.922,-0.125
17.423,-0.324,0.934,-0.123
17.433,-0.326,0.951,-0.117
17.443,-0.326,0.965,-0.117
17.453,-0.330,0.982,-0.111
17.463,-0.342,0.992,-0.113
17.473,-0.346,0.984,-0.117
17.483,-0.342,0.965,-0.121
17.493,-0.334,0.947,-0.125
17.502,-0.328,0.934,-0.119
17.512,-0.322,0.932,-0.123
17.522,-0.318,0.928,-0.123
17.532,-0.314,0.926,-0.125
17.542,-0.305,0.922,-0.127
17.552,-0.303,0.922,-0.127
17.562,-0.305,0.924,-0.127
17.572,-0.309,0.928,-0.133
17.582,-0.318,0.938,-0.133
17.592,-0.318,0.947,-0.137
17.602,-0.318,0.947,-0.139
17.612,-0.316,0.947,-0.137
17.622,-0.318,0.941,-0.145
17.632,-0.320,0.938,-0.145
17.641,-0.320,0.939,-0.143
17.651,-0.314,0.945,-0.146
17.661,-0.314,0.949,-0.145
17.671,-0.311,0.947,-0.146
17.681,-0.311,0.945,-0.150
17.691,-0.311,0.943,-0.150
17.701,-0.311,0.938,-0.152
17.711,-0.316,0.943,-0.146
17.721,-0.320,0.951,-0.146
17.731,-0.322,0.955,-0.145
17.741,-0.314,0.953,-0.141
17.751,-0.312,0.947,-0.143
17.761,-0.311,0.941,-0.133
17.771,-0.312,0.947,-0.133
17.781,-0.309,0.941,-0.129
17.790,-0.305,0.938,-0.127
17.800,-0.309,0.936,-0.127
17.810,-0.312,0.938,-0.125
17.820,-0.316,0.939,-0.123
17.830,-0.320,0.945,-0.119
17.840,-0.320,0.951,-0.117
17.850,-0.320,0.943,-0.115
17.860,-0.318,0.939,-0.117
17.870,-0.320,0.938,-0.117
17.880,-0.320,0.934,-0.117
17.890,-0.318,0.930,-0.115
17.900,-0.312,0.922,-0.115
17.910,-0.318,0.922,-0.119
17.920,-0.322,0.930,-0.117
17.929,-0.328,0.936,-0.119
17.939,-0.322,0.936,-0.117
17.949,-0.320,0.932,-0.121
17.959,-0.318,0.926,-0.127
17.969,-0.318,0.924,-0.133
17.979,-0.316,0.926,-0.137
17.989,-0.314,0.934,-0.139
17.999,-0.318,0.943,-0.139
18.009,-0.318,0.955,-0.141
18.019,-0.316,0.957,-0.143
18.029,-0.312,0.957,-0.141
18.039,-0.307,0.951,-0.139
18.049,-0.305,0.943,-0.139
18.059,-0.299,0.945,-0.135
18.068,-0.297,0.951,-0.137
18.078,-0.287,0.955,-0.137
18.088,-0.289,0.955,-0.131
18.098,-0.287,0.949,-0.133
18.108,-0.289,0.941,-0.139
18.118,-0.289,0.936,-0.141
18.128,-0.293,0.939,-0.141
18.138,-0.299,0.949,-0.137
18.148,-0.303,0.955,-0.139
18.158,-0.297,0.965,-0.137
18.168,-0.299,0.971,-0.133
18.178,-0.299,0.963,-0.137
18.188,-0.303,0.955,-0.133
18.198,-0.307,0.953,-0.131
18.207,-0.309,0.961,-0.129
18.217,-0.305,0.969,-0.125
18.227,-0.297,0.971,-0.117
18.237,-0.295,0.963,-0.119
18.247,-0.291,0.949,-0.121
18.257,-0.293,0.939,-0.115
18.267,-0.299,0.939,-0.111
18.277,-0.299,0.951,-0.109
18.287,-0.303,0.955,-0.109
18.297,-0.305,0.955,-0.105
18.307,-0.309,0.963,-0.102
18.317,-0.309,0.965,-0.092
18.327,-0.309,0.975,-0.082
18.337,-0.307,0.971,-0.078
18.347,-0.299,0.957,-0.074
18.356,-0.301,0.951,-0.070
18.366,-0.299,0.949,-0.070
18.376,-0.309,0.938,-0.064
18.386,-0.316,0.943,-0.061
18.396,-0.326,0.945,-0.057
18.406,-0.334,0.951,-0.057
18.416,-0.338,0.955,-0.049
18.426,-0.344,0.955,-0.043
18.436,-0.342,0.953,-0.039
18.446,-0.340,0.943,-0.037
18.456,-0.344,0.932,-0.039
18.466,-0.350,0.928,-0.035
18.476,-0.354,0.936,-0.037
18.486,-0.359,0.947,-0.037
18.495,-0.363,0.949,-0.041
18.505,-0.363,0.959,-0.039
18.515,-0.363,0.963,-0.037
18.525,-0.363,0.963,-0.037
18.535,-0.361,0.955,-0.029
18.545,-0.363,0.951,-0.029
18.555,-0.359,0.951,-0.031
18.565,-0.355,0.949,-0.027
18.575,-0.350,0.941,-0.023
18.585,-0.352,0.939,-0.021
18.595,-0.355,0.934,-0.020
18.605,-0.359,0.934,-0.020
18.615,-0.365,0.934,-0.020
18.625,-0.371,0.934,-0.020
18.634,-0.377,0.939,-0.016
18.644,-0.379,0.939,-0.016
18.654,-0.383,0.939,-0.014
18.664,-0.379,0.936,-0.010
18.674,-0.375,0.934,-0.012
18.684,-0.379,0.934,-0.008
18.694,-0.391,0.949,0.002
18.704,-0.395,0.945,0.004
18.714,-0.398,0.936,0.004
18.724,-0.404,0.918,-0.004
18.734,-0.412,0.908,-0.002
18.744,-0.404,0.910,-0.002
18.754,-0.389,0.904,-0.002
18.764,-0.385,0.900,-0.006
18.773,-0.398,0.910,-0.010
18.783,-0.412,0.906,-0.018
18.793,-0.434,0.904,-0.027
18.803,-0.453,0.896,-0.033
18.813,-0.463,0.900,-0.035
18.823,-0.469,0.900,-0.039
18.833,-0.463,0.906,-0.037
18.843,-0.459,0.916,-0.031
18.853,-0.459,0.922,-0.033
18.863,-0.463,0.926,-0.029
18.873,-0.463,0.926,-0.029
18.883,-0.467,0.922,-0.033
18.893,-0.467,0.920,-0.033
18.903,-0.467,0.916,-0.039
18.913,-0.463,0.906,-0.041
18.922,-0.469,0.902,-0.043
18.932,-0.469,0.902,-0.039
18.942,-0.465,0.904,-0.039
18.952,-0.463,0.906,-0.037
18.962,-0.459,0.902,-0.039
18.972,-0.457,0.896,-0.039
18.982,-0.463,0.891,-0.041
18.992,-0.469,0.889,-0.039
19.002,-0.469,0.895,-0.037
19.012,-0.475,0.902,-0.041
19.022,-0.477,0.908,-0.037
19.032,-0.473,0.908,-0.033
19.042,-0.473,0.912,-0.031
19.052,-0.469,0.906,-0.033
19.061,-0.473,0.902,-0.029
19.071,-0.473,0.898,-0.031
19.081,-0.477,0.895,-0.031
19.091,-0.477,0.885,-0.031
19.101,-0.482,0.879,-0.029
19.111,-0.484,0.873,-0.021
19.121,-0.488,0.875,-0.020
19.131,-0.486,0.883,-0.014
19.141,-0.473,0.893,-0.008
19.151,-0.465,0.902,-0.004
19.161,-0.461,0.908,-0.004
19.171,-0.453,0.908,-0.006
19.181,-0.449,0.908,-0.010
19.191,-0.457,0.906,-0.016
19.200,-0.459,0.908,-0.020
19.210,-0.459,0.922,-0.018
19.220,-0.449,0.926,-0.018
19.230,-0.443,0.926,-0.020
19.240,-0.439,0.924,-0.020
19.250,-0.436,0.922,-0.020
19.260,-0.428,0.922,-0.021
19.270,-0.428,0.922,-0.021
19.280,-0.430,0.930,-0.021
19.290,-0.430,0.930,-0.023
19.300,-0.426,0.932,-0.027
19.310,-0.422,0.932,-0.025
19.320,-0.422,0.932,-0.027
19.330,-0.420,0.928,-0.027
19.339,-0.420,0.924,-0.025
19.349,-0.422,0.924,-0.029
19.359,-0.424,0.928,-0.025
19.369,-0.426,0.924,-0.027
19.379,-0.424,0.920,-0.027
19.389,-0.428,0.924,-0.029
19.399,-0.430,0.916,-0.029
19.409,-0.436,0.918,-0.027
19.419,-0.441,0.914,-0.031
19.429,-0.447,0.910,-0.029
19.439,-0.455,0.906,-0.037
19.449,-0.461,0.898,-0.039
19.459,-0.465,0.902,-0.035
19.469,-0.465,0.898,-0.037
19.479,-0.465,0.900,-0.035
19.488,-0.465,0.900,-0.035
19.498,-0.467,0.898,-0.031
19.508,-0.471,0.902,-0.035
19.518,-0.471,0.900,-0.029
19.528,-0.469,0.898,-0.033
19.538,-0.471,0.895,-0.035
19.548,-0.475,0.889,-0.033
19.558,-0.480,0.885,-0.039
19.568,-0.484,0.887,-0.039
19.578,-0.486,0.885,-0.041
19.588,-0.486,0.887,-0.039
19.598,-0.482,0.896,-0.039
19.608,-0.479,0.900,-0.039
19.618,-0.471,0.908,-0.035
19.627,-0.467,0.914,-0.037
19.637,-0.467,0.910,-0.039
19.647,-0.465,0.904,-0.043
19.657,-0.467,0.893,-0.043
19.667,-0.471,0.893,-0.045
19.677,-0.477,0.891,-0.043
19.687,-0.477,0.895,-0.047
19.697,-0.479,0.893,-0.047
19.707,-0.480,0.893,-0.049
19.717,-0.480,0.893,-0.047
19.727,-0.486,0.895,-0.049
19.737,-0.482,0.896,-0.053
19.747,-0.480,0.891,-0.051
19.757,-0.482,0.889,-0.049
19.766,-0.482,0.891,-0.049
19.776,-0.480,0.896,-0.049
19.786,-0.477,0.895,-0.053
19.796,-0.479,0.896,-0.051
19.806,-0.479,0.898,-0.051
19.816,-0.475,0.900,-0.049
19.826,-0.475,0.900,-0.049
19.836,-0.473,0.900,-0.051
19.846,-0.471,0.906,-0.057
19.856,-0.475,0.904,-0.055
19.866,-0.473,0.898,-0.055
19.876,-0.469,0.900,-0.053
19.886,-0.469,0.902,-0.055
19.896,-0.463,0.902,-0.053
19.905,-0.461,0.902,-0.053
19.915,-0.461,0.904,-0.057
19.925,-0.461,0.904,-0.059
19.935,-0.457,0.906,-0.053
19.945,-0.455,0.906,-0.057
19.955,-0.453,0.908,-0.055
19.965,-0.457,0.908,-0.055
19.975,-0.459,0.910,-0.059
19.985,-0.461,0.908,-0.053
19.995,-0.459,0.906,-0.055
20.005,-0.463,0.902,-0.055
20.015,-0.459,0.902,-0.053
20.025,-0.463,0.898,-0.055
20.035,-0.467,0.898,-0.051
20.044,-0.463,0.898,-0.053
20.054,-0.465,0.896,-0.051
20.064,-0.465,0.900,-0.049
20.074,-0.459,0.902,-0.049
20.084,-0.459,0.900,-0.053
20.094,-0.459,0.895,-0.053
20.104,-0.459,0.898,-0.055
20.114,-0.457,0.898,-0.055
20.124,-0.457,0.900,-0.055
20.134,-0.455,0.900,-0.055
20.144,-0.449,0.898,-0.053
20.154,-0.453,0.898,-0.057
20.164,-0.453,0.900,-0.059
20.174,-0.453,0.896,-0.057
20.184,-0.453,0.906,-0.057
20.193,-0.449,0.910,-0.057
20.203,-0.451,0.912,-0.057
20.213,-0.455,0.912,-0.057
20.223,-0.455,0.912,-0.061
20.233,-0.461,0.910,-0.062
20.243,-0.463,0.906,-0.064
20.253,-0.465,0.908,-0.064
20.263,-0.469,0.906,-0.068
20.273,-0.469,0.900,-0.066
20.283,-0.469,0.898,-0.064
20.293,-0.467,0.898,-0.066
20.303,-0.465,0.900,-0.062
20.313,-0.461,0.912,-0.059
20.323,-0.457,0.906,-0.064
20.332,-0.457,0.904,-0.062
20.342,-0.461,0.896,-0.068
20.352,-0.465,0.896,-0.064
20.362,-0.463,0.902,-0.061
20.372,-0.455,0.910,-0.062
20.382,-0.453,0.910,-0.059
20.392,-0.447,0.904,-0.061
20.402,-0.447,0.898,-0.059
20.412,-0.449,0.902,-0.059
20.422,-0.447,0.904,-0.061
20.432,-0.449,0.898,-0.057
20.442,-0.451,0.904,-0.057
20.452,-0.455,0.900,-0.059
20.462,-0.455,0.900,-0.059
20.471,-0.461,0.902,-0.061
20.481,-0.463,0.902,-0.061
20.491,-0.463,0.908,-0.059
20.501,-0.463,0.910,-0.057
20.511,-0.461,0.906,-0.059
20.521,-0.461,0.906,-0.061
20.531,-0.457,0.906,-0.059
20.541,-0.457,0.900,-0.057
20.551,-0.461,0.898,-0.055
20.561,-0.459,0.904,-0.059
20.571,-0.457,0.910,-0.055
20.581,-0.457,0.912,-0.053
20.591,-0.457,0.908,-0.057
20.601,-0.457,0.906,-0.055
20.610,-0.455,0.904,-0.057
20.620,-0.455,0.904,-0.059
20.630,-0.453,0.904,-0.057
20.640,-0.453,0.906,-0.057
20.650,-0.453,0.904,-0.057
20.660,-0.451,0.906,-0.053
20.670,-0.453,0.906,-0.055
20.680,-0.451,0.904,-0.055
20.690,-0.453,0.900,-0.055
20.700,-0.453,0.902,-0.055
20.710,-0.451,0.906,-0.057
20.720,-0.453,0.902,-0.057
20.730,-0.453,0.902,-0.055
20.740,-0.455,0.904,-0.057
20.750,-0.453,0.908,-0.055
20.759,-0.455,0.904,-0.061
20.769,-0.451,0.904,-0.057
20.779,-0.449,0.902,-0.057
20.789,-0.451,0.900,-0.059
20.799,-0.455,0.902,-0.061
20.809,-0.455,0.904,-0.057
20.819,-0.457,0.904,-0.059
20.829,-0.459,0.902,-0.057
20.839,-0.457,0.904,-0.061
20.849,-0.457,0.904,-0.061
20.859,-0.455,0.902,-0.059
20.869,-0.455,0.904,-0.059
20.879,-0.453,0.902,-0.061
20.889,-0.459,0.906,-0.062
20.898,-0.463,0.904,-0.059
20.908,-0.463,0.908,-0.062
20.918,-0.467,0.906,-0.061
20.928,-0.465,0.908,-0.062
20.938,-0.463,0.902,-0.064
20.948,-0.461,0.906,-0.062
20.958,-0.461,0.902,-0.068
20.968,-0.461,0.902,-0.066
20.978,-0.457,0.904,-0.062
20.988,-0.453,0.906,-0.061
20.998,-0.455,0.910,-0.059
21.008,-0.453,0.906,-0.062
21.018,-0.451,0.902,-0.062
21.028,-0.457,0.895,-0.061
21.037,-0.455,0.895,-0.062
21.047,-0.461,0.900,-0.061
21.057,-0.459,0.906,-0.061
21.067,-0.459,0.906,-0.061
21.077,-0.461,0.906,-0.062
21.087,-0.461,0.898,-0.062
21.097,-0.459,0.898,-0.064
21.107,-0.463,0.898,-0.062
21.117,-0.463,0.896,-0.062
21.127,-0.463,0.896,-0.064
21.137,-0.465,0.900,-0.064
21.147,-0.463,0.900,-0.061
21.157,-0.463,0.904,-0.062
21.167,-0.465,0.902,-0.064
21.176,-0.461,0.906,-0.066
21.186,-0.463,0.908,-0.062
21.196,-0.459,0.908,-0.064
21.206,-0.457,0.902,-0.059
21.216,-0.457,0.904,-0.062
21.226,-0.457,0.900,-0.061
21.236,-0.457,0.900,-0.062
21.246,-0.461,0.904,-0.061
21.256,-0.461,0.910,-0.061
21.266,-0.457,0.906,-0.062
21.276,-0.457,0.904,-0.064
21.286,-0.459,0.902,-0.066
21.296,-0.461,0.902,-0.064
21.306,-0.459,0.904,-0.064
21.316,-0.461,0.904,-0.062
21.325,-0.457,0.904,-0.064
21.335,-0.459,0.908,-0.062
21.345,-0.459,0.908,-0.061
21.355,-0.459,0.902,-0.062
21.365,-0.457,0.904,-0.062
21.375,-0.455,0.904,-0.066
21.385,-0.457,0.898,-0.061
21.395,-0.461,0.898,-0.062
21.405,-0.459,0.900,-0.057
21.415,-0.459,0.900,-0.062
21.425,-0.459,0.902,-0.061
21.435,-0.461,0.902,-0.059
21.445,-0.463,0.902,-0.062
21.455,-0.465,0.900,-0.057
21.464,-0.461,0.902,-0.062
21.474,-0.459,0.898,-0.062
21.484,-0.461,0.900,-0.057
21.494,-0.455,0.900,-0.064
21.504,-0.459,0.904,-0.061
21.514,-0.461,0.902,-0.061
21.524,-0.461,0.902,-0.059
21.534,-0.459,0.904,-0.061
21.544,-0.459,0.900,-0.064
21.554,-0.461,0.900,-0.062
21.564,-0.463,0.904,-0.059
21.574,-0.461,0.904,-0.062
21.584,-0.459,0.906,-0.061
21.594,-0.457,0.900,-0.061
21.603,-0.461,0.902,-0.064
21.613,-0.459,0.906,-0.064
21.623,-0.459,0.908,-0.061
21.633,-0.455,0.904,-0.061
21.643,-0.459,0.900,-0.062
21.653,-0.461,0.900,-0.062
21.663,-0.455,0.904,-0.061
21.673,-0.455,0.908,-0.064
21.683,-0.455,0.912,-0.062
21.693,-0.457,0.906,-0.059
21.703,-0.457,0.898,-0.066
21.713,-0.455,0.895,-0.066
21.723,-0.457,0.898,-0.064
21.733,-0.457,0.904,-0.061
21.742,-0.457,0.910,-0.061
21.752,-0.459,0.908,-0.061
21.762,-0.459,0.904,-0.062
21.772,-0.459,0.900,-0.062
21.782,-0.459,0.902,-0.066
21.792,-0.461,0.904,-0.064
21.802,-0.459,0.898,-0.066
21.812,-0.457,0.898,-0.062
21.822,-0.457,0.898,-0.064
21.832,-0.459,0.902,-0.064
21.842,-0.459,0.902,-0.066
21.852,-0.459,0.906,-0.062
21.862,-0.461,0.908,-0.062
21.872,-0.459,0.904,-0.064
21.882,-0.459,0.906,-0.062
21.891,-0.457,0.906,-0.064
21.901,-0.457,0.902,-0.066
21.911,-0.457,0.904,-0.068
21.921,-0.455,0.900,-0.066
21.931,-0.453,0.906,-0.066
21.941,-0.455,0.912,-0.064
21.951,-0.451,0.908,-0.062
21.961,-0.451,0.904,-0.066
21.971,-0.451,0.902,-0.062
21.981,-0.457,0.902,-0.064
21.991,-0.455,0.906,-0.064
22.001,-0.457,0.906,-0.064
22.011,-0.455,0.908,-0.062
22.021,-0.455,0.908,-0.062
22.030,-0.457,0.904,-0.062
22.040,-0.457,0.904,-0.061
22.050,-0.459,0.900,-0.064
22.060,-0.453,0.900,-0.061
22.070,-0.455,0.898,-0.062
22.080,-0.455,0.904,-0.062
22.090,-0.457,0.902,-0.061
22.100,-0.455,0.900,-0.062
22.110,-0.457,0.902,-0.064
22.120,-0.459,0.904,-0.064
22.130,-0.461,0.904,-0.061
22.140,-0.457,0.902,-0.066
22.150,-0.459,0.906,-0.064
22.160,-0.459,0.906,-0.064
22.169,-0.457,0.906,-0.066
22.179,-0.459,0.898,-0.064
22.189,-0.457,0.902,-0.064
22.199,-0.459,0.900,-0.064
22.209,-0.457,0.902,-0.064
22.219,-0.457,0.902,-0.061
22.229,-0.457,0.902,-0.062
22.239,-0.459,0.902,-0.061
22.249,-0.463,0.906,-0.061
22.259,-0.457,0.902,-0.062
22.269,-0.457,0.902,-0.064
22.279,-0.455,0.902,-0.059
22.289,-0.461,0.902,-0.062
22.299,-0.461,0.902,-0.064
22.308,-0.459,0.902,-0.062
22.318,-0.463,0.902,-0.064
22.328,-0.461,0.900,-0.062
22.338,-0.461,0.900,-0.066
22.348,-0.459,0.906,-0.062
22.358,-0.459,0.902,-0.066
22.368,-0.459,0.902,-0.066
22.378,-0.459,0.898,-0.062
22.388,-0.455,0.904,-0.062
22.398,-0.457,0.908,-0.061
22.408,-0.455,0.910,-0.062
22.418,-0.453,0.906,-0.062
22.428,-0.455,0.896,-0.066
22.438,-0.459,0.893,-0.064
22.448,-0.457,0.895,-0.066
22.457,-0.461,0.898,-0.064
22.467,-0.463,0.908,-0.064
22.477,-0.461,0.910,-0.066
22.487,-0.463,0.908,-0.068
22.497,-0.463,0.906,-0.064
22.507,-0.461,0.902,-0.066
22.517,-0.461,0.900,-0.066
22.527,-0.459,0.896,-0.064
22.537,-0.457,0.895,-0.062
22.547,-0.463,0.895,-0.066
22.557,-0.461,0.900,-0.064
22.567,-0.461,0.902,-0.066
22.577,-0.461,0.902,-0.066
22.587,-0.461,0.908,-0.066
22.596,-0.457,0.908,-0.062
22.606,-0.457,0.904,-0.066
22.616,-0.455,0.906,-0.064
22.626,-0.453,0.904,-0.066
22.636,-0.455,0.902,-0.062
22.646,-0.457,0.896,-0.066
22.656,-0.457,0.902,-0.066
22.666,-0.455,0.906,-0.062
22.676,-0.457,0.908,-0.064
22.686,-0.455,0.908,-0.066
22.696,-0.453,0.904,-0.064
22.706,-0.453,0.906,-0.066
22.716,-0.455,0.908,-0.066
22.726,-0.451,0.910,-0.062
22.735,-0.453,0.912,-0.062
22.745,-0.449,0.908,-0.061
22.755,-0.449,0.906,-0.062
22.765,-0.449,0.904,-0.066
22.775,-0.451,0.904,-0.064
22.785,-0.451,0.898,-0.062
22.795,-0.449,0.902,-0.062
22.805,-0.451,0.904,-0.062
22.815,-0.453,0.902,-0.064
22.825,-0.451,0.904,-0.061
22.835,-0.455,0.902,-0.061
22.845,-0.459,0.902,-0.062
22.855,-0.459,0.904,-0.062
22.865,-0.459,0.904,-0.062
22.874,-0.461,0.906,-0.061
22.884,-0.461,0.904,-0.062
22.894,-0.459,0.904,-0.062
22.904,-0.457,0.904,-0.059
22.914,-0.455,0.904,-0.061
22.924,-0.457,0.902,-0.062
22.934,-0.457,0.906,-0.061
22.944,-0.455,0.906,-0.061
22.954,-0.453,0.908,-0.059
22.964,-0.453,0.906,-0.061
22.974,-0.455,0.904,-0.059
22.984,-0.453,0.904,-0.055
22.994,-0.453,0.904,-0.059
23.004,-0.455,0.904,-0.055
23.013,-0.455,0.904,-0.059
23.023,-0.457,0.904,-0.059
23.033,-0.457,0.902,-0.059
23.043,-0.461,0.904,-0.059
23.053,-0.459,0.904,-0.059
23.063,-0.457,0.906,-0.057
23.073,-0.459,0.908,-0.059
23.083,-0.459,0.904,-0.062
23.093,-0.455,0.902,-0.055
23.103,-0.455,0.902,-0.057
23.113,-0.453,0.904,-0.061
23.123,-0.451,0.908,-0.055
23.133,-0.449,0.910,-0.057
23.143,-0.447,0.910,-0.062
23.153,-0.445,0.902,-0.059
23.162,-0.457,0.898,-0.062
23.172,-0.457,0.902,-0.059
23.182,-0.453,0.908,-0.061
23.192,-0.451,0.906,-0.057
23.202,-0.453,0.908,-0.053
23.212,-0.453,0.908,-0.057
23.222,-0.449,0.906,-0.061
23.232,-0.451,0.904,-0.062
23.242,-0.453,0.902,-0.061
23.252,-0.449,0.902,-0.064
23.262,-0.451,0.904,-0.064
23.272,-0.455,0.904,-0.064
23.282,-0.455,0.904,-0.062
23.292,-0.457,0.908,-0.064
23.301,-0.453,0.910,-0.066
23.311,-0.455,0.910,-0.064
23.321,-0.453,0.910,-0.062
23.331,-0.451,0.910,-0.061
23.341,-0.451,0.906,-0.061
23.351,-0.453,0.904,-0.061
23.361,-0.453,0.904,-0.062
23.371,-0.453,0.900,-0.064
23.381,-0.453,0.904,-0.064
23.391,-0.451,0.906,-0.061
23.401,-0.457,0.904,-0.059
23.411,-0.455,0.906,-0.061
23.421,-0.455,0.904,-0.064
23.431,-0.457,0.904,-0.062
23.440,-0.455,0.902,-0.061
23.450,-0.455,0.906,-0.062
23.460,-0.455,0.906,-0.061
23.470,-0.455,0.908,-0.061
23.480,-0.459,0.908,-0.059
23.490,-0.453,0.906,-0.061
23.500,-0.453,0.904,-0.066
23.510,-0.455,0.902,-0.059
23.520,-0.459,0.906,-0.059
23.530,-0.453,0.908,-0.059
23.540,-0.455,0.906,-0.064
23.550,-0.453,0.902,-0.061
23.560,-0.457,0.902,-0.061
23.570,-0.453,0.904,-0.064
23.579,-0.453,0.904,-0.062
23.589,-0.453,0.906,-0.062
23.599,-0.457,0.908,-0.062
23.609,-0.455,0.908,-0.062
23.619,-0.455,0.906,-0.064
23.629,-0.457,0.904,-0.062
23.639,-0.457,0.906,-0.062
23.649,-0.455,0.906,-0.062
23.659,-0.455,0.904,-0.064
23.669,-0.457,0.904,-0.061
23.679,-0.455,0.904,-0.062
23.689,-0.453,0.902,-0.062
23.699,-0.453,0.904,-0.061
23.709,-0.457,0.902,-0.061
23.719,-0.459,0.900,-0.061
23.728,-0.461,0.906,-0.062
23.738,-0.457,0.902,-0.062
23.748,-0.457,0.904,-0.059
23.758,-0.459,0.908,-0.057
23.768,-0.459,0.906,-0.057
23.778,-0.459,0.906,-0.057
23.788,-0.457,0.904,-0.059
23.798,-0.457,0.904,-0.059
23.808,-0.455,0.904,-0.055
23.818,-0.455,0.912,-0.059
23.828,-0.455,0.908,-0.055
23.838,-0.451,0.904,-0.059
23.848,-0.453,0.896,-0.061
23.858,-0.457,0.895,-0.061
23.867,-0.457,0.900,-0.057
23.877,-0.459,0.904,-0.055
23.887,-0.459,0.910,-0.055
23.897,-0.457,0.906,-0.057
23.907,-0.455,0.906,-0.057
23.917,-0.459,0.904,-0.059
23.927,-0.455,0.900,-0.057
23.937,-0.459,0.902,-0.059
23.947,-0.457,0.902,-0.057
23.957,-0.455,0.900,-0.057
23.967,-0.457,0.900,-0.053
23.977,-0.459,0.904,-0.057
23.987,-0.459,0.904,-0.059
23.997,-0.461,0.908,-0.057
24.006,-0.463,0.908,-0.059
24.016,-0.455,0.908,-0.057
24.026,-0.457,0.906,-0.055
24.036,-0.455,0.904,-0.059
24.046,-0.459,0.904,-0.061
24.056,-0.457,0.904,-0.062
24.066,-0.459,0.900,-0.059
24.076,-0.461,0.904,-0.061
24.086,-0.457,0.908,-0.061
24.096,-0.459,0.906,-0.057
24.106,-0.455,0.900,-0.061
24.116,-0.455,0.904,-0.059
24.126,-0.457,0.906,-0.061
24.136,-0.457,0.906,-0.059
24.145,-0.451,0.906,-0.061
24.155,-0.455,0.908,-0.061
24.165,-0.455,0.906,-0.061
24.175,-0.453,0.906,-0.062
24.185,-0.453,0.906,-0.062
24.195,-0.451,0.904,-0.059
24.205,-0.457,0.906,-0.061
24.215,-0.453,0.900,-0.061
24.225,-0.451,0.904,-0.061
24.235,-0.453,0.904,-0.059
24.245,-0.455,0.904,-0.064
24.255,-0.455,0.900,-0.061
24.265,-0.457,0.902,-0.059
24.275,-0.459,0.902,-0.061
24.285,-0.459,0.904,-0.061
24.294,-0.459,0.904,-0.061
24.304,-0.457,0.904,-0.064
24.314,-0.459,0.906,-0.061
24.324,-0.459,0.904,-0.062
24.334,-0.457,0.902,-0.061
24.344,-0.455,0.902,-0.059
24.354,-0.455,0.902,-0.061
24.364,-0.455,0.908,-0.061
24.374,-0.455,0.906,-0.062
24.384,-0.457,0.904,-0.064
24.394,-0.455,0.908,-0.062
24.404,-0.453,0.904,-0.061
24.414,-0.457,0.904,-0.062
24.424,-0.455,0.906,-0.061
24.433,-0.459,0.904,-0.064
24.443,-0.457,0.904,-0.062
24.453,-0.457,0.906,-0.061
24.463,-0.459,0.906,-0.061
24.473,-0.459,0.908,-0.064
24.483,-0.455,0.902,-0.066
24.493,-0.461,0.904,-0.061
24.503,-0.457,0.904,-0.061
24.513,-0.455,0.908,-0.061
24.523,-0.455,0.912,-0.062
24.533,-0.453,0.902,-0.061
24.543,-0.451,0.896,-0.064
24.553,-0.455,0.895,-0.062
24.563,-0.455,0.902,-0.062
24.572,-0.459,0.908,-0.064
24.582,-0.457,0.912,-0.061
24.592,-0.453,0.912,-0.059
24.602,-0.453,0.904,-0.062
24.612,-0.453,0.904,-0.062
24.622,-0.457,0.902,-0.062
24.632,-0.457,0.900,-0.062
24.642,-0.457,0.900,-0.064
24.652,-0.457,0.900,-0.066
24.662,-0.455,0.904,-0.064
24.672,-0.455,0.906,-0.062
24.682,-0.455,0.904,-0.064
24.692,-0.455,0.908,-0.062
24.702,-0.455,0.908,-0.062
24.711,-0.453,0.910,-0.062
24.721,-0.453,0.910,-0.062
24.731,-0.455,0.906,-0.061
24.741,-0.453,0.906,-0.064
24.751,-0.455,0.902,-0.062
24.761,-0.453,0.904,-0.064
24.771,-0.453,0.908,-0.062
24.781,-0.455,0.906,-0.062
24.791,-0.451,0.906,-0.062
24.801,-0.449,0.902,-0.061
24.811,-0.451,0.902,-0.064
24.821,-0.457,0.906,-0.064
24.831,-0.455,0.908,-0.066
24.841,-0.453,0.908,-0.066
24.851,-0.451,0.908,-0.064
24.860,-0.451,0.906,-0.061
24.870,-0.451,0.908,-0.064
24.880,-0.451,0.904,-0.064
24.890,-0.451,0.902,-0.062
24.900,-0.451,0.902,-0.062
24.910,-0.451,0.902,-0.068
24.920,-0.449,0.902,-0.064
24.930,-0.457,0.902,-0.066
24.940,-0.453,0.902,-0.062
24.950,-0.453,0.904,-0.064
24.960,-0.455,0.904,-0.064
24.970,-0.457,0.904,-0.064
24.980,-0.457,0.904,-0.066
24.990,-0.455,0.906,-0.066
24.999,-0.457,0.906,-0.066
25.009,-0.457,0.906,-0.066
25.019,-0.455,0.904,-0.064
25.029,-0.457,0.904,-0.064
25.039,-0.455,0.906,-0.064
25.049,-0.453,0.904,-0.064
25.059,-0.453,0.906,-0.066
25.069,-0.457,0.906,-0.062
25.079,-0.455,0.906,-0.062
25.089,-0.455,0.908,-0.064
25.099,-0.453,0.906,-0.064
25.109,-0.453,0.906,-0.062
25.119,-0.457,0.906,-0.062
25.129,-0.455,0.906,-0.061
25.138,-0.455,0.902,-0.064
25.148,-0.455,0.902,-0.066
25.158,-0.457,0.902,-0.066
25.168,-0.457,0.906,-0.064
25.178,-0.457,0.906,-0.062
25.188,-0.459,0.908,-0.064
25.198,-0.453,0.902,-0.062
25.208,-0.455,0.898,-0.061
25.218,-0.457,0.904,-0.064
25.228,-0.451,0.908,-0.059
25.238,-0.449,0.914,-0.062
25.248,-0.449,0.912,-0.059
25.258,-0.447,0.906,-0.061
25.268,-0.451,0.898,-0.064
25.277,-0.451,0.898,-0.066
25.287,-0.457,0.904,-0.064
25.297,-0.457,0.908,-0.062
25.307,-0.457,0.910,-0.066
25.317,-0.451,0.906,-0.062
25.327,-0.453,0.902,-0.064
25.337,-0.453,0.900,-0.062
25.347,-0.457,0.902,-0.062
25.357,-0.459,0.902,-0.066
25.367,-0.463,0.906,-0.066
25.377,-0.461,0.900,-0.064
25.387,-0.457,0.904,-0.066
25.397,-0.461,0.906,-0.062
25.407,-0.461,0.904,-0.066
25.417,-0.457,0.910,-0.064
25.426,-0.453,0.908,-0.062
25.436,-0.451,0.904,-0.062
25.446,-0.451,0.906,-0.066
25.456,-0.449,0.904,-0.064
25.466,-0.451,0.906,-0.066
25.476,-0.453,0.902,-0.066
25.486,-0.453,0.904,-0.062
25.496,-0.453,0.908,-0.066
25.506,-0.451,0.910,-0.062
25.516,-0.447,0.910,-0.068
25.526,-0.445,0.904,-0.068
25.536,-0.451,0.904,-0.068
25.546,-0.449,0.908,-0.070
25.556,-0.451,0.904,-0.068
25.565,-0.449,0.906,-0.064
25.575,-0.447,0.908,-0.066
25.585,-0.449,0.908,-0.070
25.595,-0.451,0.904,-0.066
25.605,-0.449,0.906,-0.064
25.615,-0.451,0.906,-0.068
25.625,-0.451,0.906,-0.064
25.635,-0.449,0.904,-0.066
25.645,-0.451,0.904,-0.066
25.655,-0.451,0.906,-0.066
25.665,-0.451,0.902,-0.070
25.675,-0.453,0.906,-0.066
25.685,-0.453,0.906,-0.066
25.695,-0.453,0.908,-0.068
25.704,-0.457,0.908,-0.064
25.714,-0.459,0.908,-0.066
25.724,-0.455,0.910,-0.066
25.734,-0.453,0.906,-0.066
25.744,-0.453,0.908,-0.066
25.754,-0.453,0.906,-0.064
25.764,-0.453,0.906,-0.066
25.774,-0.451,0.908,-0.064
25.784,-0.453,0.904,-0.062
25.794,-0.451,0.908,-0.066
25.804,-0.449,0.910,-0.062
25.814,-0.447,0.910,-0.062
25.824,-0.451,0.910,-0.062
25.834,-0.451,0.908,-0.064
25.843,-0.449,0.904,-0.061
25.853,-0.455,0.904,-0.061
25.863,-0.453,0.906,-0.064
25.873,-0.453,0.908,-0.064
25.883,-0.457,0.906,-0.059
25.893,-0.453,0.910,-0.064
25.903,-0.457,0.910,-0.062
25.913,-0.457,0.906,-0.059
25.923,-0.455,0.906,-0.061
25.933,-0.453,0.900,-0.062
25.943,-0.455,0.902,-0.059
25.953,-0.451,0.906,-0.059
25.963,-0.447,0.910,-0.062
25.973,-0.447,0.912,-0.059
25.982,-0.447,0.916,-0.057
25.992,-0.447,0.912,-0.057
26.002,-0.447,0.904,-0.064
26.012,-0.451,0.898,-0.062
26.022,-0.455,0.898,-0.059
26.032,-0.455,0.904,-0.061
26.042,-0.455,0.908,-0.059
26.052,-0.451,0.910,-0.059
26.062,-0.453,0.908,-0.057
26.072,-0.449,0.906,-0.061
26.082,-0.451,0.906,-0.059
26.092,-0.453,0.904,-0.061
26.102,-0.453,0.904,-0.062
26.112,-0.453,0.902,-0.061
26.122,-0.453,0.904,-0.059
26.131,-0.453,0.904,-0.059
26.141,-0.453,0.906,-0.061
26.151,-0.453,0.908,-0.059
26.161,-0.455,0.910,-0.059
26.171,-0.453,0.912,-0.061
26.181,-0.449,0.910,-0.061
26.191,-0.449,0.906,-0.061
26.201,-0.451,0.906,-0.062
26.211,-0.447,0.906,-0.062
26.221,-0.451,0.904,-0.064
26.231,-0.447,0.908,-0.062
26.241,-0.445,0.912,-0.062
26.251,-0.447,0.908,-0.059
26.261,-0.445,0.904,-0.061
26.270,-0.445,0.908,-0.064
26.280,-0.453,0.908,-0.062
26.290,-0.447,0.912,-0.062
26.300,-0.449,0.914,-0.061
26.310,-0.445,0.912,-0.062
26.320,-0.445,0.912,-0.061
26.330,-0.443,0.910,-0.061
26.340,-0.443,0.906,-0.066
26.350,-0.445,0.906,-0.061
26.360,-0.445,0.904,-0.062
26.370,-0.447,0.906,-0.064
26.380,-0.447,0.906,-0.061
26.390,-0.449,0.908,-0.064
26.400,-0.447,0.908,-0.062
26.409,-0.449,0.908,-0.066
26.419,-0.449,0.908,-0.064
26.429,-0.449,0.908,-0.066
26.439,-0.451,0.910,-0.066
26.449,-0.453,0.908,-0.064
26.459,-0.451,0.906,-0.062
26.469,-0.451,0.906,-0.064
26.479,-0.453,0.908,-0.061
26.489,-0.449,0.908,-0.062
26.499,-0.451,0.906,-0.062
26.509,-0.449,0.906,-0.064
26.519,-0.451,0.908,-0.062
26.529,-0.453,0.908,-0.064
26.539,-0.453,0.910,-0.062
26.548,-0.449,0.906,-0.062
26.558,-0.453,0.904,-0.061
26.568,-0.453,0.906,-0.064
26.578,-0.455,0.906,-0.064
26.588,-0.453,0.906,-0.062
26.598,-0.455,0.906,-0.061
26.608,-0.457,0.904,-0.064
26.618,-0.455,0.906,-0.061
26.628,-0.455,0.904,-0.062
26.638,-0.455,0.908,-0.064
26.648,-0.455,0.910,-0.066
26.658,-0.453,0.904,-0.061
26.668,-0.455,0.906,-0.064
26.678,-0.449,0.904,-0.064
26.688,-0.447,0.910,-0.062
26.697,-0.449,0.910,-0.066
26.707,-0.449,0.910,-0.061
26.717,-0.451,0.904,-0.064
26.727,-0.453,0.896,-0.064
26.737,-0.455,0.906,-0.062
26.747,-0.451,0.910,-0.061
26.757,-0.455,0.910,-0.064
26.767,-0.451,0.908,-0.062
26.777,-0.449,0.908,-0.064
26.787,-0.449,0.904,-0.062
26.797,-0.447,0.904,-0.062
26.807,-0.453,0.906,-0.064
26.817,-0.451,0.904,-0.062
26.827,-0.449,0.904,-0.062
26.836,-0.455,0.906,-0.064
26.846,-0.455,0.910,-0.061
26.856,-0.455,0.906,-0.062
26.866,-0.453,0.906,-0.062
26.876,-0.451,0.908,-0.061
26.886,-0.451,0.908,-0.061
26.896,-0.451,0.910,-0.061
26.906,-0.451,0.910,-0.066
26.916,-0.451,0.908,-0.062
26.926,-0.451,0.906,-0.061
26.936,-0.451,0.908,-0.061
26.946,-0.449,0.908,-0.061
26.956,-0.449,0.914,-0.061
26.966,-0.447,0.914,-0.064
26.975,-0.449,0.910,-0.061
26.985,-0.447,0.906,-0.061
26.995,-0.449,0.904,-0.062
27.005,-0.451,0.904,-0.061
27.015,-0.451,0.908,-0.059
27.025,-0.451,0.912,-0.062
27.035,-0.451,0.912,-0.062
27.045,-0.451,0.914,-0.061
27.055,-0.449,0.906,-0.057
27.065,-0.449,0.908,-0.062
27.075,-0.453,0.902,-0.062
27.085,-0.453,0.904,-0.057
27.095,-0.453,0.900,-0.062
27.105,-0.451,0.904,-0.057
27.114,-0.453,0.906,-0.061
27.124,-0.453,0.906,-0.061
27.134,-0.457,0.906,-0.059
27.144,-0.455,0.906,-0.061
27.154,-0.455,0.908,-0.062
27.164,-0.455,0.904,-0.062
27.174,-0.455,0.906,-0.061
27.184,-0.455,0.906,-0.061
27.194,-0.453,0.906,-0.061
27.204,-0.451,0.904,-0.061
27.214,-0.455,0.904,-0.059
27.224,-0.457,0.902,-0.062
27.234,-0.453,0.908,-0.061
27.244,-0.457,0.908,-0.057
27.254,-0.453,0.908,-0.059
27.263,-0.451,0.910,-0.059
27.273,-0.451,0.906,-0.064
27.283,-0.453,0.908,-0.059
27.293,-0.449,0.904,-0.059
27.303,-0.449,0.908,-0.061
27.313,-0.447,0.910,-0.061
27.323,-0.451,0.906,-0.061
27.333,-0.453,0.908,-0.062
27.343,-0.451,0.906,-0.057
27.353,-0.455,0.908,-0.059
27.363,-0.455,0.910,-0.061
27.373,-0.451,0.912,-0.061
27.383,-0.451,0.904,-0.057
27.393,-0.453,0.908,-0.059
27.402,-0.447,0.908,-0.057
27.412,-0.447,0.912,-0.062
27.422,-0.447,0.910,-0.059
27.432,-0.447,0.906,-0.059
27.442,-0.449,0.896,-0.061
27.452,-0.451,0.895,-0.061
27.462,-0.455,0.904,-0.059
27.472,-0.455,0.910,-0.057
27.482,-0.455,0.914,-0.057
27.492,-0.451,0.914,-0.059
27.502,-0.449,0.908,-0.059
27.512,-0.449,0.904,-0.059
27.522,-0.451,0.902,-0.061
27.532,-0.451,0.902,-0.062
27.541,-0.455,0.900,-0.059
27.551,-0.453,0.902,-0.062
27.561,-0.453,0.908,-0.061
27.571,-0.453,0.906,-0.061
27.581,-0.455,0.908,-0.061
27.591,-0.451,0.912,-0.059
27.601,-0.451,0.912,-0.059
27.611,-0.449,0.912,-0.062
27.621,-0.449,0.910,-0.057
27.631,-0.451,0.908,-0.057
27.641,-0.451,0.906,-0.062
27.651,-0.451,0.902,-0.062
27.661,-0.453,0.906,-0.064
27.671,-0.449,0.910,-0.059
27.680,-0.455,0.912,-0.061
27.690,-0.449,0.910,-0.059
27.700,-0.451,0.906,-0.061
27.710,-0.449,0.902,-0.061
27.720,-0.449,0.908,-0.061
27.730,-0.453,0.908,-0.061
27.740,-0.453,0.912,-0.061
27.750,-0.451,0.910,-0.062
27.760,-0.451,0.910,-0.062
27.770,-0.451,0.910,-0.059
27.780,-0.449,0.910,-0.059
27.790,-0.451,0.906,-0.057
27.800,-0.451,0.906,-0.059
27.810,-0.449,0.902,-0.061
27.820,-0.453,0.904,-0.061
27.829,-0.451,0.904,-0.059
27.839,-0.451,0.904,-0.059
27.849,-0.451,0.904,-0.064
27.859,-0.451,0.906,-0.062
27.869,-0.453,0.906,-0.061
27.879,-0.453,0.908,-0.059
27.889,-0.453,0.908,-0.062
27.899,-0.453,0.908,-0.064
27.909,-0.453,0.906,-0.061
27.919,-0.455,0.906,-0.062
27.929,-0.451,0.904,-0.064
27.939,-0.453,0.904,-0.062
27.949,-0.455,0.908,-0.064
27.959,-0.451,0.908,-0.062
27.968,-0.451,0.906,-0.061
27.978,-0.451,0.908,-0.062
27.988,-0.449,0.908,-0.061
27.998,-0.453,0.908,-0.061
28.008,-0.453,0.906,-0.062
28.018,-0.451,0.906,-0.061
28.028,-0.449,0.906,-0.061
28.038,-0.451,0.904,-0.059
28.048,-0.455,0.908,-0.062
28.058,-0.455,0.908,-0.064
28.068,-0.457,0.906,-0.061
28.078,-0.455,0.906,-0.061
28.088,-0.457,0.908,-0.061
28.098,-0.455,0.910,-0.061
28.107,-0.451,0.906,-0.061
28.117,-0.455,0.904,-0.059
28.127,-0.453,0.904,-0.059
28.137,-0.449,0.906,-0.059
28.147,-0.449,0.912,-0.062
28.157,-0.449,0.912,-0.057
28.167,-0.449,0.910,-0.059
28.177,-0.447,0.902,-0.061
28.187,-0.451,0.896,-0.062
28.197,-0.453,0.900,-0.062
28.207,-0.455,0.908,-0.059
28.217,-0.455,0.912,-0.061
28.227,-0.451,0.910,-0.059
28.237,-0.451,0.912,-0.059
28.246,-0.451,0.908,-0.057
28.256,-0.455,0.904,-0.061
28.266,-0.453,0.906,-0.064
28.276,-0.455,0.904,-0.064
28.286,-0.455,0.904,-0.059
28.296,-0.455,0.904,-0.059
28.306,-0.453,0.906,-0.062
28.316,-0.453,0.908,-0.061
28.326,-0.453,0.910,-0.059
28.336,-0.455,0.908,-0.061
28.346,-0.451,0.914,-0.061
28.356,-0.451,0.912,-0.062
28.366,-0.451,0.908,-0.061
28.376,-0.451,0.906,-0.061
28.386,-0.449,0.904,-0.061
28.395,-0.451,0.906,-0.062
28.405,-0.451,0.906,-0.059
28.415,-0.451,0.912,-0.061
28.425,-0.451,0.908,-0.059
28.435,-0.447,0.908,-0.061
28.445,-0.453,0.906,-0.061
28.455,-0.453,0.904,-0.061
28.465,-0.449,0.908,-0.062
28.475,-0.451,0.910,-0.064
28.485,-0.447,0.912,-0.061
28.495,-0.447,0.912,-0.059
28.505,-0.445,0.910,-0.059
28.515,-0.449,0.908,-0.061
28.525,-0.449,0.906,-0.061
28.534,-0.449,0.906,-0.059
28.544,-0.451,0.904,-0.062
28.554,-0.449,0.906,-0.059
28.564,-0.453,0.908,-0.062
28.574,-0.449,0.908,-0.059
28.584,-0.451,0.906,-0.061
28.594,-0.453,0.908,-0.061
28.604,-0.455,0.908,-0.059
28.614,-0.455,0.906,-0.061
28.624,-0.453,0.908,-0.062
28.634,-0.455,0.910,-0.061
28.644,-0.455,0.906,-0.062
28.654,-0.457,0.906,-0.062
28.664,-0.453,0.904,-0.061
28.673,-0.451,0.904,-0.061
28.683,-0.453,0.906,-0.064
28.693,-0.453,0.904,-0.059
28.703,-0.451,0.904,-0.062
28.713,-0.449,0.906,-0.062
28.723,-0.451,0.908,-0.064
28.733,-0.451,0.910,-0.061
28.743,-0.451,0.910,-0.062
28.753,-0.451,0.908,-0.066
28.763,-0.453,0.906,-0.059
28.773,-0.453,0.904,-0.061
28.783,-0.455,0.906,-0.062
28.793,-0.455,0.906,-0.061
28.803,-0.455,0.904,-0.061
28.812,-0.455,0.908,-0.064
28.822,-0.457,0.906,-0.061
28.832,-0.457,0.906,-0.062
28.842,-0.455,0.908,-0.061
28.852,-0.453,0.908,-0.061
28.862,-0.453,0.904,-0.062
28.872,-0.451,0.904,-0.061
28.882,-0.451,0.904,-0.061
28.892,-0.449,0.910,-0.059
28.902,-0.449,0.918,-0.059
28.912,-0.449,0.912,-0.059
28.922,-0.447,0.902,-0.061
28.932,-0.449,0.898,-0.062
28.942,-0.455,0.902,-0.061
28.952,-0.453,0.908,-0.061
28.961,-0.455,0.914,-0.059
28.971,-0.451,0.910,-0.059
28.981,-0.451,0.912,-0.061
28.991,-0.455,0.906,-0.061
29.001,-0.451,0.906,-0.062
29.011,-0.455,0.904,-0.062
29.021,-0.453,0.902,-0.061
29.031,-0.453,0.902,-0.064
29.041,-0.451,0.904,-0.062
29.051,-0.453,0.904,-0.061
29.061,-0.455,0.908,-0.062
29.071,-0.453,0.910,-0.062
29.081,-0.451,0.912,-0.059
29.091,-0.449,0.910,-0.061
29.100,-0.451,0.910,-0.061
29.110,-0.453,0.910,-0.059
29.120,-0.451,0.902,-0.061
29.130,-0.453,0.904,-0.064
29.140,-0.453,0.902,-0.062
29.150,-0.453,0.904,-0.062
29.160,-0.453,0.910,-0.062
29.170,-0.455,0.910,-0.061
29.180,-0.453,0.910,-0.064
29.190,-0.451,0.906,-0.061
29.200,-0.451,0.906,-0.064
29.210,-0.455,0.902,-0.062
29.220,-0.449,0.906,-0.062
29.230,-0.449,0.908,-0.061
29.239,-0.451,0.914,-0.061
29.249,-0.449,0.914,-0.062
29.259,-0.449,0.910,-0.059
29.269,-0.445,0.906,-0.062
29.279,-0.445,0.906,-0.061
29.289,-0.449,0.904,-0.066
29.299,-0.449,0.902,-0.064
29.309,-0.451,0.908,-0.066
29.319,-0.449,0.906,-0.059
29.329,-0.453,0.904,-0.061
29.339,-0.453,0.906,-0.061
29.349,-0.455,0.910,-0.062
29.359,-0.455,0.906,-0.064
29.369,-0.459,0.908,-0.066
29.378,-0.459,0.906,-0.064
29.388,-0.455,0.904,-0.062
29.398,-0.457,0.906,-0.062
29.408,-0.455,0.906,-0.068
29.418,-0.455,0.904,-0.064
29.428,-0.451,0.906,-0.064
29.438,-0.453,0.906,-0.061
29.448,-0.453,0.908,-0.062
29.458,-0.451,0.902,-0.062
29.468,-0.453,0.904,-0.064
29.478,-0.455,0.904,-0.061
29.488,-0.455,0.904,-0.061
29.498,-0.455,0.906,-0.064
29.508,-0.453,0.906,-0.066
29.517,-0.455,0.906,-0.062
29.527,-0.455,0.904,-0.059
29.537,-0.455,0.908,-0.061
29.547,-0.453,0.904,-0.062
29.557,-0.453,0.910,-0.066
29.567,-0.453,0.904,-0.062
29.577,-0.453,0.906,-0.064
29.587,-0.451,0.904,-0.064
29.597,-0.451,0.906,-0.062
29.607,-0.451,0.908,-0.062
29.617,-0.449,0.908,-0.064
29.627,-0.451,0.906,-0.062
29.637,-0.449,0.906,-0.061
29.647,-0.449,0.904,-0.059
29.657,-0.451,0.914,-0.061
29.666,-0.449,0.914,-0.061
29.676,-0.449,0.904,-0.064
29.686,-0.451,0.900,-0.064
29.696,-0.455,0.896,-0.062
29.706,-0.455,0.904,-0.062
29.716,-0.455,0.910,-0.062
29.726,-0.455,0.912,-0.061
29.736,-0.455,0.912,-0.062
29.746,-0.455,0.906,-0.062
29.756,-0.451,0.902,-0.062
29.766,-0.451,0.904,-0.064
29.776,-0.455,0.902,-0.064
29.786,-0.457,0.902,-0.062
29.796,-0.455,0.904,-0.064
29.805,-0.451,0.902,-0.062
29.815,-0.453,0.908,-0.064
29.825,-0.451,0.908,-0.064
29.835,-0.455,0.910,-0.064
29.845,-0.453,0.912,-0.062
29.855,-0.449,0.912,-0.064
29.865,-0.453,0.912,-0.064
29.875,-0.453,0.906,-0.062
29.885,-0.453,0.904,-0.061
29.895,-0.453,0.902,-0.064
29.905,-0.453,0.904,-0.062
29.915,-0.451,0.910,-0.062
29.925,-0.453,0.912,-0.064
29.935,-0.451,0.908,-0.064
29.944,-0.451,0.906,-0.064
29.954,-0.449,0.906,-0.064
29.964,-0.453,0.908,-0.066
29.974,-0.453,0.906,-0.062
29.984,-0.453,0.908,-0.064
29.994,-0.451,0.910,-0.062
30.004,-0.449,0.910,-0.061
30.014,-0.449,0.908,-0.064
30.024,-0.451,0.908,-0.062
30.034,-0.449,0.906,-0.061
30.044,-0.451,0.906,-0.062
30.054,-0.453,0.904,-0.062
30.064,-0.455,0.906,-0.064
30.074,-0.453,0.906,-0.061
30.083,-0.451,0.902,-0.062
30.093,-0.455,0.904,-0.061
30.103,-0.455,0.904,-0.062
30.113,-0.457,0.904,-0.066
30.123,-0.457,0.906,-0.064
30.133,-0.459,0.906,-0.064
30.143,-0.457,0.908,-0.064
30.153,-0.459,0.906,-0.068
30.163,-0.453,0.904,-0.064
30.173,-0.455,0.906,-0.066
30.183,-0.457,0.904,-0.062
30.193,-0.453,0.908,-0.062
30.203,-0.449,0.906,-0.061
30.213,-0.449,0.908,-0.064
30.223,-0.453,0.908,-0.059
30.232,-0.451,0.908,-0.061
30.242,-0.453,0.906,-0.062
30.252,-0.453,0.906,-0.062
30.262,-0.451,0.908,-0.062
30.272,-0.453,0.904,-0.064
30.282,-0.453,0.906,-0.062
30.292,-0.455,0.908,-0.062
30.302,-0.453,0.908,-0.062
30.312,-0.455,0.908,-0.061
30.322,-0.459,0.906,-0.062
30.332,-0.457,0.906,-0.061
30.342,-0.457,0.904,-0.062
30.352,-0.457,0.910,-0.064
30.362,-0.451,0.906,-0.061
30.371,-0.455,0.904,-0.062
30.381,-0.451,0.904,-0.061
30.391,-0.449,0.904,-0.059
30.401,-0.449,0.914,-0.061
30.411,-0.447,0.912,-0.061
30.421,-0.445,0.908,-0.064
30.431,-0.449,0.900,-0.062
30.441,-0.451,0.896,-0.062
30.451,-0.449,0.904,-0.064
30.461,-0.451,0.906,-0.062
30.471,-0.455,0.912,-0.061
30.481,-0.451,0.910,-0.064
30.491,-0.451,0.906,-0.061
30.501,-0.453,0.902,-0.064
30.510,-0.453,0.904,-0.062
30.520,-0.451,0.902,-0.064
30.530,-0.455,0.898,-0.064
30.540,-0.453,0.902,-0.066
30.550,-0.453,0.904,-0.066
30.560,-0.453,0.908,-0.064
30.570,-0.451,0.906,-0.064
30.580,-0.449,0.906,-0.064
30.590,-0.453,0.910,-0.064
30.600,-0.449,0.912,-0.066
30.610,-0.451,0.908,-0.061
30.620,-0.449,0.906,-0.064
30.630,-0.453,0.906,-0.066
30.640,-0.453,0.906,-0.066
30.649,-0.453,0.904,-0.066
30.659,-0.451,0.904,-0.062
30.669,-0.451,0.914,-0.062
30.679,-0.451,0.910,-0.061
30.689,-0.451,0.908,-0.066
30.699,-0.451,0.904,-0.064
30.709,-0.453,0.902,-0.068
30.719,-0.453,0.906,-0.068
30.729,-0.453,0.908,-0.064
30.739,-0.449,0.910,-0.064
30.749,-0.451,0.912,-0.061
30.759,-0.449,0.908,-0.064
30.769,-0.449,0.908,-0.062
30.779,-0.449,0.906,-0.062
30.789,-0.451,0.902,-0.066
30.798,-0.449,0.904,-0.066
30.808,-0.451,0.906,-0.064
30.818,-0.453,0.902,-0.068
30.828,-0.451,0.908,-0.066
30.838,-0.451,0.904,-0.064
30.848,-0.455,0.906,-0.062
30.858,-0.459,0.910,-0.064
30.868,-0.455,0.906,-0.064
30.878,-0.453,0.906,-0.064
30.888,-0.455,0.906,-0.062
30.898,-0.457,0.902,-0.064
30.908,-0.455,0.902,-0.064
30.918,-0.451,0.904,-0.064
30.928,-0.451,0.906,-0.066
30.937,-0.453,0.908,-0.062
30.947,-0.453,0.910,-0.066
30.957,-0.453,0.910,-0.064
30.967,-0.449,0.908,-0.064
30.977,-0.453,0.906,-0.064
30.987,-0.449,0.906,-0.068
30.997,-0.449,0.906,-0.062
31.007,-0.451,0.906,-0.064
31.017,-0.453,0.902,-0.064
31.027,-0.453,0.906,-0.064
31.037,-0.455,0.906,-0.066
31.047,-0.455,0.906,-0.066
31.057,-0.455,0.904,-0.064
31.067,-0.457,0.904,-0.064
31.076,-0.455,0.906,-0.064
31.086,-0.455,0.906,-0.062
31.096,-0.455,0.906,-0.064
31.106,-0.451,0.902,-0.062
31.116,-0.453,0.904,-0.064
31.126,-0.449,0.906,-0.059
31.136,-0.449,0.914,-0.061
31.146,-0.449,0.912,-0.059
31.156,-0.447,0.906,-0.062
31.166,-0.451,0.896,-0.066
31.176,-0.455,0.896,-0.066
31.186,-0.455,0.904,-0.064
31.196,-0.455,0.906,-0.062
31.206,-0.455,0.912,-0.062
31.215,-0.453,0.916,-0.064
31.225,-0.455,0.906,-0.064
31.235,-0.455,0.902,-0.068
31.245,-0.457,0.904,-0.066
31.255,-0.455,0.904,-0.068
31.265,-0.453,0.904,-0.066
31.275,-0.453,0.902,-0.066
31.285,-0.453,0.908,-0.064
31.295,-0.453,0.906,-0.064
31.305,-0.455,0.908,-0.066
31.315,-0.455,0.906,-0.066
31.325,-0.451,0.910,-0.064
31.335,-0.455,0.908,-0.066
31.345,-0.451,0.910,-0.066
31.355,-0.451,0.910,-0.066
31.364,-0.453,0.908,-0.064
31.374,-0.455,0.904,-0.068
31.384,-0.453,0.904,-0.068
31.394,-0.453,0.904,-0.064
31.404,-0.453,0.912,-0.068
31.414,-0.451,0.906,-0.066
31.424,-0.451,0.904,-0.070
31.434,-0.451,0.904,-0.068
31.444,-0.457,0.908,-0.066
31.454,-0.451,0.910,-0.066
31.464,-0.451,0.912,-0.066
31.474,-0.447,0.914,-0.066
31.484,-0.447,0.908,-0.064
31.494,-0.445,0.908,-0.064
31.503,-0.447,0.904,-0.064
31.513,-0.447,0.906,-0.064
31.523,-0.451,0.904,-0.062
31.533,-0.451,0.906,-0.062
31.543,-0.451,0.906,-0.064
31.553,-0.453,0.908,-0.066
31.563,-0.451,0.908,-0.064
31.573,-0.451,0.908,-0.066
31.583,-0.457,0.908,-0.066
31.593,-0.455,0.904,-0.068
31.603,-0.455,0.904,-0.062
31.613,-0.457,0.904,-0.062
31.623,-0.455,0.906,-0.066
31.633,-0.455,0.904,-0.062
31.642,-0.453,0.904,-0.064
31.652,-0.455,0.906,-0.064
31.662,-0.453,0.906,-0.061
31.672,-0.449,0.908,-0.062
31.682,-0.449,0.904,-0.061
31.692,-0.451,0.910,-0.062
31.702,-0.447,0.906,-0.062
31.712,-0.449,0.906,-0.062
31.722,-0.451,0.908,-0.064
31.732,-0.449,0.906,-0.062
31.742,-0.453,0.908,-0.059
31.752,-0.455,0.908,-0.061
31.762,-0.457,0.910,-0.061
31.772,-0.455,0.910,-0.062
31.781,-0.457,0.910,-0.059
31.791,-0.453,0.908,-0.062
31.801,-0.455,0.908,-0.061
31.811,-0.453,0.908,-0.064
31.821,-0.451,0.906,-0.062
31.831,-0.451,0.904,-0.061
31.841,-0.447,0.904,-0.061
31.851,-0.447,0.908,-0.057
31.861,-0.449,0.916,-0.061
31.871,-0.447,0.914,-0.059
31.881,-0.447,0.906,-0.062
31.891,-0.449,0.900,-0.064
31.901,-0.453,0.900,-0.057
31.911,-0.455,0.904,-0.059
31.921,-0.455,0.912,-0.059
31.930,-0.453,0.912,-0.057
31.940,-0.453,0.910,-0.059
31.950,-0.451,0.904,-0.057
31.960,-0.451,0.902,-0.059
31.970,-0.449,0.904,-0.059
31.980,-0.451,0.908,-0.061
31.990,-0.453,0.906,-0.059
32.000,-0.453,0.908,-0.059
32.010,-0.451,0.910,-0.061
32.020,-0.455,0.906,-0.062
32.030,-0.453,0.906,-0.061
32.040,-0.451,0.910,-0.061
32.050,-0.453,0.912,-0.062
32.060,-0.451,0.910,-0.057
32.069,-0.447,0.912,-0.059
32.079,-0.449,0.910,-0.061
32.089,-0.447,0.910,-0.062
32.099,-0.451,0.908,-0.061
32.109,-0.451,0.908,-0.061
32.119,-0.447,0.914,-0.059
32.129,-0.447,0.910,-0.061
32.139,-0.447,0.910,-0.059
32.149,-0.449,0.906,-0.061
32.159,-0.451,0.908,-0.061
32.169,-0.449,0.910,-0.061
32.179,-0.449,0.910,-0.061
32.189,-0.449,0.912,-0.061
32.199,-0.447,0.912,-0.062
32.208,-0.447,0.910,-0.061
32.218,-0.447,0.912,-0.061
32.228,-0.445,0.910,-0.062
32.238,-0.447,0.906,-0.061
32.248,-0.445,0.910,-0.059
32.258,-0.449,0.908,-0.059
32.268,-0.445,0.908,-0.061
32.278,-0.447,0.906,-0.061
32.288,-0.449,0.912,-0.061
32.298,-0.449,0.910,-0.059
32.308,-0.445,0.912,-0.061
32.318,-0.451,0.908,-0.061
32.328,-0.447,0.910,-0.059
32.338,-0.447,0.910,-0.059
32.347,-0.447,0.910,-0.061
32.357,-0.445,0.910,-0.061
32.367,-0.449,0.910,-0.061
32.377,-0.445,0.910,-0.061
32.387,-0.447,0.912,-0.062
32.397,-0.443,0.912,-0.059
32.407,-0.443,0.908,-0.061
32.417,-0.445,0.910,-0.059
32.427,-0.443,0.914,-0.061
32.437,-0.447,0.914,-0.061
32.447,-0.445,0.910,-0.061
32.457,-0.445,0.910,-0.057
32.467,-0.445,0.912,-0.059
32.477,-0.449,0.910,-0.059
32.486,-0.447,0.908,-0.061
32.496,-0.449,0.910,-0.059
32.506,-0.447,0.906,-0.055
32.516,-0.447,0.912,-0.057
32.526,-0.445,0.910,-0.061
32.536,-0.447,0.918,-0.061
32.546,-0.443,0.916,-0.055
32.556,-0.443,0.910,-0.062
32.566,-0.445,0.902,-0.062
32.576,-0.451,0.904,-0.066
32.586,-0.451,0.908,-0.059
32.596,-0.447,0.914,-0.061
32.606,-0.449,0.914,-0.061
32.616,-0.445,0.910,-0.059
32.626,-0.445,0.908,-0.059
32.635,-0.445,0.904,-0.059
32.645,-0.447,0.904,-0.062
32.655,-0.447,0.908,-0.061
32.665,-0.447,0.908,-0.061
32.675,-0.447,0.910,-0.062
32.685,-0.447,0.912,-0.061
32.695,-0.451,0.910,-0.059
32.705,-0.447,0.912,-0.061
32.715,-0.449,0.910,-0.061
32.725,-0.451,0.912,-0.059
32.735,-0.447,0.916,-0.059
32.745,-0.449,0.908,-0.061
32.755,-0.445,0.908,-0.057
32.765,-0.451,0.906,-0.061
32.774,-0.453,0.906,-0.061
32.784,-0.453,0.906,-0.059
32.794,-0.447,0.908,-0.059
32.804,-0.447,0.912,-0.059
32.814,-0.447,0.914,-0.059
32.824,-0.447,0.908,-0.061
32.834,-0.447,0.904,-0.061
32.844,-0.449,0.906,-0.061
32.854,-0.449,0.910,-0.061
32.864,-0.449,0.910,-0.061
32.874,-0.447,0.918,-0.064
32.884,-0.445,0.914,-0.061
32.894,-0.445,0.912,-0.061
32.904,-0.445,0.914,-0.061
32.913,-0.443,0.910,-0.062
32.923,-0.445,0.906,-0.062
32.933,-0.447,0.908,-0.062
32.943,-0.447,0.906,-0.059
32.953,-0.445,0.906,-0.061
32.963,-0.447,0.906,-0.061
32.973,-0.447,0.910,-0.061
32.983,-0.447,0.910,-0.064
32.993,-0.447,0.910,-0.062
33.003,-0.451,0.908,-0.059
33.013,-0.451,0.910,-0.059
33.023,-0.449,0.910,-0.059
33.033,-0.447,0.908,-0.057
33.043,-0.449,0.912,-0.062
33.052,-0.447,0.906,-0.061
33.062,-0.449,0.906,-0.062
33.072,-0.447,0.910,-0.059
33.082,-0.447,0.908,-0.061
33.092,-0.449,0.908,-0.061
33.102,-0.451,0.910,-0.059
33.112,-0.451,0.910,-0.059
33.122,-0.455,0.910,-0.057
33.132,-0.451,0.910,-0.059
33.142,-0.451,0.916,-0.059
33.152,-0.453,0.910,-0.061
33.162,-0.447,0.904,-0.059
33.172,-0.451,0.906,-0.059
33.182,-0.451,0.908,-0.057
33.192,-0.449,0.912,-0.059
33.201,-0.451,0.918,-0.059
33.211,-0.447,0.914,-0.057
33.221,-0.451,0.906,-0.059
33.231,-0.451,0.898,-0.061
33.241,-0.453,0.904,-0.061
33.251,-0.457,0.910,-0.055
33.261,-0.455,0.914,-0.061
33.271,-0.453,0.916,-0.057
33.281,-0.447,0.912,-0.061
33.291,-0.449,0.906,-0.059
33.301,-0.447,0.902,-0.055
33.311,-0.451,0.902,-0.061
33.321,-0.447,0.902,-0.055
33.331,-0.451,0.906,-0.055
33.340,-0.451,0.904,-0.061
33.350,-0.455,0.902,-0.057
33.360,-0.455,0.910,-0.057
33.370,-0.457,0.910,-0.062
33.380,-0.455,0.912,-0.057
33.390,-0.449,0.914,-0.059
33.400,-0.451,0.910,-0.059
33.410,-0.451,0.906,-0.059
33.420,-0.453,0.906,-0.059
33.430,-0.449,0.906,-0.059
33.440,-0.453,0.900,-0.062
33.450,-0.453,0.908,-0.062
33.460,-0.453,0.912,-0.061
33.470,-0.449,0.910,-0.061
33.479,-0.447,0.908,-0.059
33.489,-0.449,0.904,-0.061
33.499,-0.447,0.908,-0.059
33.509,-0.451,0.906,-0.061
33.519,-0.449,0.912,-0.061
33.529,-0.449,0.912,-0.061
33.539,-0.445,0.908,-0.062
33.549,-0.449,0.912,-0.061
33.559,-0.447,0.912,-0.059
33.569,-0.447,0.912,-0.062
33.579,-0.449,0.908,-0.061
33.589,-0.445,0.908,-0.059
33.599,-0.449,0.906,-0.059
33.609,-0.451,0.906,-0.064
33.618,-0.449,0.908,-0.061
33.628,-0.451,0.908,-0.062
33.638,-0.453,0.906,-0.061
33.648,-0.453,0.912,-0.062
33.658,-0.451,0.908,-0.061
33.668,-0.453,0.908,-0.062
33.678,-0.455,0.908,-0.066
33.688,-0.455,0.908,-0.062
33.698,-0.453,0.910,-0.062
33.708,-0.453,0.908,-0.062
33.718,-0.449,0.906,-0.062
33.728,-0.451,0.908,-0.062
33.738,-0.451,0.908,-0.061
33.748,-0.451,0.910,-0.062
33.758,-0.451,0.906,-0.062
33.767,-0.451,0.908,-0.062
33.777,-0.451,0.908,-0.059
33.787,-0.449,0.908,-0.061
33.797,-0.453,0.908,-0.062
33.807,-0.453,0.908,-0.061
33.817,-0.453,0.912,-0.061
33.827,-0.455,0.904,-0.061
33.837,-0.455,0.908,-0.061
33.847,-0.457,0.910,-0.062
33.857,-0.455,0.908,-0.061
33.867,-0.455,0.908,-0.062
33.877,-0.453,0.906,-0.061
33.887,-0.451,0.910,-0.061
33.897,-0.451,0.912,-0.061
33.906,-0.449,0.912,-0.061
33.916,-0.447,0.910,-0.059
33.926,-0.451,0.902,-0.062
33.936,-0.451,0.896,-0.062
33.946,-0.453,0.900,-0.062
33.956,-0.453,0.906,-0.061
33.966,-0.457,0.910,-0.062
33.976,-0.453,0.910,-0.061
33.986,-0.453,0.912,-0.061
33.996,-0.455,0.908,-0.061
34.006,-0.453,0.906,-0.062
34.016,-0.453,0.906,-0.064
34.026,-0.457,0.902,-0.062
34.036,-0.457,0.902,-0.062
34.045,-0.453,0.904,-0.062
34.055,-0.455,0.904,-0.062
34.065,-0.455,0.908,-0.064
34.075,-0.451,0.908,-0.061
34.085,-0.453,0.908,-0.061
34.095,-0.449,0.910,-0.061
34.105,-0.447,0.912,-0.066
34.115,-0.449,0.908,-0.061
34.125,-0.449,0.906,-0.062
34.135,-0.453,0.904,-0.064
34.145,-0.455,0.908,-0.064
34.155,-0.455,0.910,-0.064
34.165,-0.451,0.910,-0.062
34.175,-0.451,0.908,-0.064
34.184,-0.451,0.906,-0.062
34.194,-0.451,0.904,-0.066
34.204,-0.453,0.906,-0.064
34.214,-0.453,0.908,-0.064
34.224,-0.451,0.906,-0.062
34.234,-0.451,0.910,-0.064
34.244,-0.453,0.912,-0.062
34.254,-0.449,0.908,-0.064
34.264,-0.449,0.908,-0.064
34.274,-0.451,0.906,-0.064
34.284,-0.447,0.904,-0.061
34.294,-0.449,0.906,-0.061
34.304,-0.451,0.906,-0.062
34.314,-0.449,0.904,-0.064
34.324,-0.453,0.908,-0.062
34.333,-0.453,0.904,-0.066
34.343,-0.455,0.906,-0.064
34.353,-0.453,0.908,-0.064
34.363,-0.457,0.908,-0.066
34.373,-0.455,0.908,-0.062
34.383,-0.457,0.908,-0.064
34.393,-0.457,0.908,-0.064
34.403,-0.453,0.904,-0.062
34.413,-0.457,0.906,-0.062
34.423,-0.455,0.904,-0.064
34.433,-0.455,0.906,-0.066
34.443,-0.455,0.908,-0.062
34.453,-0.453,0.906,-0.062
34.463,-0.451,0.906,-0.061
34.472,-0.455,0.910,-0.064
34.482,-0.451,0.908,-0.062
34.492,-0.451,0.908,-0.062
34.502,-0.453,0.908,-0.064
34.512,-0.455,0.906,-0.062
34.522,-0.455,0.908,-0.064
34.532,-0.455,0.906,-0.066
34.542,-0.455,0.906,-0.064
34.552,-0.455,0.910,-0.061
34.562,-0.457,0.906,-0.064
34.572,-0.457,0.906,-0.064
34.582,-0.457,0.908,-0.064
34.592,-0.457,0.908,-0.062
34.602,-0.457,0.904,-0.064
34.611,-0.455,0.902,-0.061
34.621,-0.453,0.906,-0.064
34.631,-0.451,0.908,-0.062
34.641,-0.451,0.914,-0.061
34.651,-0.449,0.914,-0.061
34.661,-0.451,0.904,-0.062
34.671,-0.453,0.900,-0.062
34.681,-0.455,0.900,-0.062
34.691,-0.455,0.904,-0.061
34.701,-0.455,0.910,-0.059
34.711,-0.455,0.914,-0.061
34.721,-0.451,0.910,-0.062
34.731,-0.453,0.906,-0.062
34.741,-0.453,0.902,-0.064
34.750,-0.459,0.902,-0.062
34.760,-0.455,0.908,-0.068
34.770,-0.455,0.902,-0.062
34.780,-0.455,0.902,-0.062
34.790,-0.455,0.906,-0.064
34.800,-0.453,0.910,-0.062
34.810,-0.451,0.908,-0.066
34.820,-0.453,0.912,-0.066
34.830,-0.453,0.912,-0.061
34.840,-0.451,0.910,-0.062
34.850,-0.451,0.908,-0.066
34.860,-0.453,0.908,-0.062
34.870,-0.453,0.902,-0.064
34.880,-0.455,0.902,-0.064
34.890,-0.455,0.904,-0.061
34.899,-0.455,0.912,-0.064
34.909,-0.455,0.910,-0.064
34.919,-0.457,0.908,-0.062
34.929,-0.455,0.906,-0.068
34.939,-0.457,0.908,-0.066
34.949,-0.453,0.908,-0.064
34.959,-0.453,0.906,-0.062
34.969,-0.455,0.908,-0.064
34.979,-0.455,0.910,-0.061
34.989,-0.451,0.908,-0.062
34.999,-0.453,0.908,-0.062
35.009,-0.455,0.906,-0.064
35.019,-0.453,0.906,-0.061
35.029,-0.455,0.904,-0.064
35.038,-0.455,0.900,-0.062
35.048,-0.457,0.904,-0.064
35.058,-0.455,0.906,-0.064
35.068,-0.455,0.908,-0.062
35.078,-0.457,0.906,-0.064
35.088,-0.459,0.902,-0.066
35.098,-0.459,0.904,-0.064
35.108,-0.459,0.908,-0.066
35.118,-0.459,0.908,-0.064
35.128,-0.459,0.906,-0.064
35.138,-0.457,0.908,-0.064
35.148,-0.459,0.904,-0.068
35.158,-0.459,0.906,-0.064
35.168,-0.457,0.904,-0.068
35.177,-0.455,0.902,-0.064
35.187,-0.457,0.902,-0.066
35.197,-0.453,0.906,-0.064
35.207,-0.453,0.910,-0.066
35.217,-0.453,0.906,-0.068
35.227,-0.451,0.910,-0.066
35.237,-0.455,0.908,-0.066
35.247,-0.453,0.902,-0.068
35.257,-0.455,0.906,-0.061
35.267,-0.455,0.906,-0.068
35.277,-0.459,0.906,-0.066
35.287,-0.457,0.906,-0.066
35.297,-0.459,0.906,-0.066
35.307,-0.459,0.906,-0.066
35.316,-0.457,0.908,-0.066
35.326,-0.455,0.908,-0.064
35.336,-0.455,0.906,-0.064
35.346,-0.451,0.900,-0.064
35.356,-0.451,0.904,-0.064
35.366,-0.449,0.906,-0.062
35.376,-0.449,0.910,-0.062
35.386,-0.449,0.912,-0.061
35.396,-0.449,0.908,-0.062
35.406,-0.451,0.902,-0.066
35.416,-0.455,0.900,-0.066
35.426,-0.453,0.904,-0.068
35.436,-0.459,0.908,-0.062
35.446,-0.459,0.912,-0.066
35.455,-0.457,0.910,-0.062
35.465,-0.457,0.908,-0.064
35.475,-0.459,0.904,-0.064
35.485,-0.457,0.902,-0.064
35.495,-0.457,0.902,-0.062
35.505,-0.455,0.902,-0.066
35.515,-0.455,0.904,-0.068
35.525,-0.453,0.904,-0.062
35.535,-0.459,0.906,-0.064
35.545,-0.457,0.910,-0.064
35.555,-0.453,0.908,-0.061
35.565,-0.453,0.910,-0.061
35.575,-0.451,0.912,-0.059
35.585,-0.451,0.908,-0.061
35.595,-0.451,0.906,-0.064
35.604,-0.453,0.904,-0.062
35.614,-0.457,0.906,-0.064
35.624,-0.455,0.904,-0.062
35.634,-0.453,0.910,-0.061
35.644,-0.453,0.912,-0.061
35.654,-0.453,0.908,-0.061
35.664,-0.453,0.908,-0.062
35.674,-0.451,0.904,-0.064
35.684,-0.453,0.906,-0.062
35.694,-0.455,0.910,-0.061
35.704,-0.449,0.908,-0.061
35.714,-0.449,0.914,-0.061
35.724,-0.449,0.910,-0.061
35.734,-0.449,0.908,-0.059
35.743,-0.447,0.906,-0.062
35.753,-0.447,0.908,-0.055
35.763,-0.447,0.910,-0.061
35.773,-0.451,0.908,-0.061
35.783,-0.449,0.908,-0.062
35.793,-0.451,0.908,-0.062
35.803,-0.451,0.908,-0.061
35.813,-0.455,0.906,-0.062
35.823,-0.457,0.908,-0.064
35.833,-0.451,0.910,-0.061
35.843,-0.455,0.906,-0.059
35.853,-0.455,0.908,-0.062
35.863,-0.457,0.908,-0.064
35.873,-0.455,0.908,-0.062
35.882,-0.453,0.906,-0.061
35.892,-0.453,0.908,-0.061
35.902,-0.451,0.908,-0.061
35.912,-0.451,0.912,-0.061
35.922,-0.453,0.910,-0.061
35.932,-0.453,0.908,-0.062
35.942,-0.449,0.908,-0.062
35.952,-0.451,0.908,-0.059
35.962,-0.449,0.906,-0.062
35.972,-0.453,0.908,-0.061
35.982,-0.453,0.910,-0.062
35.992,-0.455,0.906,-0.062
36.002,-0.453,0.910,-0.061
36.012,-0.455,0.910,-0.064
36.021,-0.451,0.908,-0.062
36.031,-0.453,0.908,-0.064
36.041,-0.453,0.908,-0.066
36.051,-0.451,0.906,-0.062
36.061,-0.447,0.908,-0.059
36.071,-0.447,0.914,-0.059
36.081,-0.449,0.914,-0.061
36.091,-0.449,0.906,-0.064
36.101,-0.453,0.904,-0.061
36.111,-0.455,0.900,-0.059
36.121,-0.453,0.908,-0.062
36.131,-0.451,0.912,-0.061
36.141,-0.449,0.914,-0.059
36.151,-0.449,0.912,-0.061
36.161,-0.449,0.908,-0.061
36.170,-0.445,0.904,-0.062
36.180,-0.449,0.906,-0.062
36.190,-0.449,0.906,-0.066
36.200,-0.449,0.906,-0.061
36.210,-0.451,0.908,-0.064
36.220,-0.449,0.910,-0.066
36.230,-0.455,0.912,-0.062
36.240,-0.453,0.910,-0.066
36.250,-0.451,0.912,-0.064
36.260,-0.449,0.912,-0.064
36.270,-0.449,0.912,-0.064
36.280,-0.447,0.910,-0.066
36.290,-0.447,0.908,-0.062
36.300,-0.453,0.906,-0.064
36.309,-0.453,0.908,-0.066
36.319,-0.447,0.906,-0.062
36.329,-0.451,0.916,-0.062
36.339,-0.447,0.914,-0.064
36.349,-0.449,0.908,-0.066
36.359,-0.447,0.902,-0.064
36.369,-0.451,0.904,-0.064
36.379,-0.453,0.908,-0.064
36.389,-0.453,0.914,-0.062
36.399,-0.449,0.912,-0.064
36.409,-0.449,0.912,-0.064
36.419,-0.449,0.912,-0.062
36.429,-0.449,0.910,-0.064
36.439,-0.449,0.908,-0.062
36.448,-0.451,0.910,-0.061
36.458,-0.449,0.908,-0.061
36.468,-0.451,0.908,-0.062
36.478,-0.451,0.906,-0.062
36.488,-0.455,0.906,-0.064
36.498,-0.451,0.906,-0.061
36.508,-0.449,0.904,-0.062
36.518,-0.451,0.906,-0.062
36.528,-0.455,0.906,-0.061
36.538,-0.455,0.912,-0.062
36.548,-0.453,0.910,-0.059
36.558,-0.453,0.908,-0.062
36.568,-0.455,0.906,-0.061
36.578,-0.455,0.904,-0.061
36.587,-0.455,0.904,-0.059
36.597,-0.455,0.906,-0.059
36.607,-0.455,0.908,-0.059
36.617,-0.453,0.908,-0.061
36.627,-0.459,0.908,-0.059
36.637,-0.459,0.908,-0.059
36.647,-0.457,0.910,-0.061
36.657,-0.455,0.908,-0.061
36.667,-0.455,0.912,-0.059
36.677,-0.451,0.908,-0.061
36.687,-0.451,0.908,-0.059
36.697,-0.453,0.908,-0.055
36.707,-0.449,0.910,-0.057
36.717,-0.451,0.910,-0.057
36.727,-0.453,0.914,-0.055
36.736,-0.453,0.908,-0.057
36.746,-0.453,0.902,-0.059
36.756,-0.455,0.898,-0.061
36.766,-0.459,0.902,-0.059
36.776,-0.457,0.906,-0.057
36.786,-0.457,0.912,-0.055
36.796,-0.453,0.914,-0.055
36.806,-0.455,0.910,-0.055
36.816,-0.453,0.906,-0.059
36.826,-0.455,0.904,-0.059
36.836,-0.455,0.904,-0.061
36.846,-0.457,0.902,-0.057
36.856,-0.457,0.902,-0.055
36.866,-0.455,0.902,-0.055
36.875,-0.457,0.904,-0.055
36.885,-0.459,0.906,-0.055
36.895,-0.459,0.908,-0.057
36.905,-0.457,0.908,-0.059
36.915,-0.459,0.912,-0.057
36.925,-0.457,0.910,-0.061
36.935,-0.455,0.908,-0.059
36.945,-0.457,0.908,-0.059
36.955,-0.455,0.904,-0.061
36.965,-0.459,0.906,-0.059
36.975,-0.453,0.908,-0.057
36.985,-0.453,0.912,-0.061
36.995,-0.451,0.912,-0.057
37.005,-0.451,0.906,-0.061
37.014,-0.451,0.902,-0.057
37.024,-0.453,0.908,-0.062
37.034,-0.453,0.908,-0.062
37.044,-0.453,0.912,-0.062
37.054,-0.455,0.912,-0.062
37.064,-0.453,0.914,-0.064
37.074,-0.449,0.912,-0.062
37.084,-0.453,0.908,-0.061
37.094,-0.455,0.906,-0.061
37.104,-0.453,0.906,-0.064
37.114,-0.453,0.908,-0.064
37.124,-0.457,0.904,-0.062
37.134,-0.457,0.906,-0.066
37.144,-0.457,0.910,-0.064
37.153,-0.455,0.906,-0.064
37.163,-0.457,0.906,-0.064
37.173,-0.459,0.904,-0.062
37.183,-0.457,0.908,-0.064
37.193,-0.459,0.908,-0.062
37.203,-0.455,0.906,-0.061
37.213,-0.457,0.906,-0.064
37.223,-0.455,0.904,-0.064
37.233,-0.455,0.906,-0.061
37.243,-0.455,0.902,-0.064
37.253,-0.453,0.904,-0.066
37.263,-0.455,0.906,-0.061
37.273,-0.455,0.906,-0.059
37.283,-0.455,0.908,-0.062
37.293,-0.455,0.908,-0.062
37.302,-0.457,0.906,-0.066
37.312,-0.461,0.906,-0.066
37.322,-0.457,0.908,-0.068
37.332,-0.461,0.908,-0.066
37.342,-0.459,0.908,-0.066
37.352,-0.461,0.906,-0.061
37.362,-0.453,0.906,-0.064
37.372,-0.453,0.910,-0.061
37.382,-0.453,0.910,-0.062
37.392,-0.453,0.904,-0.062
37.402,-0.455,0.896,-0.068
37.412,-0.459,0.898,-0.068
37.422,-0.459,0.902,-0.066
37.432,-0.457,0.910,-0.064
37.441,-0.457,0.912,-0.062
37.451,-0.457,0.914,-0.062
37.461,-0.455,0.912,-0.062
37.471,-0.451,0.902,-0.062
37.481,-0.455,0.902,-0.064
37.491,-0.457,0.898,-0.066
37.501,-0.455,0.902,-0.064
37.511,-0.451,0.904,-0.066
37.521,-0.451,0.904,-0.062
37.531,-0.459,0.910,-0.062
37.541,-0.455,0.908,-0.062
37.551,-0.455,0.908,-0.062
37.561,-0.457,0.908,-0.062
37.571,-0.455,0.910,-0.062
37.580,-0.451,0.910,-0.062
37.590,-0.457,0.908,-0.062
37.600,-0.453,0.908,-0.064
37.610,-0.455,0.900,-0.066
37.620,-0.453,0.906,-0.062
37.630,-0.453,0.912,-0.061
37.640,-0.451,0.908,-0.064
37.650,-0.453,0.910,-0.064
37.660,-0.453,0.902,-0.066
37.670,-0.457,0.902,-0.064
37.680,-0.457,0.908,-0.064
37.690,-0.453,0.910,-0.066
37.700,-0.453,0.912,-0.066
37.710,-0.453,0.912,-0.062
37.719,-0.451,0.908,-0.061
37.729,-0.453,0.908,-0.062
37.739,-0.451,0.906,-0.062
37.749,-0.453,0.904,-0.064
37.759,-0.451,0.904,-0.062
37.769,-0.453,0.902,-0.064
37.779,-0.453,0.902,-0.066
37.789,-0.455,0.904,-0.066
37.799,-0.455,0.906,-0.064
37.809,-0.459,0.906,-0.066
37.819,-0.459,0.908,-0.066
37.829,-0.459,0.906,-0.068
37.839,-0.461,0.904,-0.070
37.849,-0.459,0.906,-0.066
37.859,-0.459,0.908,-0.066
37.868,-0.459,0.906,-0.064
37.878,-0.457,0.904,-0.066
37.888,-0.453,0.906,-0.064
37.898,-0.451,0.904,-0.066
37.908,-0.453,0.906,-0.066
37.918,-0.451,0.906,-0.062
37.928,-0.453,0.906,-0.066
37.938,-0.455,0.908,-0.064
37.948,-0.457,0.908,-0.062
37.958,-0.455,0.908,-0.066
37.968,-0.455,0.908,-0.062
37.978,-0.457,0.908,-0.066
37.988,-0.457,0.908,-0.068
37.998,-0.457,0.910,-0.066
38.007,-0.459,0.906,-0.062
38.017,-0.455,0.904,-0.064
38.027,-0.455,0.910,-0.062
38.037,-0.453,0.912,-0.062
38.047,-0.453,0.908,-0.062
38.057,-0.457,0.898,-0.064
38.067,-0.457,0.895,-0.066
38.077,-0.461,0.893,-0.068
38.087,-0.463,0.908,-0.062
38.097,-0.461,0.910,-0.062
38.107,-0.459,0.910,-0.062
38.117,-0.461,0.910,-0.064
38.127,-0.455,0.904,-0.062
38.137,-0.455,0.902,-0.062
38.146,-0.455,0.902,-0.064
38.156,-0.457,0.898,-0.062
38.166,-0.457,0.900,-0.066
38.176,-0.457,0.904,-0.064
38.186,-0.457,0.906,-0.064
38.196,-0.455,0.908,-0.066
38.206,-0.457,0.910,-0.062
38.216,-0.455,0.910,-0.066
38.226,-0.457,0.908,-0.062
38.236,-0.453,0.906,-0.066
38.246,-0.455,0.908,-0.062
38.256,-0.457,0.906,-0.066
38.266,-0.453,0.902,-0.068
38.276,-0.455,0.904,-0.064
38.285,-0.453,0.906,-0.062
38.295,-0.455,0.910,-0.066
38.305,-0.453,0.910,-0.064
38.315,-0.455,0.906,-0.066
38.325,-0.455,0.906,-0.066
38.335,-0.453,0.908,-0.064
38.345,-0.457,0.910,-0.068
38.355,-0.453,0.910,-0.066
38.365,-0.451,0.908,-0.064
38.375,-0.449,0.908,-0.066
38.385,-0.451,0.908,-0.068
38.395,-0.451,0.908,-0.066
38.405,-0.453,0.906,-0.064
38.415,-0.453,0.906,-0.064
38.424,-0.453,0.904,-0.066
38.434,-0.455,0.906,-0.068
38.444,-0.455,0.902,-0.066
38.454,-0.455,0.902,-0.064
38.464,-0.455,0.904,-0.072
38.474,-0.457,0.904,-0.066
38.484,-0.461,0.904,-0.066
38.494,-0.461,0.906,-0.068
38.504,-0.461,0.910,-0.066
38.514,-0.463,0.906,-0.070
38.524,-0.459,0.906,-0.068
38.534,-0.457,0.906,-0.068
38.544,-0.457,0.906,-0.064
38.554,-0.453,0.906,-0.066
38.564,-0.455,0.904,-0.068
38.573,-0.453,0.902,-0.066
38.583,-0.455,0.906,-0.064
38.593,-0.455,0.910,-0.064
38.603,-0.453,0.908,-0.064
38.613,-0.455,0.910,-0.066
38.623,-0.457,0.910,-0.066
38.633,-0.457,0.910,-0.066
38.643,-0.455,0.908,-0.068
38.653,-0.453,0.908,-0.064
38.663,-0.455,0.908,-0.062
38.673,-0.455,0.904,-0.064
38.683,-0.455,0.906,-0.062
38.693,-0.453,0.906,-0.062
38.703,-0.451,0.906,-0.061
38.712,-0.453,0.914,-0.061
38.722,-0.449,0.912,-0.061
38.732,-0.449,0.904,-0.061
38.742,-0.453,0.896,-0.064
38.752,-0.457,0.900,-0.062
38.762,-0.453,0.908,-0.062
38.772,-0.459,0.910,-0.061
38.782,-0.453,0.912,-0.062
38.792,-0.455,0.908,-0.062
38.802,-0.453,0.908,-0.061
38.812,-0.451,0.904,-0.062
38.822,-0.453,0.906,-0.062
38.832,-0.453,0.908,-0.062
38.842,-0.453,0.908,-0.061
38.851,-0.453,0.904,-0.062
38.861,-0.455,0.906,-0.064
38.871,-0.457,0.910,-0.064
38.881,-0.457,0.912,-0.062
38.891,-0.455,0.916,-0.062
38.901,-0.451,0.912,-0.061
38.911,-0.449,0.908,-0.059
38.921,-0.449,0.908,-0.061
38.931,-0.447,0.906,-0.062
38.941,-0.451,0.908,-0.064
38.951,-0.451,0.906,-0.061
38.961,-0.447,0.912,-0.059
38.971,-0.451,0.914,-0.059
38.981,-0.449,0.912,-0.061
38.990,-0.447,0.906,-0.061
39.000,-0.451,0.904,-0.061
39.010,-0.455,0.904,-0.059
39.020,-0.451,0.908,-0.062
39.030,-0.453,0.908,-0.059
39.040,-0.451,0.908,-0.059
39.050,-0.453,0.908,-0.057
39.060,-0.455,0.908,-0.059
39.070,-0.453,0.906,-0.061
39.080,-0.453,0.908,-0.059
39.090,-0.453,0.908,-0.057
39.100,-0.455,0.906,-0.057
39.110,-0.459,0.910,-0.061
39.120,-0.451,0.908,-0.059
39.130,-0.453,0.906,-0.061
39.139,-0.453,0.908,-0.055
39.149,-0.453,0.908,-0.059
39.159,-0.453,0.908,-0.059
39.169,-0.455,0.908,-0.059
39.179,-0.453,0.908,-0.059
39.189,-0.451,0.908,-0.061
39.199,-0.453,0.912,-0.057
39.209,-0.451,0.910,-0.059
39.219,-0.451,0.908,-0.061
39.229,-0.451,0.908,-0.062
39.239,-0.449,0.908,-0.061
39.249,-0.451,0.910,-0.059
39.259,-0.451,0.908,-0.061
39.269,-0.455,0.908,-0.059
39.278,-0.453,0.906,-0.057
39.288,-0.451,0.908,-0.057
39.298,-0.455,0.910,-0.061
39.308,-0.453,0.908,-0.061
39.318,-0.453,0.910,-0.057
39.328,-0.453,0.910,-0.061
39.338,-0.453,0.910,-0.062
39.348,-0.453,0.904,-0.062
39.358,-0.453,0.910,-0.059
39.368,-0.443,0.910,-0.061
39.378,-0.447,0.916,-0.057
39.388,-0.445,0.916,-0.057
39.398,-0.445,0.912,-0.061
39.408,-0.451,0.902,-0.057
39.417,-0.453,0.904,-0.061
39.427,-0.451,0.908,-0.061
39.437,-0.451,0.910,-0.061
39.447,-0.449,0.914,-0.061
39.457,-0.451,0.912,-0.061
39.467,-0.451,0.910,-0.062
39.477,-0.451,0.906,-0.061
39.487,-0.449,0.910,-0.059
39.497,-0.453,0.910,-0.061
39.507,-0.451,0.906,-0.059
39.517,-0.453,0.906,-0.062
39.527,-0.453,0.910,-0.059
39.537,-0.453,0.908,-0.059
39.547,-0.453,0.908,-0.057
39.556,-0.451,0.910,-0.055
39.566,-0.453,0.916,-0.061
39.576,-0.447,0.910,-0.059
39.586,-0.451,0.910,-0.059
39.596,-0.447,0.910,-0.059
39.606,-0.453,0.908,-0.061
39.616,-0.455,0.904,-0.055
39.626,-0.455,0.906,-0.059
39.636,-0.451,0.914,-0.059
39.646,-0.455,0.912,-0.062
39.656,-0.451,0.910,-0.059
39.666,-0.449,0.906,-0.061
39.676,-0.451,0.902,-0.057
39.686,-0.451,0.908,-0.061
39.696,-0.451,0.910,-0.061
39.705,-0.449,0.914,-0.059
39.715,-0.451,0.910,-0.061
39.725,-0.449,0.910,-0.059
39.735,-0.453,0.910,-0.057
39.745,-0.449,0.910,-0.059
39.755,-0.449,0.906,-0.055
39.765,-0.451,0.910,-0.055
39.775,-0.451,0.906,-0.061
39.785,-0.453,0.908,-0.059
39.795,-0.453,0.908,-0.057
39.805,-0.453,0.908,-0.059
39.815,-0.453,0.906,-0.057
39.825,-0.457,0.904,-0.059
39.835,-0.455,0.908,-0.059
39.844,-0.455,0.908,-0.057
39.854,-0.457,0.912,-0.059
39.864,-0.455,0.908,-0.057
39.874,-0.453,0.906,-0.057
39.884,-0.451,0.904,-0.057
39.894,-0.455,0.906,-0.053
39.904,-0.451,0.912,-0.057
39.914,-0.451,0.908,-0.053
39.924,-0.453,0.914,-0.055
39.934,-0.455,0.908,-0.055
39.944,-0.457,0.912,-0.057
39.954,-0.457,0.910,-0.059
39.964,-0.455,0.910,-0.057
39.974,-0.455,0.910,-0.053
39.983,-0.453,0.914,-0.055
39.993,-0.453,0.912,-0.057
40.003,-0.451,0.910,-0.053
40.013,-0.455,0.908,-0.053
40.023,-0.445,0.908,-0.051
40.033,-0.455,0.914,-0.057
40.043,-0.449,0.912,-0.053
40.053,-0.449,0.908,-0.057
40.063,-0.451,0.898,-0.057
40.073,-0.453,0.895,-0.057
40.083,-0.457,0.904,-0.055
40.093,-0.457,0.908,-0.057
40.103,-0.457,0.914,-0.057
40.113,-0.453,0.914,-0.057
40.122,-0.455,0.910,-0.057
40.132,-0.453,0.906,-0.059
40.142,-0.455,0.902,-0.057
40.152,-0.457,0.904,-0.061
40.162,-0.455,0.904,-0.059
40.172,-0.453,0.904,-0.061
40.182,-0.451,0.908,-0.061
40.192,-0.455,0.906,-0.059
40.202,-0.453,0.910,-0.061
40.212,-0.457,0.910,-0.061
40.222,-0.451,0.914,-0.061
40.232,-0.453,0.912,-0.061
40.242,-0.451,0.912,-0.059
40.252,-0.449,0.908,-0.055
40.262,-0.453,0.906,-0.064
40.271,-0.451,0.906,-0.062
40.281,-0.453,0.906,-0.061
40.291,-0.451,0.914,-0.062
40.301,-0.449,0.914,-0.062
40.311,-0.451,0.910,-0.062
40.321,-0.453,0.908,-0.066
40.331,-0.453,0.908,-0.064
40.341,-0.455,0.912,-0.064
40.351,-0.455,0.912,-0.064
40.361,-0.453,0.916,-0.064
40.371,-0.453,0.914,-0.062
40.381,-0.451,0.910,-0.061
40.391,-0.451,0.910,-0.062
40.401,-0.451,0.910,-0.062
40.410,-0.451,0.908,-0.061
40.420,-0.449,0.906,-0.061
40.430,-0.449,0.908,-0.062
40.440,-0.451,0.906,-0.059
40.450,-0.453,0.906,-0.061
40.460,-0.451,0.906,-0.059
40.470,-0.453,0.906,-0.061
40.480,-0.453,0.910,-0.061
40.490,-0.459,0.910,-0.057
40.500,-0.457,0.904,-0.062
40.510,-0.455,0.908,-0.061
40.520,-0.459,0.908,-0.057
40.530,-0.455,0.906,-0.059
40.540,-0.455,0.904,-0.061
40.549,-0.453,0.910,-0.059
40.559,-0.455,0.908,-0.061
40.569,-0.455,0.906,-0.059
40.579,-0.457,0.908,-0.057
40.589,-0.457,0.910,-0.059
40.599,-0.457,0.910,-0.055
40.609,-0.455,0.910,-0.057
40.619,-0.453,0.910,-0.057
40.629,-0.453,0.908,-0.057
40.639,-0.455,0.908,-0.055
40.649,-0.453,0.908,-0.053
40.659,-0.453,0.912,-0.057
40.669,-0.455,0.908,-0.057
40.679,-0.455,0.912,-0.059
40.688,-0.455,0.910,-0.059
40.698,-0.453,0.908,-0.055
40.708,-0.453,0.910,-0.057
40.718,-0.455,0.912,-0.055
40.728,-0.449,0.918,-0.057
40.738,-0.445,0.908,-0.055
40.748,-0.447,0.904,-0.055
40.758,-0.447,0.898,-0.062
40.768,-0.441,0.898,-0.057
40.778,-0.449,0.904,-0.055
40.788,-0.449,0.912,-0.061
40.798,-0.457,0.914,-0.059
40.808,-0.457,0.914,-0.055
40.818,-0.455,0.912,-0.061
40.828,-0.451,0.908,-0.059
40.837,-0.447,0.898,-0.059
40.847,-0.439,0.912,-0.059
40.857,-0.441,0.904,-0.057
40.867,-0.447,0.908,-0.062
40.877,-0.451,0.910,-0.064
40.887,-0.449,0.916,-0.059
40.897,-0.451,0.914,-0.059
40.907,-0.451,0.916,-0.066
40.917,-0.447,0.916,-0.066
40.927,-0.449,0.908,-0.062
40.937,-0.447,0.908,-0.066
40.947,-0.449,0.906,-0.062
40.957,-0.447,0.906,-0.066
40.967,-0.449,0.906,-0.066
40.976,-0.449,0.910,-0.066
40.986,-0.453,0.908,-0.064
40.996,-0.459,0.918,-0.062
41.006,-0.451,0.912,-0.064
41.016,-0.451,0.912,-0.064
41.026,-0.453,0.908,-0.068
41.036,-0.455,0.912,-0.064
41.046,-0.451,0.912,-0.064
41.056,-0.453,0.914,-0.062
41.066,-0.449,0.910,-0.062
41.076,-0.449,0.908,-0.062
41.086,-0.447,0.904,-0.061
41.096,-0.447,0.900,-0.062
41.106,-0.449,0.902,-0.061
41.115,-0.447,0.904,-0.064
41.125,-0.453,0.908,-0.066
41.135,-0.451,0.910,-0.061
41.145,-0.451,0.908,-0.062
41.155,-0.449,0.910,-0.064
41.165,-0.449,0.906,-0.062
41.175,-0.453,0.910,-0.064
41.185,-0.455,0.908,-0.064
41.195,-0.453,0.910,-0.068
41.205,-0.455,0.910,-0.066
41.215,-0.453,0.910,-0.068
41.225,-0.463,0.906,-0.068
41.235,-0.455,0.908,-0.068
41.245,-0.447,0.910,-0.064
41.254,-0.445,0.910,-0.062
41.264,-0.445,0.910,-0.066
41.274,-0.441,0.906,-0.070
41.284,-0.438,0.910,-0.066
41.294,-0.438,0.906,-0.064
41.304,-0.438,0.910,-0.062
41.314,-0.441,0.912,-0.062
41.324,-0.441,0.914,-0.062
41.334,-0.443,0.910,-0.064
41.344,-0.449,0.910,-0.064
41.354,-0.451,0.916,-0.068
41.364,-0.453,0.920,-0.068
41.374,-0.451,0.914,-0.068
41.384,-0.449,0.910,-0.070
41.393,-0.451,0.908,-0.066
41.403,-0.451,0.908,-0.066
41.413,-0.453,0.912,-0.066
41.423,-0.449,0.910,-0.066
41.433,-0.455,0.906,-0.066
41.443,-0.455,0.898,-0.066
41.453,-0.455,0.900,-0.068
41.463,-0.457,0.906,-0.072
41.473,-0.457,0.910,-0.066
41.483,-0.455,0.916,-0.064
41.493,-0.453,0.912,-0.064
41.503,-0.457,0.904,-0.064
41.513,-0.455,0.898,-0.064
41.523,-0.451,0.906,-0.062
41.533,-0.447,0.898,-0.062
41.542,-0.451,0.902,-0.061
41.552,-0.449,0.908,-0.066
41.562,-0.453,0.908,-0.061
41.572,-0.455,0.912,-0.066
41.582,-0.457,0.908,-0.064
41.592,-0.459,0.912,-0.064
41.602,-0.459,0.912,-0.062
41.612,-0.453,0.910,-0.062
41.622,-0.451,0.910,-0.064
41.632,-0.457,0.908,-0.068
41.642,-0.457,0.900,-0.070
41.652,-0.457,0.898,-0.068
41.662,-0.455,0.902,-0.064
41.672,-0.457,0.910,-0.064
41.681,-0.459,0.912,-0.064
41.691,-0.453,0.912,-0.064
41.701,-0.453,0.906,-0.066
41.711,-0.451,0.904,-0.068
41.721,-0.449,0.904,-0.068
41.731,-0.445,0.904,-0.066
41.741,-0.443,0.908,-0.066
41.751,-0.441,0.910,-0.066
41.761,-0.445,0.908,-0.066
41.771,-0.447,0.910,-0.066
41.781,-0.449,0.912,-0.068
41.791,-0.453,0.910,-0.066
41.801,-0.459,0.910,-0.064
41.811,-0.463,0.912,-0.068
41.820,-0.457,0.906,-0.070
41.830,-0.455,0.912,-0.070
41.840,-0.455,0.910,-0.072
41.850,-0.449,0.910,-0.072
41.860,-0.443,0.912,-0.074
41.870,-0.441,0.910,-0.070
41.880,-0.438,0.912,-0.070
41.890,-0.445,0.910,-0.070
41.900,-0.439,0.910,-0.072
41.910,-0.443,0.908,-0.070
41.920,-0.445,0.910,-0.070
41.930,-0.443,0.910,-0.074
41.940,-0.447,0.908,-0.072
41.950,-0.443,0.910,-0.072
41.959,-0.445,0.918,-0.076
41.969,-0.447,0.904,-0.070
41.979,-0.451,0.910,-0.070
41.989,-0.451,0.908,-0.070
41.999,-0.449,0.910,-0.072
42.009,-0.449,0.912,-0.068
42.019,-0.453,0.914,-0.066
42.029,-0.449,0.910,-0.072
42.039,-0.455,0.910,-0.070
42.049,-0.459,0.906,-0.064
42.059,-0.451,0.904,-0.072
42.069,-0.449,0.912,-0.062
42.079,-0.445,0.914,-0.070
42.089,-0.449,0.908,-0.066
42.099,-0.447,0.900,-0.070
42.108,-0.451,0.898,-0.068
42.118,-0.457,0.906,-0.070
42.128,-0.459,0.910,-0.068
42.138,-0.455,0.910,-0.068
42.148,-0.455,0.910,-0.072
42.158,-0.451,0.908,-0.068
42.168,-0.449,0.902,-0.070
42.178,-0.447,0.904,-0.070
42.188,-0.451,0.900,-0.070
42.198,-0.447,0.902,-0.068
42.208,-0.447,0.902,-0.072
42.218,-0.451,0.904,-0.068
42.228,-0.459,0.904,-0.072
42.238,-0.453,0.900,-0.070
42.247,-0.461,0.904,-0.064
42.257,-0.461,0.906,-0.070
42.267,-0.455,0.912,-0.062
42.277,-0.453,0.910,-0.062
42.287,-0.451,0.912,-0.068
42.297,-0.447,0.902,-0.066
42.307,-0.447,0.904,-0.064
42.317,-0.451,0.910,-0.066
42.327,-0.453,0.906,-0.068
42.337,-0.453,0.906,-0.064
42.347,-0.453,0.906,-0.070
42.357,-0.455,0.906,-0.070
42.367,-0.457,0.904,-0.070
42.377,-0.453,0.908,-0.068
42.386,-0.449,0.914,-0.068
42.396,-0.451,0.914,-0.066
42.406,-0.447,0.916,-0.066
42.416,-0.447,0.910,-0.068
42.426,-0.447,0.910,-0.068
42.436,-0.447,0.912,-0.068
42.446,-0.443,0.906,-0.070
42.456,-0.447,0.904,-0.070
42.466,-0.447,0.904,-0.068
42.476,-0.449,0.904,-0.072
42.486,-0.449,0.902,-0.070
42.496,-0.449,0.906,-0.072
42.506,-0.451,0.908,-0.076
42.516,-0.449,0.912,-0.072
42.525,-0.455,0.910,-0.070
42.535,-0.451,0.908,-0.068
42.545,-0.451,0.908,-0.070
42.555,-0.457,0.906,-0.072
42.565,-0.457,0.906,-0.074
42.575,-0.457,0.904,-0.074
42.585,-0.455,0.902,-0.072
42.595,-0.457,0.904,-0.076
42.605,-0.451,0.906,-0.076
42.615,-0.453,0.906,-0.074
42.625,-0.453,0.908,-0.074
42.635,-0.455,0.908,-0.068
42.645,-0.451,0.906,-0.072
42.655,-0.453,0.904,-0.074
42.665,-0.461,0.906,-0.072
42.674,-0.455,0.904,-0.074
42.684,-0.457,0.912,-0.074
42.694,-0.455,0.914,-0.074
42.704,-0.459,0.912,-0.072
42.714,-0.451,0.904,-0.074
42.724,-0.447,0.900,-0.072
42.734,-0.453,0.900,-0.074
42.744,-0.455,0.908,-0.072
42.754,-0.455,0.906,-0.072
42.764,-0.453,0.908,-0.076
42.774,-0.455,0.906,-0.074
42.784,-0.453,0.906,-0.072
42.794,-0.453,0.906,-0.072
42.804,-0.449,0.908,-0.070
42.813,-0.451,0.902,-0.072
42.823,-0.449,0.902,-0.070
42.833,-0.451,0.904,-0.072
42.843,-0.453,0.904,-0.070
42.853,-0.453,0.902,-0.074
42.863,-0.457,0.908,-0.072
42.873,-0.455,0.910,-0.070
42.883,-0.455,0.914,-0.070
42.893,-0.453,0.912,-0.072
42.903,-0.453,0.910,-0.070
42.913,-0.449,0.906,-0.070
42.923,-0.451,0.904,-0.070
42.933,-0.449,0.912,-0.072
42.943,-0.449,0.906,-0.072
42.952,-0.449,0.908,-0.072
42.962,-0.449,0.908,-0.070
42.972,-0.451,0.902,-0.070
42.982,-0.457,0.906,-0.074
42.992,-0.455,0.912,-0.070
43.002,-0.451,0.914,-0.072
43.012,-0.451,0.910,-0.072
43.022,-0.449,0.908,-0.070
43.032,-0.451,0.906,-0.068
43.042,-0.449,0.908,-0.070
43.052,-0.453,0.904,-0.072
43.062,-0.453,0.906,-0.070
43.072,-0.453,0.908,-0.070
43.082,-0.449,0.906,-0.072
43.091,-0.449,0.910,-0.068
43.101,-0.453,0.910,-0.062
43.111,-0.453,0.908,-0.066
43.121,-0.453,0.906,-0.068
43.131,-0.451,0.908,-0.070
43.141,-0.451,0.908,-0.062
43.151,-0.449,0.910,-0.066
43.161,-0.451,0.906,-0.066
43.171,-0.453,0.904,-0.066
43.181,-0.451,0.908,-0.064
43.191,-0.453,0.906,-0.066
43.201,-0.453,0.906,-0.066
43.211,-0.455,0.908,-0.064
43.221,-0.455,0.906,-0.066
43.231,-0.453,0.908,-0.068
43.240,-0.453,0.908,-0.066
43.250,-0.451,0.902,-0.068
43.260,-0.449,0.906,-0.066
43.270,-0.449,0.916,-0.061
43.280,-0.445,0.916,-0.064
43.290,-0.449,0.906,-0.068
43.300,-0.451,0.898,-0.070
43.310,-0.457,0.900,-0.066
43.320,-0.457,0.906,-0.070
43.330,-0.457,0.910,-0.066
43.340,-0.457,0.914,-0.064
43.350,-0.453,0.914,-0.066
43.360,-0.451,0.910,-0.064
43.370,-0.451,0.906,-0.068
43.379,-0.449,0.900,-0.068
43.389,-0.449,0.900,-0.066
43.399,-0.453,0.904,-0.070
43.409,-0.449,0.908,-0.070
43.419,-0.453,0.910,-0.070
43.429,-0.455,0.914,-0.070
43.439,-0.451,0.914,-0.070
43.449,-0.447,0.914,-0.070
43.459,-0.451,0.916,-0.074
43.469,-0.449,0.908,-0.070
43.479,-0.449,0.908,-0.074
43.489,-0.449,0.904,-0.074
43.499,-0.451,0.902,-0.070
43.509,-0.447,0.908,-0.072
43.518,-0.449,0.914,-0.070
43.528,-0.445,0.912,-0.070
43.538,-0.445,0.910,-0.074
43.548,-0.447,0.906,-0.072
43.558,-0.449,0.908,-0.074
43.568,-0.449,0.908,-0.072
43.578,-0.447,0.908,-0.070
43.588,-0.447,0.912,-0.074
43.598,-0.449,0.912,-0.072
43.608,-0.449,0.910,-0.070
43.618,-0.451,0.910,-0.072
43.628,-0.451,0.906,-0.072
43.638,-0.453,0.910,-0.072
43.648,-0.451,0.906,-0.070
43.657,-0.451,0.906,-0.066
43.667,-0.451,0.908,-0.072
43.677,-0.445,0.908,-0.070
43.687,-0.451,0.908,-0.070
43.697,-0.453,0.908,-0.070
43.707,-0.449,0.908,-0.070
43.717,-0.453,0.912,-0.072
43.727,-0.451,0.908,-0.070
43.737,-0.451,0.908,-0.072
43.747,-0.453,0.908,-0.068
43.757,-0.451,0.908,-0.068
43.767,-0.451,0.912,-0.066
43.777,-0.451,0.908,-0.068
43.787,-0.453,0.908,-0.068
43.797,-0.453,0.910,-0.068
43.806,-0.453,0.908,-0.068
43.816,-0.457,0.906,-0.072
43.826,-0.453,0.910,-0.068
43.836,-0.453,0.908,-0.066
43.846,-0.451,0.912,-0.064
43.856,-0.451,0.910,-0.066
43.866,-0.453,0.908,-0.068
43.876,-0.451,0.898,-0.068
43.886,-0.457,0.898,-0.068
43.896,-0.459,0.902,-0.068
43.906,-0.457,0.908,-0.064
43.916,-0.459,0.910,-0.066
43.926,-0.457,0.910,-0.064
43.936,-0.455,0.908,-0.066
43.945,-0.455,0.904,-0.066
43.955,-0.459,0.902,-0.066
43.965,-0.457,0.904,-0.070
43.975,-0.457,0.906,-0.068
43.985,-0.457,0.902,-0.068
43.995,-0.453,0.904,-0.066
44.005,-0.455,0.906,-0.070
44.015,-0.455,0.906,-0.068
44.025,-0.455,0.910,-0.068
44.035,-0.453,0.912,-0.066
44.045,-0.449,0.910,-0.066
44.055,-0.451,0.910,-0.066
44.065,-0.451,0.906,-0.066
44.075,-0.451,0.906,-0.068
44.084,-0.449,0.906,-0.066
44.094,-0.451,0.912,-0.068
44.104,-0.449,0.912,-0.068
44.114,-0.451,0.906,-0.068
44.124,-0.445,0.906,-0.070
44.134,-0.451,0.906,-0.066
44.144,-0.453,0.906,-0.070
44.154,-0.453,0.908,-0.068
44.164,-0.451,0.910,-0.066
44.174,-0.451,0.910,-0.070
44.184,-0.453,0.908,-0.068
44.194,-0.449,0.910,-0.068
44.204,-0.451,0.908,-0.070
44.214,-0.449,0.906,-0.070
44.223,-0.451,0.904,-0.068
44.233,-0.449,0.904,-0.072
44.243,-0.451,0.906,-0.072
44.253,-0.451,0.906,-0.072
44.263,-0.449,0.906,-0.070
44.273,-0.455,0.908,-0.072
44.283,-0.451,0.910,-0.070
44.293,-0.453,0.906,-0.074
44.303,-0.457,0.908,-0.070
44.313,-0.453,0.908,-0.072
44.323,-0.455,0.906,-0.070
44.333,-0.453,0.904,-0.072
44.343,-0.449,0.906,-0.072
44.353,-0.451,0.906,-0.070
44.362,-0.449,0.906,-0.072
44.372,-0.453,0.904,-0.074
44.382,-0.455,0.908,-0.070
44.392,-0.457,0.912,-0.074
44.402,-0.455,0.906,-0.070
44.412,-0.453,0.908,-0.074
44.422,-0.453,0.904,-0.072
44.432,-0.453,0.906,-0.070
44.442,-0.457,0.914,-0.066
44.452,-0.451,0.912,-0.070
44.462,-0.449,0.906,-0.072
44.472,-0.451,0.896,-0.072
44.482,-0.453,0.896,-0.072
44.492,-0.459,0.898,-0.072
44.502,-0.459,0.908,-0.068
44.511,-0.461,0.916,-0.070
44.521,-0.455,0.920,-0.070
44.531,-0.455,0.912,-0.068
44.541,-0.457,0.904,-0.072
44.551,-0.453,0.902,-0.070
44.561,-0.453,0.902,-0.074
44.571,-0.451,0.902,-0.070
44.581,-0.453,0.902,-0.072
44.591,-0.451,0.906,-0.072
44.601,-0.451,0.910,-0.070
44.611,-0.455,0.910,-0.068
44.621,-0.451,0.912,-0.068
44.631,-0.451,0.914,-0.070
44.641,-0.449,0.912,-0.070
44.650,-0.451,0.906,-0.070
44.660,-0.449,0.906,-0.072
44.670,-0.453,0.902,-0.070
44.680,-0.451,0.902,-0.070
44.690,-0.455,0.908,-0.072
44.700,-0.451,0.910,-0.070
44.710,-0.451,0.910,-0.070
44.720,-0.449,0.902,-0.070
44.730,-0.451,0.906,-0.074
44.740,-0.453,0.906,-0.072
44.750,-0.451,0.908,-0.068
44.760,-0.451,0.910,-0.072
44.770,-0.451,0.908,-0.070
44.780,-0.451,0.908,-0.072
44.789,-0.451,0.908,-0.068
44.799,-0.453,0.906,-0.068
44.809,-0.453,0.904,-0.072
44.819,-0.453,0.900,-0.074
44.829,-0.455,0.898,-0.072
44.839,-0.455,0.902,-0.074
44.849,-0.453,0.904,-0.076
44.859,-0.453,0.902,-0.080
44.869,-0.449,0.900,-0.074
44.879,-0.453,0.912,-0.074
44.889,-0.451,0.916,-0.074
44.899,-0.453,0.916,-0.072
44.909,-0.455,0.912,-0.074
44.919,-0.453,0.906,-0.072
44.928,-0.451,0.904,-0.072
44.938,-0.451,0.898,-0.074
44.948,-0.449,0.902,-0.070
44.958,-0.449,0.902,-0.070
44.968,-0.455,0.910,-0.072
44.978,-0.457,0.912,-0.068
44.988,-0.457,0.910,-0.068
44.998,-0.457,0.914,-0.066
45.008,-0.457,0.908,-0.070
45.018,-0.457,0.898,-0.068
45.028,-0.457,0.904,-0.066
45.038,-0.461,0.906,-0.064
45.048,-0.457,0.908,-0.064
45.058,-0.461,0.908,-0.066
45.068,-0.461,0.910,-0.062
45.077,-0.455,0.906,-0.059
45.087,-0.453,0.914,-0.061
45.097,-0.455,0.918,-0.059
45.107,-0.455,0.906,-0.064
45.117,-0.461,0.896,-0.062
45.127,-0.465,0.896,-0.064
45.137,-0.467,0.902,-0.064
45.147,-0.463,0.904,-0.059
45.157,-0.461,0.912,-0.057
45.167,-0.457,0.910,-0.057
45.177,-0.455,0.906,-0.061
45.187,-0.459,0.906,-0.059
45.197,-0.455,0.900,-0.062
45.207,-0.459,0.902,-0.061
45.216,-0.461,0.904,-0.062
45.226,-0.463,0.904,-0.061
45.236,-0.465,0.908,-0.059
45.246,-0.467,0.902,-0.059
45.256,-0.463,0.904,-0.059
45.266,-0.463,0.904,-0.059
45.276,-0.457,0.902,-0.062
45.286,-0.463,0.902,-0.062
45.296,-0.459,0.904,-0.061
45.306,-0.461,0.904,-0.061
45.316,-0.465,0.902,-0.064
45.326,-0.467,0.902,-0.062
45.336,-0.463,0.908,-0.062
45.346,-0.463,0.906,-0.061
45.355,-0.463,0.902,-0.066
45.365,-0.459,0.898,-0.064
45.375,-0.461,0.900,-0.064
45.385,-0.461,0.906,-0.064
45.395,-0.459,0.908,-0.064
45.405,-0.457,0.910,-0.064
45.415,-0.459,0.908,-0.062
45.425,-0.457,0.910,-0.064
45.435,-0.459,0.908,-0.064
45.445,-0.455,0.904,-0.062
45.455,-0.455,0.906,-0.062
45.465,-0.455,0.906,-0.066
45.475,-0.451,0.910,-0.062
45.485,-0.455,0.906,-0.062
45.494,-0.455,0.908,-0.068
45.504,-0.455,0.906,-0.066
45.514,-0.459,0.906,-0.064
45.524,-0.459,0.908,-0.064
45.534,-0.461,0.906,-0.064
45.544,-0.463,0.906,-0.066
45.554,-0.463,0.906,-0.066
45.564,-0.463,0.904,-0.068
45.574,-0.461,0.906,-0.068
45.584,-0.461,0.902,-0.066
45.594,-0.461,0.906,-0.068
45.604,-0.461,0.902,-0.068
45.614,-0.461,0.900,-0.068
45.624,-0.465,0.904,-0.068
45.634,-0.465,0.906,-0.066
45.643,-0.461,0.906,-0.068
45.653,-0.463,0.908,-0.068
45.663,-0.463,0.904,-0.066
45.673,-0.459,0.900,-0.068
45.683,-0.465,0.904,-0.068
45.693,-0.457,0.904,-0.066
45.703,-0.453,0.908,-0.064
45.713,-0.461,0.908,-0.064
45.723,-0.459,0.906,-0.066
45.733,-0.461,0.895,-0.070
45.743,-0.471,0.898,-0.066
45.753,-0.469,0.904,-0.064
45.763,-0.469,0.904,-0.064
45.773,-0.469,0.906,-0.062
45.782,-0.467,0.906,-0.062
45.792,-0.465,0.902,-0.064
45.802,-0.467,0.896,-0.066
45.812,-0.469,0.900,-0.068
45.822,-0.467,0.900,-0.064
45.832,-0.465,0.900,-0.064
45.842,-0.467,0.902,-0.064
45.852,-0.469,0.902,-0.061
45.862,-0.467,0.906,-0.062
45.872,-0.467,0.904,-0.064
45.882,-0.463,0.904,-0.064
45.892,-0.461,0.906,-0.064
45.902,-0.457,0.906,-0.062
45.912,-0.459,0.902,-0.061
45.921,-0.461,0.904,-0.064
45.931,-0.465,0.898,-0.062
45.941,-0.465,0.904,-0.064
45.951,-0.459,0.910,-0.061
45.961,-0.461,0.906,-0.061
45.971,-0.461,0.904,-0.062
45.981,-0.461,0.900,-0.064
45.991,-0.459,0.898,-0.062
46.001,-0.461,0.904,-0.066
46.011,-0.461,0.906,-0.068
46.021,-0.457,0.906,-0.066
46.031,-0.461,0.906,-0.061
46.041,-0.461,0.906,-0.062
46.051,-0.461,0.904,-0.064
46.060,-0.463,0.904,-0.062
46.070,-0.461,0.906,-0.066
46.080,-0.457,0.904,-0.066
46.090,-0.459,0.904,-0.066
46.100,-0.457,0.904,-0.068
46.110,-0.457,0.904,-0.062
46.120,-0.457,0.904,-0.066
46.130,-0.459,0.900,-0.066
46.140,-0.459,0.908,-0.062
46.150,-0.461,0.906,-0.064
46.160,-0.459,0.908,-0.066
46.170,-0.461,0.904,-0.062
46.180,-0.461,0.902,-0.062
46.190,-0.459,0.906,-0.066
46.200,-0.461,0.906,-0.064
46.209,-0.461,0.906,-0.062
46.219,-0.461,0.904,-0.068
46.229,-0.459,0.902,-0.068
46.239,-0.459,0.906,-0.064
46.249,-0.459,0.906,-0.064
46.259,-0.463,0.904,-0.062
46.269,-0.463,0.906,-0.064
46.279,-0.459,0.904,-0.062
46.289,-0.463,0.902,-0.064
46.299,-0.463,0.902,-0.062
46.309,-0.465,0.906,-0.062
46.319,-0.461,0.910,-0.061
46.329,-0.459,0.910,-0.062
46.339,-0.459,0.904,-0.064
46.348,-0.459,0.896,-0.064
46.358,-0.463,0.895,-0.062
46.368,-0.465,0.900,-0.062
46.378,-0.465,0.908,-0.061
46.388,-0.465,0.910,-0.062
46.398,-0.463,0.912,-0.059
46.408,-0.463,0.908,-0.062
46.418,-0.457,0.906,-0.064
46.428,-0.461,0.900,-0.061
46.438,-0.463,0.900,-0.064
46.448,-0.461,0.898,-0.068
46.458,-0.461,0.900,-0.064
46.468,-0.465,0.900,-0.066
46.478,-0.463,0.902,-0.068
46.487,-0.465,0.908,-0.066
46.497,-0.469,0.906,-0.066
46.507,-0.467,0.908,-0.064
46.517,-0.461,0.910,-0.064
46.527,-0.463,0.906,-0.066
46.537,-0.463,0.902,-0.066
46.547,-0.463,0.902,-0.064
46.557,-0.465,0.902,-0.062
46.567,-0.465,0.904,-0.068
46.577,-0.461,0.906,-0.064
46.587,-0.463,0.902,-0.062
46.597,-0.459,0.900,-0.066
46.607,-0.461,0.900,-0.064
46.617,-0.463,0.898,-0.068
46.626,-0.467,0.906,-0.062
46.636,-0.461,0.910,-0.064
46.646,-0.465,0.908,-0.068
46.656,-0.463,0.904,-0.062
46.666,-0.465,0.906,-0.061
46.676,-0.463,0.902,-0.062
46.686,-0.461,0.902,-0.066
46.696,-0.463,0.902,-0.064
46.706,-0.461,0.902,-0.061
46.716,-0.463,0.900,-0.066
46.726,-0.465,0.904,-0.064
46.736,-0.465,0.906,-0.068
46.746,-0.463,0.904,-0.064
46.756,-0.467,0.902,-0.064
46.766,-0.465,0.906,-0.064
46.775,-0.467,0.904,-0.066
46.785,-0.467,0.904,-0.064
46.795,-0.467,0.904,-0.066
46.805,-0.463,0.900,-0.066
46.815,-0.461,0.900,-0.066
46.825,-0.467,0.900,-0.066
46.835,-0.463,0.900,-0.068
46.845,-0.467,0.898,-0.066
46.855,-0.467,0.902,-0.062
46.865,-0.467,0.902,-0.066
46.875,-0.467,0.900,-0.066
46.885,-0.465,0.904,-0.064
46.895,-0.465,0.900,-0.064
46.905,-0.469,0.902,-0.064
46.914,-0.467,0.904,-0.066
46.924,-0.467,0.902,-0.066
46.934,-0.471,0.902,-0.064
46.944,-0.469,0.898,-0.062
46.954,-0.469,0.900,-0.066
46.964,-0.467,0.904,-0.061
46.974,-0.467,0.910,-0.061
46.984,-0.465,0.904,-0.061
46.994,-0.463,0.893,-0.062
47.004,-0.467,0.891,-0.062
47.014,-0.471,0.895,-0.066
47.024,-0.469,0.902,-0.066
47.034,-0.467,0.908,-0.062
47.044,-0.469,0.908,-0.064
47.053,-0.465,0.906,-0.064
47.063,-0.465,0.902,-0.064
47.073,-0.465,0.898,-0.066
47.083,-0.467,0.896,-0.066
47.093,-0.467,0.896,-0.068
47.103,-0.467,0.896,-0.066
47.113,-0.469,0.900,-0.068
47.123,-0.467,0.898,-0.064
47.133,-0.467,0.902,-0.064
47.143,-0.467,0.906,-0.066
47.153,-0.467,0.908,-0.064
47.163,-0.463,0.904,-0.066
47.173,-0.469,0.902,-0.064
47.183,-0.463,0.904,-0.066
47.192,-0.467,0.902,-0.066
47.202,-0.469,0.898,-0.068
47.212,-0.469,0.902,-0.068
47.222,-0.467,0.906,-0.068
47.232,-0.463,0.906,-0.068
47.242,-0.465,0.904,-0.070
47.252,-0.463,0.900,-0.068
47.262,-0.463,0.896,-0.068
47.272,-0.463,0.900,-0.066
47.282,-0.465,0.902,-0.068
47.292,-0.465,0.906,-0.068
47.302,-0.463,0.906,-0.070
47.312,-0.465,0.904,-0.066
47.322,-0.465,0.906,-0.062
47.332,-0.465,0.898,-0.066
47.341,-0.465,0.898,-0.072
47.351,-0.463,0.900,-0.068
47.361,-0.467,0.900,-0.068
47.371,-0.467,0.904,-0.066
47.381,-0.469,0.900,-0.066
47.391,-0.469,0.904,-0.068
47.401,-0.469,0.900,-0.070
47.411,-0.465,0.900,-0.066
47.421,-0.469,0.898,-0.068
47.431,-0.467,0.900,-0.070
47.441,-0.469,0.900,-0.070
47.451,-0.469,0.902,-0.066
47.461,-0.467,0.902,-0.070
47.471,-0.471,0.900,-0.068
47.480,-0.467,0.898,-0.068
47.490,-0.469,0.900,-0.066
47.500,-0.467,0.902,-0.066
47.510,-0.465,0.902,-0.068
47.520,-0.467,0.904,-0.066
47.530,-0.465,0.904,-0.070
47.540,-0.469,0.902,-0.066
47.550,-0.467,0.900,-0.072
47.560,-0.467,0.902,-0.068
47.570,-0.467,0.904,-0.068
47.580,-0.469,0.902,-0.066
47.590,-0.469,0.904,-0.068
47.600,-0.465,0.904,-0.066
47.610,-0.467,0.900,-0.070
47.619,-0.467,0.898,-0.064
47.629,-0.467,0.900,-0.066
47.639,-0.465,0.908,-0.066
47.649,-0.459,0.908,-0.068
47.659,-0.465,0.906,-0.062
47.669,-0.463,0.900,-0.066
47.679,-0.461,0.891,-0.070
47.689,-0.465,0.896,-0.068
47.699,-0.467,0.906,-0.066
47.709,-0.469,0.906,-0.064
47.719,-0.465,0.904,-0.064
47.729,-0.465,0.904,-0.068
47.739,-0.465,0.900,-0.066
47.749,-0.467,0.898,-0.066
47.758,-0.469,0.898,-0.068
47.768,-0.469,0.898,-0.068
47.778,-0.467,0.896,-0.072
47.788,-0.465,0.900,-0.064
47.798,-0.465,0.904,-0.070
47.808,-0.469,0.904,-0.068
47.818,-0.467,0.902,-0.066
47.828,-0.463,0.906,-0.070
47.838,-0.465,0.906,-0.068
47.848,-0.461,0.908,-0.066
47.858,-0.463,0.902,-0.068
47.868,-0.465,0.898,-0.068
47.878,-0.467,0.898,-0.070
47.888,-0.465,0.902,-0.068
47.897,-0.467,0.904,-0.068
47.907,-0.465,0.902,-0.066
47.917,-0.465,0.904,-0.068
47.927,-0.467,0.900,-0.072
47.937,-0.469,0.904,-0.072
47.947,-0.469,0.904,-0.068
47.957,-0.467,0.908,-0.072
47.967,-0.465,0.910,-0.068
47.977,-0.467,0.906,-0.068
47.987,-0.461,0.902,-0.068
47.997,-0.457,0.902,-0.070
48.007,-0.463,0.900,-0.070
48.017,-0.461,0.900,-0.066
48.027,-0.461,0.896,-0.066
48.037,-0.465,0.900,-0.066
48.046,-0.463,0.900,-0.068
48.056,-0.465,0.900,-0.066
48.066,-0.467,0.900,-0.068
48.076,-0.469,0.900,-0.070
48.086,-0.469,0.902,-0.068
48.096,-0.473,0.904,-0.070
48.106,-0.471,0.902,-0.070
48.116,-0.473,0.900,-0.068
48.126,-0.473,0.898,-0.070
48.136,-0.469,0.900,-0.068
48.146,-0.469,0.900,-0.068
48.156,-0.467,0.900,-0.066
48.166,-0.465,0.902,-0.068
48.176,-0.465,0.904,-0.064
48.185,-0.465,0.902,-0.064
48.195,-0.465,0.900,-0.066
48.205,-0.465,0.898,-0.066
48.215,-0.469,0.904,-0.066
48.225,-0.469,0.902,-0.070
48.235,-0.469,0.906,-0.066
48.245,-0.469,0.906,-0.064
48.255,-0.467,0.904,-0.066
48.265,-0.467,0.904,-0.066
48.275,-0.469,0.904,-0.066
48.285,-0.467,0.902,-0.066
48.295,-0.467,0.900,-0.066
48.305,-0.469,0.902,-0.064
48.315,-0.467,0.900,-0.064
48.324,-0.463,0.904,-0.062
48.334,-0.463,0.912,-0.064
48.344,-0.461,0.908,-0.066
48.354,-0.463,0.900,-0.068
48.364,-0.465,0.893,-0.066
48.374,-0.471,0.896,-0.066
48.384,-0.469,0.904,-0.066
48.394,-0.469,0.908,-0.064
48.404,-0.463,0.908,-0.062
48.414,-0.465,0.904,-0.062
48.424,-0.463,0.898,-0.062
48.434,-0.463,0.898,-0.064
48.444,-0.465,0.896,-0.064
48.454,-0.465,0.896,-0.064
48.463,-0.467,0.902,-0.064
48.473,-0.469,0.900,-0.064
48.483,-0.471,0.906,-0.066
48.493,-0.469,0.904,-0.064
48.503,-0.471,0.906,-0.066
48.513,-0.469,0.902,-0.066
48.523,-0.469,0.904,-0.064
48.533,-0.465,0.906,-0.061
48.543,-0.465,0.906,-0.061
48.553,-0.461,0.902,-0.066
48.563,-0.463,0.902,-0.066
48.573,-0.465,0.902,-0.064
48.583,-0.461,0.908,-0.061
48.593,-0.463,0.906,-0.066
48.603,-0.463,0.906,-0.068
48.612,-0.463,0.902,-0.068
48.622,-0.461,0.902,-0.070
48.632,-0.463,0.904,-0.064
48.642,-0.461,0.904,-0.064
48.652,-0.461,0.906,-0.064
48.662,-0.459,0.906,-0.064
48.672,-0.461,0.908,-0.066
48.682,-0.463,0.904,-0.066
48.692,-0.461,0.904,-0.064
48.702,-0.463,0.900,-0.064
48.712,-0.463,0.902,-0.066
48.722,-0.461,0.902,-0.066
48.732,-0.463,0.902,-0.066
48.742,-0.457,0.904,-0.070
48.751,-0.459,0.902,-0.064
48.761,-0.463,0.902,-0.068
48.771,-0.463,0.906,-0.066
48.781,-0.467,0.904,-0.066
48.791,-0.469,0.904,-0.068
48.801,-0.465,0.904,-0.068
48.811,-0.463,0.900,-0.066
48.821,-0.463,0.902,-0.068
48.831,-0.463,0.904,-0.070
48.841,-0.465,0.902,-0.070
