df_hash,22ZHK4.3NGMYT
device,HZ2X61
project_hash,29R7
project_name,istanbul_aydin_university
person_hash,29R7.VVA5
person_label,V18
date_time_start,2025-05-23_10-26-57.429000_+03
date_time_start_unix,1747985217.429
date_time_end,2025-05-23_10-35-12.468000_+03
length_difference_noticed,no

time,acc_x,acc_y,acc_z
4.609,-0.727,0.695,-0.059
4.619,-0.723,0.691,-0.059
4.629,-0.725,0.693,-0.064
4.639,-0.725,0.691,-0.061
4.649,-0.723,0.689,-0.066
4.659,-0.725,0.689,-0.064
4.669,-0.723,0.689,-0.062
4.679,-0.721,0.688,-0.064
4.689,-0.719,0.689,-0.068
4.699,-0.721,0.695,-0.066
4.709,-0.721,0.701,-0.064
4.719,-0.725,0.695,-0.068
4.728,-0.725,0.695,-0.066
4.738,-0.721,0.693,-0.068
4.748,-0.721,0.691,-0.070
4.758,-0.721,0.695,-0.070
4.768,-0.715,0.689,-0.070
4.778,-0.715,0.693,-0.068
4.788,-0.717,0.695,-0.068
4.798,-0.715,0.695,-0.068
4.808,-0.717,0.699,-0.068
4.818,-0.719,0.699,-0.070
4.828,-0.719,0.701,-0.072
4.838,-0.721,0.703,-0.070
4.848,-0.713,0.697,-0.072
4.857,-0.711,0.699,-0.072
4.867,-0.709,0.699,-0.070
4.877,-0.703,0.703,-0.066
4.887,-0.707,0.703,-0.066
4.897,-0.707,0.703,-0.066
4.907,-0.715,0.713,-0.068
4.917,-0.709,0.711,-0.068
4.927,-0.707,0.703,-0.072
4.937,-0.711,0.705,-0.070
4.947,-0.713,0.711,-0.072
4.957,-0.713,0.715,-0.070
4.967,-0.711,0.713,-0.070
4.977,-0.705,0.711,-0.062
4.987,-0.697,0.697,-0.066
4.996,-0.697,0.693,-0.062
5.006,-0.703,0.693,-0.064
5.016,-0.705,0.693,-0.064
5.026,-0.707,0.695,-0.062
5.036,-0.703,0.697,-0.061
5.046,-0.707,0.697,-0.062
5.056,-0.699,0.695,-0.055
5.066,-0.705,0.701,-0.057
5.076,-0.703,0.701,-0.061
5.086,-0.705,0.707,-0.061
5.096,-0.699,0.711,-0.064
5.106,-0.705,0.709,-0.072
5.116,-0.709,0.709,-0.078
5.125,-0.707,0.711,-0.082
5.135,-0.709,0.705,-0.080
5.145,-0.713,0.715,-0.084
5.155,-0.709,0.711,-0.086
5.165,-0.705,0.715,-0.086
5.175,-0.707,0.711,-0.088
5.185,-0.705,0.713,-0.088
5.195,-0.703,0.717,-0.088
5.205,-0.705,0.721,-0.090
5.215,-0.703,0.719,-0.088
5.225,-0.693,0.723,-0.086
5.235,-0.695,0.717,-0.084
5.245,-0.689,0.715,-0.086
5.255,-0.689,0.715,-0.082
5.264,-0.688,0.719,-0.082
5.274,-0.688,0.715,-0.082
5.284,-0.689,0.717,-0.084
5.294,-0.689,0.713,-0.084
5.304,-0.689,0.709,-0.084
5.314,-0.693,0.713,-0.082
5.324,-0.695,0.721,-0.088
5.334,-0.693,0.715,-0.088
5.344,-0.693,0.711,-0.086
5.354,-0.695,0.711,-0.086
5.364,-0.695,0.711,-0.086
5.374,-0.697,0.713,-0.084
5.384,-0.691,0.713,-0.084
5.393,-0.691,0.713,-0.084
5.403,-0.693,0.713,-0.084
5.413,-0.691,0.717,-0.084
5.423,-0.691,0.715,-0.084
5.433,-0.691,0.711,-0.082
5.443,-0.689,0.707,-0.080
5.453,-0.695,0.705,-0.086
5.463,-0.695,0.711,-0.082
5.473,-0.695,0.719,-0.082
5.483,-0.695,0.717,-0.084
5.493,-0.691,0.713,-0.084
5.503,-0.691,0.709,-0.088
5.513,-0.688,0.713,-0.090
5.523,-0.688,0.711,-0.090
5.532,-0.688,0.709,-0.086
5.542,-0.688,0.713,-0.094
5.552,-0.688,0.715,-0.094
5.562,-0.688,0.713,-0.088
5.572,-0.688,0.719,-0.086
5.582,-0.688,0.727,-0.078
5.592,-0.693,0.727,-0.086
5.602,-0.695,0.727,-0.078
5.612,-0.693,0.713,-0.084
5.622,-0.695,0.703,-0.086
5.632,-0.689,0.697,-0.090
5.642,-0.688,0.689,-0.090
5.652,-0.684,0.693,-0.088
5.661,-0.684,0.699,-0.092
5.671,-0.682,0.703,-0.090
5.681,-0.684,0.711,-0.094
5.691,-0.678,0.711,-0.096
5.701,-0.678,0.713,-0.096
5.711,-0.680,0.713,-0.102
5.721,-0.674,0.709,-0.107
5.731,-0.678,0.711,-0.111
5.741,-0.674,0.721,-0.111
5.751,-0.672,0.723,-0.109
5.761,-0.674,0.729,-0.113
5.771,-0.670,0.744,-0.123
5.781,-0.670,0.746,-0.127
5.791,-0.672,0.748,-0.127
5.800,-0.664,0.748,-0.135
5.810,-0.662,0.744,-0.133
5.820,-0.662,0.748,-0.129
5.830,-0.656,0.748,-0.137
5.840,-0.650,0.740,-0.137
5.850,-0.648,0.738,-0.139
5.860,-0.656,0.736,-0.145
5.870,-0.658,0.738,-0.145
5.880,-0.662,0.746,-0.145
5.890,-0.660,0.746,-0.141
5.900,-0.660,0.740,-0.145
5.910,-0.654,0.740,-0.143
5.920,-0.658,0.736,-0.146
5.929,-0.666,0.738,-0.148
5.939,-0.664,0.734,-0.152
5.949,-0.662,0.725,-0.152
5.959,-0.666,0.730,-0.154
5.969,-0.666,0.734,-0.150
5.979,-0.664,0.730,-0.148
5.989,-0.666,0.729,-0.148
5.999,-0.664,0.729,-0.146
6.009,-0.666,0.730,-0.146
6.019,-0.668,0.729,-0.150
6.029,-0.666,0.723,-0.148
6.039,-0.666,0.723,-0.146
6.049,-0.664,0.725,-0.146
6.059,-0.666,0.723,-0.146
6.068,-0.668,0.721,-0.146
6.078,-0.670,0.723,-0.146
6.088,-0.672,0.721,-0.146
6.098,-0.668,0.717,-0.146
6.108,-0.672,0.715,-0.146
6.118,-0.672,0.717,-0.145
6.128,-0.678,0.713,-0.146
6.138,-0.676,0.709,-0.145
6.148,-0.676,0.711,-0.146
6.158,-0.674,0.711,-0.148
6.168,-0.678,0.713,-0.146
6.178,-0.678,0.713,-0.150
6.188,-0.678,0.711,-0.150
6.198,-0.678,0.703,-0.145
6.207,-0.680,0.711,-0.148
6.217,-0.678,0.711,-0.146
6.227,-0.680,0.709,-0.145
6.237,-0.684,0.719,-0.143
6.247,-0.680,0.713,-0.146
6.257,-0.674,0.709,-0.146
6.267,-0.678,0.711,-0.146
6.277,-0.682,0.721,-0.146
6.287,-0.684,0.719,-0.146
6.297,-0.686,0.717,-0.143
6.307,-0.678,0.725,-0.139
6.317,-0.678,0.719,-0.137
6.327,-0.672,0.725,-0.139
6.336,-0.664,0.723,-0.135
6.346,-0.664,0.711,-0.135
6.356,-0.660,0.713,-0.139
6.366,-0.664,0.709,-0.131
6.376,-0.668,0.709,-0.135
6.386,-0.676,0.705,-0.133
6.396,-0.680,0.705,-0.137
6.406,-0.688,0.697,-0.137
6.416,-0.689,0.699,-0.137
6.426,-0.693,0.703,-0.139
6.436,-0.703,0.705,-0.145
6.446,-0.707,0.701,-0.145
6.456,-0.711,0.703,-0.143
6.466,-0.713,0.701,-0.152
6.475,-0.717,0.697,-0.154
6.485,-0.715,0.701,-0.150
6.495,-0.717,0.705,-0.156
6.505,-0.715,0.697,-0.152
6.515,-0.705,0.691,-0.152
6.525,-0.701,0.693,-0.154
6.535,-0.695,0.699,-0.152
6.545,-0.693,0.705,-0.148
6.555,-0.689,0.709,-0.146
6.565,-0.689,0.715,-0.145
6.575,-0.686,0.713,-0.146
6.585,-0.686,0.711,-0.146
6.595,-0.684,0.707,-0.146
6.604,-0.678,0.707,-0.145
6.614,-0.678,0.707,-0.146
6.624,-0.678,0.707,-0.141
6.634,-0.676,0.711,-0.143
6.644,-0.678,0.715,-0.143
6.654,-0.678,0.713,-0.148
6.664,-0.684,0.709,-0.146
6.674,-0.684,0.713,-0.146
6.684,-0.682,0.713,-0.150
6.694,-0.682,0.715,-0.152
6.704,-0.688,0.717,-0.154
6.714,-0.688,0.719,-0.156
6.724,-0.684,0.713,-0.152
6.734,-0.689,0.713,-0.148
6.743,-0.691,0.709,-0.148
6.753,-0.688,0.703,-0.150
6.763,-0.686,0.699,-0.146
6.773,-0.689,0.699,-0.143
6.783,-0.689,0.699,-0.143
6.793,-0.691,0.695,-0.141
6.803,-0.693,0.697,-0.135
6.813,-0.697,0.697,-0.135
6.823,-0.695,0.697,-0.139
6.833,-0.699,0.699,-0.135
6.843,-0.705,0.695,-0.137
6.853,-0.703,0.695,-0.133
6.863,-0.697,0.693,-0.135
6.872,-0.701,0.693,-0.133
6.882,-0.701,0.695,-0.131
6.892,-0.695,0.689,-0.131
6.902,-0.695,0.695,-0.131
6.912,-0.699,0.703,-0.131
6.922,-0.703,0.703,-0.133
6.932,-0.695,0.705,-0.131
6.942,-0.695,0.705,-0.133
6.952,-0.699,0.703,-0.133
6.962,-0.693,0.697,-0.131
6.972,-0.689,0.699,-0.135
6.982,-0.693,0.709,-0.131
6.992,-0.697,0.709,-0.133
7.002,-0.695,0.705,-0.131
7.011,-0.689,0.695,-0.135
7.021,-0.688,0.697,-0.133
7.031,-0.697,0.701,-0.137
7.041,-0.695,0.711,-0.131
7.051,-0.705,0.705,-0.135
7.061,-0.701,0.711,-0.135
7.071,-0.693,0.703,-0.131
7.081,-0.701,0.697,-0.135
7.091,-0.701,0.699,-0.131
7.101,-0.695,0.701,-0.133
7.111,-0.697,0.701,-0.133
7.121,-0.695,0.699,-0.133
7.131,-0.689,0.699,-0.133
7.140,-0.693,0.697,-0.133
7.150,-0.695,0.701,-0.129
7.160,-0.697,0.701,-0.131
7.170,-0.699,0.699,-0.133
7.180,-0.695,0.695,-0.133
7.190,-0.693,0.699,-0.133
7.200,-0.695,0.705,-0.133
7.210,-0.695,0.705,-0.135
7.220,-0.697,0.703,-0.133
7.230,-0.695,0.705,-0.133
7.240,-0.695,0.707,-0.133
7.250,-0.695,0.701,-0.129
7.260,-0.691,0.709,-0.133
7.270,-0.695,0.707,-0.133
7.279,-0.689,0.707,-0.131
7.289,-0.689,0.699,-0.133
7.299,-0.691,0.701,-0.133
7.309,-0.691,0.703,-0.135
7.319,-0.691,0.707,-0.133
7.329,-0.691,0.709,-0.137
7.339,-0.689,0.709,-0.131
7.349,-0.689,0.709,-0.133
7.359,-0.688,0.709,-0.137
7.369,-0.691,0.707,-0.139
7.379,-0.691,0.709,-0.141
7.389,-0.686,0.705,-0.137
7.399,-0.688,0.713,-0.137
7.408,-0.689,0.713,-0.141
7.418,-0.688,0.713,-0.137
7.428,-0.689,0.713,-0.137
7.438,-0.686,0.713,-0.139
7.448,-0.684,0.713,-0.137
7.458,-0.684,0.711,-0.139
7.468,-0.691,0.713,-0.139
7.478,-0.689,0.713,-0.135
7.488,-0.684,0.709,-0.137
7.498,-0.684,0.709,-0.133
7.508,-0.682,0.709,-0.135
7.518,-0.682,0.705,-0.131
7.528,-0.688,0.711,-0.135
7.538,-0.688,0.709,-0.131
7.547,-0.691,0.709,-0.135
7.557,-0.689,0.709,-0.133
7.567,-0.686,0.707,-0.135
7.577,-0.688,0.707,-0.131
7.587,-0.693,0.709,-0.131
7.597,-0.691,0.709,-0.131
7.607,-0.689,0.703,-0.135
7.617,-0.691,0.699,-0.131
7.627,-0.689,0.707,-0.131
7.637,-0.691,0.711,-0.133
7.647,-0.693,0.711,-0.129
7.657,-0.691,0.711,-0.131
7.667,-0.691,0.707,-0.129
7.677,-0.691,0.711,-0.129
7.686,-0.689,0.705,-0.129
7.696,-0.686,0.707,-0.125
7.706,-0.691,0.711,-0.127
7.716,-0.689,0.711,-0.125
7.726,-0.689,0.707,-0.125
7.736,-0.691,0.707,-0.125
7.746,-0.691,0.705,-0.125
7.756,-0.691,0.707,-0.125
7.766,-0.689,0.705,-0.125
7.776,-0.693,0.705,-0.125
7.786,-0.695,0.707,-0.127
7.796,-0.695,0.707,-0.125
7.806,-0.693,0.707,-0.123
7.815,-0.695,0.711,-0.127
7.825,-0.689,0.709,-0.127
7.835,-0.689,0.707,-0.125
7.845,-0.693,0.711,-0.125
7.855,-0.695,0.709,-0.125
7.865,-0.691,0.707,-0.121
7.875,-0.688,0.705,-0.121
7.885,-0.686,0.707,-0.121
7.895,-0.688,0.705,-0.123
7.905,-0.689,0.711,-0.127
7.915,-0.691,0.711,-0.125
7.925,-0.697,0.709,-0.125
7.935,-0.697,0.709,-0.127
7.945,-0.697,0.707,-0.125
7.954,-0.689,0.709,-0.123
7.964,-0.689,0.709,-0.125
7.974,-0.689,0.707,-0.121
7.984,-0.686,0.707,-0.123
7.994,-0.688,0.703,-0.121
8.004,-0.689,0.707,-0.123
8.014,-0.691,0.707,-0.125
8.024,-0.695,0.703,-0.123
8.034,-0.699,0.705,-0.123
8.044,-0.697,0.705,-0.121
8.054,-0.697,0.705,-0.123
8.064,-0.699,0.709,-0.123
8.074,-0.697,0.705,-0.125
8.083,-0.691,0.701,-0.123
8.093,-0.689,0.701,-0.119
8.103,-0.691,0.703,-0.121
8.113,-0.695,0.707,-0.117
8.123,-0.691,0.707,-0.117
8.133,-0.693,0.707,-0.121
8.143,-0.695,0.705,-0.119
8.153,-0.697,0.705,-0.121
8.163,-0.699,0.705,-0.123
8.173,-0.695,0.703,-0.121
8.183,-0.693,0.703,-0.119
8.193,-0.693,0.705,-0.123
8.203,-0.691,0.701,-0.125
8.213,-0.693,0.703,-0.129
8.222,-0.695,0.711,-0.125
8.232,-0.693,0.719,-0.121
8.242,-0.697,0.717,-0.123
8.252,-0.691,0.711,-0.129
8.262,-0.688,0.697,-0.125
8.272,-0.691,0.701,-0.129
8.282,-0.695,0.711,-0.127
8.292,-0.699,0.719,-0.127
8.302,-0.699,0.721,-0.129
8.312,-0.693,0.719,-0.125
8.322,-0.695,0.713,-0.129
8.332,-0.695,0.711,-0.127
8.342,-0.689,0.707,-0.129
8.351,-0.691,0.709,-0.123
8.361,-0.695,0.705,-0.127
8.371,-0.697,0.705,-0.123
8.381,-0.695,0.701,-0.123
8.391,-0.697,0.699,-0.117
8.401,-0.701,0.695,-0.123
8.411,-0.703,0.693,-0.115
8.421,-0.705,0.697,-0.119
8.431,-0.699,0.697,-0.115
8.441,-0.703,0.697,-0.119
8.451,-0.697,0.701,-0.115
8.461,-0.703,0.699,-0.113
8.471,-0.699,0.701,-0.115
8.481,-0.699,0.699,-0.111
8.490,-0.701,0.701,-0.111
8.500,-0.699,0.713,-0.109
8.510,-0.697,0.707,-0.115
8.520,-0.697,0.707,-0.111
8.530,-0.697,0.707,-0.115
8.540,-0.693,0.703,-0.115
8.550,-0.695,0.709,-0.117
8.560,-0.695,0.709,-0.109
8.570,-0.695,0.713,-0.113
8.580,-0.699,0.713,-0.113
8.590,-0.699,0.709,-0.115
8.600,-0.697,0.713,-0.111
8.610,-0.699,0.705,-0.104
8.619,-0.693,0.705,-0.111
8.629,-0.697,0.705,-0.107
8.639,-0.688,0.715,-0.111
8.649,-0.689,0.709,-0.105
8.659,-0.691,0.709,-0.107
8.669,-0.693,0.709,-0.107
8.679,-0.701,0.703,-0.107
8.689,-0.697,0.709,-0.105
8.699,-0.695,0.711,-0.104
8.709,-0.678,0.717,-0.104
8.719,-0.658,0.727,-0.102
8.729,-0.650,0.742,-0.092
8.739,-0.645,0.740,-0.104
8.749,-0.639,0.729,-0.102
8.758,-0.631,0.736,-0.098
8.768,-0.629,0.754,-0.102
8.778,-0.641,0.740,-0.096
8.788,-0.639,0.740,-0.102
8.798,-0.637,0.734,-0.111
8.808,-0.637,0.734,-0.111
8.818,-0.639,0.734,-0.109
8.828,-0.646,0.730,-0.123
8.838,-0.660,0.713,-0.125
8.848,-0.676,0.695,-0.139
8.858,-0.684,0.686,-0.145
8.868,-0.709,0.686,-0.148
8.878,-0.719,0.682,-0.170
8.888,-0.723,0.684,-0.162
8.897,-0.732,0.691,-0.166
8.907,-0.738,0.695,-0.170
8.917,-0.736,0.703,-0.166
8.927,-0.725,0.699,-0.166
8.937,-0.729,0.701,-0.158
8.947,-0.732,0.697,-0.154
8.957,-0.744,0.682,-0.154
8.967,-0.742,0.676,-0.160
8.977,-0.730,0.654,-0.158
8.987,-0.729,0.648,-0.162
8.997,-0.734,0.645,-0.162
9.007,-0.734,0.654,-0.164
9.017,-0.734,0.668,-0.162
9.026,-0.750,0.672,-0.158
9.036,-0.742,0.688,-0.160
9.046,-0.746,0.689,-0.160
9.056,-0.740,0.688,-0.160
9.066,-0.725,0.691,-0.158
9.076,-0.717,0.688,-0.156
9.086,-0.717,0.688,-0.154
9.096,-0.715,0.693,-0.146
9.106,-0.709,0.697,-0.148
9.116,-0.709,0.689,-0.146
9.126,-0.701,0.686,-0.146
9.136,-0.689,0.691,-0.148
9.146,-0.701,0.682,-0.139
9.156,-0.713,0.691,-0.150
9.165,-0.719,0.691,-0.143
9.175,-0.715,0.689,-0.145
9.185,-0.703,0.678,-0.139
9.195,-0.703,0.678,-0.139
9.205,-0.705,0.682,-0.137
9.215,-0.701,0.682,-0.133
9.225,-0.711,0.680,-0.135
9.235,-0.715,0.686,-0.139
9.245,-0.711,0.686,-0.133
9.255,-0.715,0.686,-0.135
9.265,-0.717,0.689,-0.131
9.275,-0.713,0.682,-0.135
9.285,-0.715,0.684,-0.131
9.294,-0.709,0.682,-0.131
9.304,-0.717,0.688,-0.131
9.314,-0.711,0.693,-0.129
9.324,-0.711,0.688,-0.127
9.334,-0.703,0.682,-0.129
9.344,-0.703,0.678,-0.125
9.354,-0.707,0.682,-0.127
9.364,-0.711,0.684,-0.127
9.374,-0.719,0.691,-0.123
9.384,-0.721,0.691,-0.125
9.394,-0.723,0.689,-0.131
9.404,-0.717,0.688,-0.127
9.414,-0.723,0.682,-0.131
9.424,-0.727,0.680,-0.131
9.433,-0.725,0.674,-0.135
9.443,-0.725,0.672,-0.135
9.453,-0.725,0.674,-0.133
9.463,-0.723,0.670,-0.133
9.473,-0.730,0.680,-0.129
9.483,-0.730,0.682,-0.133
9.493,-0.732,0.678,-0.133
9.503,-0.730,0.689,-0.135
9.513,-0.725,0.688,-0.131
9.523,-0.723,0.682,-0.133
9.533,-0.719,0.682,-0.135
9.543,-0.717,0.680,-0.135
9.553,-0.715,0.682,-0.133
9.562,-0.713,0.684,-0.129
9.572,-0.713,0.684,-0.121
9.582,-0.709,0.684,-0.123
9.592,-0.713,0.684,-0.123
9.602,-0.711,0.682,-0.121
9.612,-0.709,0.678,-0.117
9.622,-0.713,0.674,-0.125
9.632,-0.717,0.678,-0.123
9.642,-0.719,0.682,-0.119
9.652,-0.721,0.680,-0.123
9.662,-0.729,0.682,-0.125
9.672,-0.736,0.678,-0.119
9.682,-0.734,0.674,-0.121
9.692,-0.734,0.674,-0.121
9.701,-0.736,0.668,-0.123
9.711,-0.732,0.672,-0.125
9.721,-0.729,0.672,-0.121
9.731,-0.738,0.670,-0.123
9.741,-0.742,0.672,-0.123
9.751,-0.740,0.666,-0.127
9.761,-0.750,0.662,-0.125
9.771,-0.756,0.660,-0.129
9.781,-0.762,0.654,-0.131
9.791,-0.764,0.652,-0.133
9.801,-0.770,0.650,-0.129
9.811,-0.775,0.650,-0.133
9.821,-0.775,0.652,-0.133
9.830,-0.777,0.654,-0.131
9.840,-0.775,0.654,-0.125
9.850,-0.766,0.660,-0.119
9.860,-0.752,0.674,-0.117
9.870,-0.738,0.676,-0.109
9.880,-0.730,0.689,-0.104
9.890,-0.719,0.697,-0.100
9.900,-0.705,0.697,-0.096
9.910,-0.695,0.703,-0.090
9.920,-0.688,0.705,-0.082
9.930,-0.680,0.705,-0.084
9.940,-0.676,0.705,-0.078
9.950,-0.680,0.705,-0.074
9.960,-0.682,0.701,-0.074
9.969,-0.688,0.697,-0.072
9.979,-0.689,0.693,-0.068
9.989,-0.701,0.699,-0.068
9.999,-0.703,0.699,-0.064
10.009,-0.707,0.701,-0.064
10.019,-0.707,0.705,-0.066
10.029,-0.707,0.709,-0.062
10.039,-0.707,0.709,-0.062
10.049,-0.707,0.703,-0.061
10.059,-0.699,0.703,-0.062
10.069,-0.703,0.693,-0.062
10.079,-0.703,0.699,-0.062
10.089,-0.705,0.701,-0.062
10.098,-0.715,0.695,-0.066
10.108,-0.715,0.691,-0.064
10.118,-0.713,0.699,-0.062
10.128,-0.717,0.701,-0.062
10.138,-0.713,0.707,-0.064
10.148,-0.713,0.711,-0.064
10.158,-0.713,0.711,-0.062
10.168,-0.709,0.705,-0.068
10.178,-0.705,0.705,-0.068
10.188,-0.701,0.707,-0.064
10.198,-0.701,0.703,-0.070
10.208,-0.711,0.701,-0.070
10.218,-0.713,0.697,-0.066
10.228,-0.715,0.688,-0.068
10.237,-0.717,0.678,-0.070
10.247,-0.721,0.682,-0.072
10.257,-0.727,0.684,-0.072
10.267,-0.732,0.686,-0.074
10.277,-0.730,0.684,-0.074
10.287,-0.734,0.682,-0.078
10.297,-0.734,0.680,-0.078
10.307,-0.736,0.678,-0.074
10.317,-0.738,0.678,-0.078
10.327,-0.738,0.682,-0.076
10.337,-0.738,0.684,-0.076
10.347,-0.732,0.682,-0.074
10.357,-0.732,0.674,-0.076
10.367,-0.729,0.678,-0.078
10.376,-0.730,0.680,-0.080
10.386,-0.734,0.682,-0.078
10.396,-0.736,0.684,-0.080
10.406,-0.740,0.684,-0.076
10.416,-0.734,0.680,-0.080
10.426,-0.740,0.676,-0.080
10.436,-0.740,0.676,-0.080
10.446,-0.746,0.670,-0.076
10.456,-0.740,0.668,-0.078
10.466,-0.740,0.670,-0.076
10.476,-0.740,0.666,-0.078
10.486,-0.740,0.670,-0.076
10.496,-0.736,0.670,-0.076
10.505,-0.734,0.678,-0.076
10.515,-0.740,0.678,-0.076
10.525,-0.736,0.678,-0.080
10.535,-0.740,0.676,-0.080
10.545,-0.738,0.672,-0.082
10.555,-0.742,0.676,-0.080
10.565,-0.742,0.674,-0.080
10.575,-0.740,0.676,-0.078
10.585,-0.740,0.674,-0.080
10.595,-0.740,0.678,-0.074
10.605,-0.744,0.684,-0.072
10.615,-0.742,0.682,-0.076
10.625,-0.740,0.680,-0.074
10.635,-0.738,0.674,-0.074
10.644,-0.736,0.672,-0.074
10.654,-0.738,0.672,-0.072
10.664,-0.742,0.672,-0.072
10.674,-0.744,0.672,-0.074
10.684,-0.744,0.676,-0.070
10.694,-0.750,0.674,-0.074
10.704,-0.750,0.676,-0.068
10.714,-0.754,0.674,-0.072
10.724,-0.754,0.664,-0.068
10.734,-0.758,0.666,-0.068
10.744,-0.752,0.664,-0.074
10.754,-0.750,0.666,-0.072
10.764,-0.748,0.680,-0.080
10.773,-0.727,0.666,-0.074
10.783,-0.738,0.662,-0.074
10.793,-0.746,0.674,-0.078
10.803,-0.746,0.668,-0.078
10.813,-0.736,0.666,-0.076
10.823,-0.732,0.668,-0.080
10.833,-0.732,0.672,-0.072
10.843,-0.744,0.680,-0.072
10.853,-0.732,0.695,-0.076
10.863,-0.713,0.693,-0.072
10.873,-0.699,0.695,-0.078
10.883,-0.695,0.703,-0.078
10.893,-0.695,0.707,-0.074
10.903,-0.689,0.705,-0.078
10.912,-0.689,0.701,-0.082
10.922,-0.689,0.697,-0.080
10.932,-0.686,0.711,-0.082
10.942,-0.682,0.717,-0.080
10.952,-0.684,0.715,-0.078
10.962,-0.688,0.715,-0.082
10.972,-0.684,0.725,-0.086
10.982,-0.676,0.725,-0.088
10.992,-0.672,0.730,-0.086
11.002,-0.668,0.734,-0.090
11.012,-0.678,0.736,-0.090
11.022,-0.674,0.744,-0.096
11.032,-0.666,0.736,-0.096
11.041,-0.668,0.744,-0.096
11.051,-0.672,0.740,-0.096
11.061,-0.670,0.738,-0.102
11.071,-0.668,0.738,-0.104
11.081,-0.672,0.734,-0.104
11.091,-0.668,0.742,-0.102
11.101,-0.672,0.740,-0.102
11.111,-0.666,0.740,-0.105
11.121,-0.660,0.744,-0.100
11.131,-0.666,0.748,-0.102
11.141,-0.662,0.742,-0.105
11.151,-0.656,0.744,-0.100
11.161,-0.658,0.744,-0.102
11.171,-0.650,0.738,-0.104
11.180,-0.654,0.738,-0.105
11.190,-0.650,0.742,-0.105
11.200,-0.656,0.742,-0.104
11.210,-0.658,0.744,-0.107
11.220,-0.660,0.742,-0.105
11.230,-0.660,0.746,-0.105
11.240,-0.664,0.742,-0.107
11.250,-0.662,0.742,-0.105
11.260,-0.662,0.744,-0.105
11.270,-0.656,0.744,-0.104
11.280,-0.656,0.740,-0.102
11.290,-0.650,0.740,-0.102
11.300,-0.650,0.732,-0.104
11.309,-0.650,0.730,-0.107
11.319,-0.645,0.736,-0.105
11.329,-0.654,0.736,-0.104
11.339,-0.658,0.736,-0.105
11.349,-0.660,0.738,-0.100
11.359,-0.670,0.748,-0.105
11.369,-0.664,0.744,-0.105
11.379,-0.650,0.730,-0.104
11.389,-0.652,0.727,-0.107
11.399,-0.652,0.730,-0.102
11.409,-0.652,0.740,-0.111
11.419,-0.654,0.744,-0.105
11.429,-0.656,0.748,-0.107
11.439,-0.652,0.742,-0.105
11.448,-0.654,0.742,-0.107
11.458,-0.658,0.740,-0.109
11.468,-0.662,0.744,-0.109
11.478,-0.662,0.740,-0.111
11.488,-0.662,0.738,-0.115
11.498,-0.660,0.736,-0.107
11.508,-0.652,0.734,-0.113
11.518,-0.656,0.744,-0.111
11.528,-0.656,0.748,-0.109
11.538,-0.656,0.748,-0.113
11.548,-0.648,0.746,-0.111
11.558,-0.643,0.748,-0.109
11.568,-0.646,0.746,-0.111
11.577,-0.648,0.744,-0.113
11.587,-0.650,0.738,-0.115
11.597,-0.652,0.738,-0.117
11.607,-0.656,0.736,-0.115
11.617,-0.654,0.734,-0.113
11.627,-0.656,0.742,-0.117
11.637,-0.658,0.742,-0.113
11.647,-0.656,0.742,-0.115
11.657,-0.652,0.746,-0.113
11.667,-0.648,0.744,-0.115
11.677,-0.656,0.742,-0.115
11.687,-0.654,0.746,-0.115
11.697,-0.652,0.746,-0.117
11.707,-0.650,0.748,-0.117
11.716,-0.646,0.746,-0.115
11.726,-0.645,0.750,-0.115
11.736,-0.645,0.748,-0.113
11.746,-0.641,0.750,-0.115
11.756,-0.643,0.750,-0.111
11.766,-0.641,0.754,-0.117
11.776,-0.637,0.752,-0.117
11.786,-0.637,0.758,-0.117
11.796,-0.637,0.756,-0.121
11.806,-0.633,0.758,-0.121
11.816,-0.631,0.758,-0.119
11.826,-0.637,0.764,-0.121
11.836,-0.631,0.770,-0.125
11.846,-0.625,0.768,-0.121
11.855,-0.629,0.766,-0.129
11.865,-0.629,0.762,-0.125
11.875,-0.623,0.762,-0.125
11.885,-0.623,0.768,-0.121
11.895,-0.625,0.768,-0.125
11.905,-0.627,0.766,-0.125
11.915,-0.625,0.766,-0.123
11.925,-0.623,0.766,-0.121
11.935,-0.627,0.770,-0.119
11.945,-0.631,0.770,-0.125
11.955,-0.631,0.768,-0.125
11.965,-0.627,0.768,-0.123
11.975,-0.631,0.760,-0.123
11.984,-0.631,0.756,-0.117
11.994,-0.635,0.756,-0.119
12.004,-0.639,0.754,-0.117
12.014,-0.639,0.752,-0.117
12.024,-0.641,0.752,-0.113
12.034,-0.643,0.752,-0.111
12.044,-0.641,0.754,-0.113
12.054,-0.641,0.752,-0.113
12.064,-0.643,0.750,-0.107
12.074,-0.643,0.752,-0.109
12.084,-0.643,0.754,-0.107
12.094,-0.639,0.756,-0.104
12.104,-0.641,0.758,-0.107
12.114,-0.641,0.754,-0.104
12.123,-0.643,0.756,-0.100
12.133,-0.643,0.754,-0.102
12.143,-0.643,0.750,-0.104
12.153,-0.641,0.750,-0.100
12.163,-0.645,0.750,-0.100
12.173,-0.648,0.752,-0.098
12.183,-0.648,0.752,-0.096
12.193,-0.654,0.752,-0.096
12.203,-0.654,0.750,-0.096
12.213,-0.654,0.750,-0.096
12.223,-0.658,0.746,-0.102
12.233,-0.660,0.742,-0.096
12.243,-0.658,0.744,-0.096
12.252,-0.660,0.746,-0.096
12.262,-0.652,0.750,-0.098
12.272,-0.654,0.744,-0.094
12.282,-0.650,0.744,-0.092
12.292,-0.658,0.738,-0.090
12.302,-0.658,0.738,-0.092
12.312,-0.658,0.727,-0.090
12.322,-0.658,0.729,-0.092
12.332,-0.660,0.736,-0.088
12.342,-0.658,0.744,-0.088
12.352,-0.662,0.744,-0.090
12.362,-0.666,0.742,-0.086
12.372,-0.660,0.732,-0.088
12.382,-0.662,0.727,-0.092
12.391,-0.668,0.727,-0.092
12.401,-0.668,0.730,-0.092
12.411,-0.668,0.730,-0.092
12.421,-0.670,0.732,-0.090
12.431,-0.670,0.734,-0.086
12.441,-0.670,0.734,-0.084
12.451,-0.672,0.732,-0.086
12.461,-0.672,0.725,-0.082
12.471,-0.670,0.727,-0.084
12.481,-0.668,0.725,-0.080
12.491,-0.664,0.727,-0.084
12.501,-0.670,0.730,-0.084
12.511,-0.668,0.732,-0.088
12.520,-0.668,0.736,-0.088
12.530,-0.672,0.734,-0.092
12.540,-0.670,0.732,-0.094
12.550,-0.670,0.734,-0.094
12.560,-0.670,0.734,-0.098
12.570,-0.666,0.730,-0.096
12.580,-0.662,0.732,-0.096
12.590,-0.662,0.736,-0.102
12.600,-0.660,0.734,-0.096
12.610,-0.658,0.744,-0.098
12.620,-0.656,0.748,-0.096
12.630,-0.654,0.748,-0.098
12.640,-0.652,0.740,-0.100
12.650,-0.650,0.734,-0.098
12.659,-0.652,0.732,-0.102
12.669,-0.654,0.730,-0.105
12.679,-0.656,0.732,-0.105
12.689,-0.656,0.734,-0.105
12.699,-0.654,0.740,-0.109
12.709,-0.654,0.746,-0.109
12.719,-0.656,0.742,-0.109
12.729,-0.660,0.742,-0.111
12.739,-0.658,0.740,-0.111
12.749,-0.656,0.742,-0.113
12.759,-0.650,0.750,-0.113
12.769,-0.650,0.760,-0.117
12.779,-0.654,0.750,-0.119
12.788,-0.652,0.746,-0.119
12.798,-0.664,0.746,-0.121
12.808,-0.666,0.746,-0.119
12.818,-0.662,0.744,-0.119
12.828,-0.658,0.750,-0.119
12.838,-0.658,0.752,-0.117
12.848,-0.656,0.748,-0.119
12.858,-0.656,0.748,-0.121
12.868,-0.652,0.754,-0.119
12.878,-0.652,0.748,-0.125
12.888,-0.658,0.750,-0.125
12.898,-0.664,0.750,-0.123
12.908,-0.664,0.754,-0.117
12.918,-0.658,0.760,-0.117
12.927,-0.648,0.766,-0.109
12.937,-0.633,0.773,-0.107
12.947,-0.621,0.779,-0.104
12.957,-0.609,0.787,-0.098
12.967,-0.592,0.793,-0.094
12.977,-0.570,0.799,-0.094
12.987,-0.555,0.801,-0.088
12.997,-0.543,0.805,-0.092
13.007,-0.539,0.805,-0.088
13.017,-0.531,0.812,-0.084
13.027,-0.518,0.822,-0.080
13.037,-0.512,0.832,-0.074
13.047,-0.514,0.838,-0.072
13.057,-0.512,0.832,-0.072
13.066,-0.500,0.840,-0.074
13.076,-0.496,0.844,-0.070
13.086,-0.494,0.850,-0.074
13.096,-0.488,0.842,-0.070
13.106,-0.494,0.850,-0.080
13.116,-0.504,0.836,-0.078
13.126,-0.508,0.832,-0.090
13.136,-0.510,0.832,-0.096
13.146,-0.512,0.830,-0.096
13.156,-0.531,0.816,-0.096
13.166,-0.551,0.816,-0.104
13.176,-0.557,0.818,-0.105
13.186,-0.555,0.820,-0.102
13.195,-0.564,0.818,-0.107
13.205,-0.572,0.816,-0.113
13.215,-0.570,0.809,-0.111
13.225,-0.574,0.801,-0.119
13.235,-0.578,0.789,-0.125
13.245,-0.586,0.785,-0.127
13.255,-0.586,0.783,-0.125
13.265,-0.586,0.785,-0.125
13.275,-0.584,0.791,-0.127
13.285,-0.582,0.801,-0.123
13.295,-0.578,0.807,-0.115
13.305,-0.578,0.812,-0.125
13.315,-0.578,0.811,-0.125
13.325,-0.578,0.793,-0.129
13.334,-0.584,0.783,-0.133
13.344,-0.592,0.775,-0.141
13.354,-0.602,0.770,-0.139
13.364,-0.605,0.764,-0.137
13.374,-0.621,0.760,-0.141
13.384,-0.625,0.762,-0.141
13.394,-0.633,0.766,-0.137
13.404,-0.637,0.770,-0.139
13.414,-0.639,0.771,-0.137
13.424,-0.635,0.770,-0.141
13.434,-0.633,0.760,-0.139
13.444,-0.635,0.754,-0.143
13.454,-0.635,0.756,-0.139
13.463,-0.637,0.750,-0.141
13.473,-0.637,0.750,-0.143
13.483,-0.641,0.754,-0.137
13.493,-0.643,0.758,-0.139
13.503,-0.641,0.760,-0.135
13.513,-0.643,0.758,-0.135
13.523,-0.645,0.756,-0.133
13.533,-0.646,0.756,-0.133
13.543,-0.645,0.754,-0.133
13.553,-0.643,0.754,-0.129
13.563,-0.648,0.760,-0.129
13.573,-0.648,0.752,-0.125
13.583,-0.646,0.754,-0.121
13.593,-0.645,0.748,-0.119
13.602,-0.641,0.752,-0.117
13.612,-0.641,0.754,-0.113
13.622,-0.645,0.752,-0.109
13.632,-0.643,0.756,-0.111
13.642,-0.641,0.760,-0.102
13.652,-0.639,0.758,-0.104
13.662,-0.639,0.758,-0.100
13.672,-0.641,0.758,-0.098
13.682,-0.643,0.758,-0.102
13.692,-0.643,0.754,-0.098
13.702,-0.641,0.750,-0.096
13.712,-0.637,0.754,-0.092
13.722,-0.641,0.756,-0.090
13.731,-0.635,0.758,-0.088
13.741,-0.635,0.764,-0.082
13.751,-0.641,0.762,-0.082
13.761,-0.637,0.762,-0.076
13.771,-0.639,0.762,-0.076
13.781,-0.629,0.760,-0.072
13.791,-0.625,0.758,-0.074
13.801,-0.625,0.760,-0.066
13.811,-0.623,0.764,-0.066
13.821,-0.621,0.762,-0.061
13.831,-0.621,0.760,-0.066
13.841,-0.625,0.762,-0.062
13.851,-0.625,0.762,-0.061
13.861,-0.623,0.760,-0.059
13.870,-0.625,0.758,-0.059
13.880,-0.623,0.756,-0.061
13.890,-0.623,0.762,-0.061
13.900,-0.621,0.764,-0.059
13.910,-0.619,0.770,-0.061
13.920,-0.619,0.773,-0.059
13.930,-0.621,0.773,-0.061
13.940,-0.613,0.775,-0.053
13.950,-0.619,0.779,-0.059
13.960,-0.613,0.787,-0.059
13.970,-0.613,0.783,-0.061
13.980,-0.613,0.783,-0.059
13.990,-0.615,0.785,-0.064
13.999,-0.615,0.783,-0.064
14.009,-0.615,0.783,-0.062
14.019,-0.615,0.783,-0.064
14.029,-0.619,0.779,-0.066
14.039,-0.617,0.789,-0.064
14.049,-0.619,0.785,-0.062
14.059,-0.621,0.791,-0.062
14.069,-0.619,0.789,-0.059
14.079,-0.613,0.787,-0.057
14.089,-0.615,0.787,-0.061
14.099,-0.611,0.791,-0.059
14.109,-0.611,0.793,-0.057
14.119,-0.613,0.781,-0.062
14.129,-0.611,0.777,-0.061
14.138,-0.609,0.779,-0.062
14.148,-0.613,0.777,-0.062
14.158,-0.613,0.783,-0.061
14.168,-0.617,0.787,-0.062
14.178,-0.613,0.793,-0.061
14.188,-0.605,0.801,-0.055
14.198,-0.598,0.797,-0.051
14.208,-0.598,0.789,-0.051
14.218,-0.594,0.789,-0.053
14.228,-0.596,0.789,-0.049
14.238,-0.600,0.789,-0.053
14.248,-0.605,0.787,-0.051
14.258,-0.604,0.795,-0.053
14.267,-0.607,0.791,-0.051
14.277,-0.609,0.787,-0.045
14.287,-0.607,0.781,-0.039
14.297,-0.600,0.775,-0.041
14.307,-0.598,0.777,-0.041
14.317,-0.600,0.770,-0.043
14.327,-0.604,0.768,-0.043
14.337,-0.609,0.770,-0.041
14.347,-0.605,0.771,-0.043
14.357,-0.598,0.770,-0.043
14.367,-0.607,0.773,-0.043
14.377,-0.613,0.779,-0.049
14.387,-0.615,0.777,-0.047
14.397,-0.611,0.771,-0.055
14.406,-0.611,0.773,-0.057
14.416,-0.611,0.783,-0.062
14.426,-0.607,0.777,-0.061
14.436,-0.609,0.781,-0.061
14.446,-0.615,0.785,-0.061
14.456,-0.611,0.793,-0.061
14.466,-0.602,0.799,-0.064
14.476,-0.600,0.795,-0.061
14.486,-0.611,0.787,-0.061
14.496,-0.615,0.781,-0.062
14.506,-0.613,0.783,-0.068
14.516,-0.615,0.783,-0.066
14.526,-0.619,0.787,-0.066
14.536,-0.613,0.785,-0.072
14.545,-0.615,0.783,-0.074
14.555,-0.611,0.781,-0.078
14.565,-0.615,0.777,-0.078
14.575,-0.617,0.775,-0.082
14.585,-0.617,0.770,-0.084
14.595,-0.617,0.775,-0.078
14.605,-0.625,0.771,-0.082
14.615,-0.625,0.775,-0.080
14.625,-0.623,0.775,-0.080
14.635,-0.623,0.777,-0.080
14.645,-0.621,0.779,-0.080
14.655,-0.611,0.779,-0.082
14.665,-0.607,0.785,-0.086
14.674,-0.607,0.781,-0.086
14.684,-0.605,0.791,-0.090
14.694,-0.609,0.789,-0.086
14.704,-0.607,0.789,-0.088
14.714,-0.602,0.793,-0.090
14.724,-0.611,0.789,-0.082
14.734,-0.607,0.787,-0.088
14.744,-0.607,0.787,-0.084
14.754,-0.607,0.789,-0.090
14.764,-0.605,0.797,-0.082
14.774,-0.617,0.781,-0.084
14.784,-0.613,0.779,-0.090
14.794,-0.607,0.777,-0.086
14.804,-0.615,0.768,-0.082
14.813,-0.621,0.770,-0.082
14.823,-0.627,0.768,-0.082
14.833,-0.631,0.768,-0.082
14.843,-0.629,0.773,-0.082
14.853,-0.639,0.764,-0.074
14.863,-0.637,0.764,-0.078
14.873,-0.641,0.762,-0.080
14.883,-0.643,0.760,-0.076
14.893,-0.646,0.750,-0.078
14.903,-0.646,0.752,-0.074
14.913,-0.648,0.758,-0.076
14.923,-0.650,0.754,-0.076
14.933,-0.648,0.754,-0.074
14.942,-0.646,0.754,-0.076
14.952,-0.641,0.754,-0.072
14.962,-0.645,0.752,-0.066
14.972,-0.645,0.758,-0.066
14.982,-0.645,0.754,-0.068
14.992,-0.645,0.758,-0.066
15.002,-0.650,0.766,-0.064
15.012,-0.652,0.773,-0.066
15.022,-0.643,0.762,-0.064
15.032,-0.645,0.758,-0.068
15.042,-0.643,0.760,-0.066
15.052,-0.645,0.760,-0.064
15.062,-0.648,0.764,-0.064
15.072,-0.645,0.768,-0.064
15.081,-0.646,0.770,-0.062
15.091,-0.646,0.771,-0.059
15.101,-0.643,0.766,-0.057
15.111,-0.639,0.770,-0.057
15.121,-0.633,0.760,-0.059
15.131,-0.637,0.758,-0.057
15.141,-0.635,0.754,-0.059
15.151,-0.631,0.754,-0.057
15.161,-0.633,0.754,-0.051
15.171,-0.635,0.760,-0.053
15.181,-0.633,0.762,-0.049
15.191,-0.631,0.760,-0.051
15.201,-0.631,0.762,-0.049
15.210,-0.633,0.762,-0.051
15.220,-0.633,0.760,-0.053
15.230,-0.625,0.760,-0.051
15.240,-0.633,0.766,-0.051
15.250,-0.633,0.770,-0.049
15.260,-0.635,0.770,-0.049
15.270,-0.631,0.764,-0.049
15.280,-0.629,0.764,-0.051
15.290,-0.631,0.760,-0.049
15.300,-0.633,0.764,-0.051
15.310,-0.627,0.768,-0.055
15.320,-0.631,0.770,-0.045
15.330,-0.629,0.770,-0.051
15.340,-0.627,0.771,-0.049
15.349,-0.627,0.771,-0.051
15.359,-0.625,0.771,-0.049
15.369,-0.625,0.770,-0.053
15.379,-0.625,0.768,-0.053
15.389,-0.621,0.768,-0.055
15.399,-0.617,0.766,-0.055
15.409,-0.623,0.760,-0.057
15.419,-0.625,0.766,-0.055
15.429,-0.625,0.762,-0.053
15.439,-0.631,0.766,-0.055
15.449,-0.627,0.766,-0.059
15.459,-0.627,0.770,-0.059
15.469,-0.631,0.775,-0.059
15.478,-0.631,0.775,-0.061
15.488,-0.631,0.777,-0.066
15.498,-0.629,0.775,-0.072
15.508,-0.629,0.771,-0.074
15.518,-0.631,0.768,-0.078
15.528,-0.633,0.764,-0.076
15.538,-0.631,0.764,-0.080
15.548,-0.629,0.766,-0.084
15.558,-0.633,0.766,-0.078
15.568,-0.629,0.766,-0.082
15.578,-0.625,0.768,-0.078
15.588,-0.627,0.766,-0.078
15.598,-0.633,0.768,-0.076
15.608,-0.629,0.768,-0.078
15.617,-0.637,0.764,-0.080
15.627,-0.639,0.766,-0.080
15.637,-0.637,0.764,-0.084
15.647,-0.639,0.764,-0.088
15.657,-0.641,0.760,-0.094
15.667,-0.643,0.760,-0.096
15.677,-0.641,0.752,-0.098
15.687,-0.643,0.752,-0.096
15.697,-0.641,0.750,-0.096
15.707,-0.639,0.754,-0.102
15.717,-0.641,0.756,-0.100
15.727,-0.639,0.760,-0.104
15.737,-0.641,0.764,-0.104
15.746,-0.637,0.764,-0.104
15.756,-0.637,0.766,-0.105
15.766,-0.641,0.770,-0.109
15.776,-0.639,0.760,-0.105
15.786,-0.639,0.750,-0.109
15.796,-0.639,0.746,-0.113
15.806,-0.643,0.750,-0.115
15.816,-0.645,0.754,-0.113
15.826,-0.650,0.756,-0.111
15.836,-0.646,0.758,-0.115
15.846,-0.650,0.756,-0.111
15.856,-0.646,0.754,-0.113
15.866,-0.643,0.754,-0.111
15.876,-0.645,0.746,-0.117
15.885,-0.643,0.748,-0.117
15.895,-0.641,0.742,-0.117
15.905,-0.645,0.746,-0.117
15.915,-0.646,0.748,-0.119
15.925,-0.645,0.754,-0.117
15.935,-0.643,0.754,-0.117
15.945,-0.641,0.750,-0.117
15.955,-0.637,0.754,-0.121
15.965,-0.637,0.752,-0.119
15.975,-0.639,0.754,-0.119
15.985,-0.637,0.754,-0.119
15.995,-0.641,0.754,-0.121
16.005,-0.637,0.752,-0.121
16.015,-0.635,0.752,-0.119
16.024,-0.641,0.760,-0.121
16.034,-0.643,0.762,-0.117
16.044,-0.639,0.756,-0.115
16.054,-0.633,0.756,-0.119
16.064,-0.637,0.750,-0.119
16.074,-0.637,0.752,-0.117
16.084,-0.639,0.758,-0.119
16.094,-0.641,0.758,-0.123
16.104,-0.637,0.756,-0.121
16.114,-0.635,0.762,-0.121
16.124,-0.637,0.758,-0.117
16.134,-0.639,0.758,-0.117
16.144,-0.639,0.756,-0.119
16.153,-0.637,0.754,-0.117
16.163,-0.635,0.756,-0.115
16.173,-0.635,0.758,-0.113
16.183,-0.635,0.758,-0.111
16.193,-0.631,0.762,-0.109
16.203,-0.635,0.760,-0.113
16.213,-0.637,0.758,-0.113
16.223,-0.637,0.754,-0.113
16.233,-0.635,0.758,-0.119
16.243,-0.639,0.750,-0.119
16.253,-0.643,0.754,-0.119
16.263,-0.637,0.758,-0.117
16.273,-0.633,0.756,-0.113
16.283,-0.635,0.760,-0.109
16.292,-0.637,0.758,-0.111
16.302,-0.633,0.758,-0.109
16.312,-0.629,0.760,-0.111
16.322,-0.631,0.762,-0.111
16.332,-0.633,0.754,-0.111
16.342,-0.631,0.758,-0.111
16.352,-0.633,0.758,-0.109
16.362,-0.637,0.758,-0.109
16.372,-0.635,0.758,-0.109
16.382,-0.639,0.758,-0.111
16.392,-0.643,0.758,-0.111
16.402,-0.635,0.754,-0.109
16.412,-0.635,0.758,-0.107
16.421,-0.637,0.758,-0.109
16.431,-0.631,0.760,-0.107
16.441,-0.635,0.752,-0.105
16.451,-0.633,0.750,-0.105
16.461,-0.635,0.748,-0.104
16.471,-0.646,0.740,-0.109
16.481,-0.650,0.746,-0.115
16.491,-0.639,0.758,-0.109
16.501,-0.633,0.754,-0.111
16.511,-0.633,0.760,-0.111
16.521,-0.631,0.760,-0.111
16.531,-0.629,0.764,-0.107
16.541,-0.627,0.768,-0.111
16.551,-0.629,0.762,-0.109
16.560,-0.625,0.758,-0.111
16.570,-0.629,0.756,-0.113
16.580,-0.627,0.766,-0.115
16.590,-0.629,0.770,-0.111
16.600,-0.629,0.766,-0.109
16.610,-0.627,0.766,-0.115
16.620,-0.629,0.760,-0.113
16.630,-0.627,0.764,-0.115
16.640,-0.629,0.760,-0.111
16.650,-0.627,0.754,-0.111
16.660,-0.625,0.758,-0.115
16.670,-0.625,0.758,-0.115
16.680,-0.625,0.758,-0.115
16.689,-0.627,0.758,-0.113
16.699,-0.627,0.762,-0.119
16.709,-0.627,0.762,-0.117
16.719,-0.629,0.758,-0.115
16.729,-0.631,0.756,-0.117
16.739,-0.629,0.758,-0.115
16.749,-0.629,0.758,-0.115
16.759,-0.633,0.764,-0.121
16.769,-0.631,0.760,-0.119
16.779,-0.629,0.762,-0.121
16.789,-0.625,0.766,-0.117
16.799,-0.625,0.768,-0.115
16.809,-0.627,0.762,-0.119
16.819,-0.625,0.762,-0.119
16.828,-0.621,0.760,-0.119
16.838,-0.619,0.754,-0.119
16.848,-0.625,0.754,-0.119
16.858,-0.625,0.756,-0.121
16.868,-0.633,0.762,-0.121
16.878,-0.629,0.764,-0.119
16.888,-0.627,0.768,-0.121
16.898,-0.629,0.768,-0.123
16.908,-0.629,0.766,-0.127
16.918,-0.629,0.760,-0.129
16.928,-0.629,0.760,-0.127
16.938,-0.629,0.762,-0.121
16.948,-0.625,0.762,-0.127
16.957,-0.625,0.764,-0.131
16.967,-0.627,0.762,-0.129
16.977,-0.627,0.766,-0.123
16.987,-0.623,0.768,-0.127
16.997,-0.619,0.766,-0.123
17.007,-0.625,0.762,-0.125
17.017,-0.625,0.760,-0.127
17.027,-0.625,0.758,-0.129
17.037,-0.629,0.758,-0.133
17.047,-0.629,0.756,-0.131
17.057,-0.631,0.756,-0.133
17.067,-0.631,0.754,-0.131
17.077,-0.637,0.756,-0.131
17.087,-0.633,0.758,-0.131
17.096,-0.633,0.760,-0.127
17.106,-0.631,0.758,-0.127
17.116,-0.631,0.758,-0.127
17.126,-0.627,0.758,-0.125
17.136,-0.629,0.756,-0.127
17.146,-0.625,0.756,-0.125
17.156,-0.629,0.754,-0.123
17.166,-0.625,0.760,-0.121
17.176,-0.631,0.760,-0.125
17.186,-0.627,0.762,-0.127
17.196,-0.633,0.758,-0.125
17.206,-0.635,0.756,-0.127
17.216,-0.629,0.758,-0.123
17.226,-0.625,0.758,-0.127
17.235,-0.627,0.758,-0.125
17.245,-0.627,0.758,-0.121
17.255,-0.627,0.748,-0.129
17.265,-0.623,0.758,-0.125
17.275,-0.625,0.764,-0.121
17.285,-0.625,0.760,-0.123
17.295,-0.619,0.764,-0.121
17.305,-0.619,0.768,-0.121
17.315,-0.621,0.762,-0.123
17.325,-0.625,0.762,-0.121
17.335,-0.619,0.762,-0.127
17.345,-0.621,0.764,-0.125
17.355,-0.627,0.762,-0.129
17.364,-0.621,0.766,-0.125
17.374,-0.623,0.768,-0.123
17.384,-0.623,0.773,-0.125
17.394,-0.617,0.766,-0.123
17.404,-0.617,0.754,-0.127
17.414,-0.623,0.764,-0.125
17.424,-0.625,0.770,-0.123
17.434,-0.621,0.775,-0.123
17.444,-0.621,0.775,-0.123
17.454,-0.615,0.779,-0.119
17.464,-0.617,0.773,-0.117
17.474,-0.615,0.770,-0.117
17.484,-0.619,0.762,-0.121
17.494,-0.617,0.760,-0.123
17.503,-0.617,0.760,-0.121
17.513,-0.617,0.760,-0.121
17.523,-0.617,0.760,-0.119
17.533,-0.627,0.758,-0.121
17.543,-0.623,0.766,-0.119
17.553,-0.623,0.762,-0.119
17.563,-0.627,0.760,-0.119
17.573,-0.627,0.762,-0.121
17.583,-0.623,0.760,-0.123
17.593,-0.623,0.760,-0.125
17.603,-0.629,0.758,-0.125
17.613,-0.623,0.766,-0.127
17.623,-0.625,0.762,-0.123
17.632,-0.623,0.764,-0.121
17.642,-0.623,0.777,-0.123
17.652,-0.619,0.770,-0.121
17.662,-0.617,0.766,-0.123
17.672,-0.611,0.766,-0.123
17.682,-0.611,0.760,-0.127
17.692,-0.615,0.766,-0.123
17.702,-0.619,0.766,-0.129
17.712,-0.619,0.770,-0.125
17.722,-0.619,0.770,-0.125
17.732,-0.621,0.773,-0.123
17.742,-0.617,0.770,-0.125
17.752,-0.615,0.770,-0.127
17.762,-0.617,0.770,-0.125
17.771,-0.615,0.770,-0.127
17.781,-0.613,0.773,-0.129
17.791,-0.617,0.770,-0.127
17.801,-0.617,0.770,-0.127
17.811,-0.617,0.770,-0.127
17.821,-0.617,0.768,-0.127
17.831,-0.615,0.766,-0.127
17.841,-0.615,0.766,-0.125
17.851,-0.619,0.766,-0.127
17.861,-0.617,0.764,-0.127
17.871,-0.621,0.762,-0.127
17.881,-0.621,0.764,-0.131
17.891,-0.617,0.766,-0.125
17.900,-0.619,0.766,-0.127
17.910,-0.617,0.768,-0.127
17.920,-0.617,0.768,-0.127
17.930,-0.615,0.768,-0.125
17.940,-0.613,0.771,-0.127
17.950,-0.615,0.770,-0.129
17.960,-0.615,0.770,-0.129
17.970,-0.615,0.768,-0.125
17.980,-0.619,0.771,-0.127
17.990,-0.619,0.773,-0.127
18.000,-0.617,0.766,-0.129
18.010,-0.613,0.770,-0.129
18.020,-0.615,0.766,-0.125
18.030,-0.617,0.768,-0.123
18.039,-0.615,0.768,-0.125
18.049,-0.617,0.766,-0.121
18.059,-0.621,0.766,-0.125
18.069,-0.617,0.760,-0.123
18.079,-0.611,0.762,-0.125
18.089,-0.617,0.762,-0.125
18.099,-0.619,0.766,-0.125
18.109,-0.615,0.771,-0.119
18.119,-0.617,0.771,-0.121
18.129,-0.617,0.768,-0.121
18.139,-0.615,0.770,-0.123
18.149,-0.613,0.770,-0.121
18.159,-0.615,0.768,-0.123
18.168,-0.617,0.770,-0.125
18.178,-0.615,0.770,-0.117
18.188,-0.613,0.768,-0.121
18.198,-0.613,0.768,-0.123
18.208,-0.615,0.771,-0.121
18.218,-0.619,0.768,-0.121
18.228,-0.619,0.762,-0.115
18.238,-0.617,0.766,-0.117
18.248,-0.613,0.768,-0.113
18.258,-0.615,0.758,-0.117
18.268,-0.615,0.758,-0.113
18.278,-0.615,0.754,-0.115
18.288,-0.619,0.756,-0.107
18.298,-0.619,0.762,-0.111
18.307,-0.619,0.762,-0.113
18.317,-0.625,0.764,-0.117
18.327,-0.617,0.756,-0.125
18.337,-0.611,0.754,-0.125
18.347,-0.617,0.764,-0.133
18.357,-0.623,0.768,-0.133
18.367,-0.617,0.768,-0.133
18.377,-0.621,0.770,-0.131
18.387,-0.615,0.768,-0.133
18.397,-0.611,0.760,-0.135
18.407,-0.615,0.760,-0.135
18.417,-0.615,0.766,-0.139
18.427,-0.609,0.764,-0.139
18.436,-0.607,0.768,-0.145
18.446,-0.598,0.768,-0.146
18.456,-0.600,0.770,-0.150
18.466,-0.604,0.773,-0.145
18.476,-0.605,0.777,-0.150
18.486,-0.607,0.781,-0.150
18.496,-0.607,0.781,-0.148
18.506,-0.609,0.777,-0.156
18.516,-0.607,0.773,-0.156
18.526,-0.607,0.771,-0.158
18.536,-0.607,0.768,-0.162
18.546,-0.605,0.766,-0.158
18.556,-0.605,0.771,-0.158
18.566,-0.609,0.766,-0.164
18.575,-0.604,0.770,-0.164
18.585,-0.598,0.764,-0.158
18.595,-0.598,0.764,-0.160
18.605,-0.598,0.766,-0.164
18.615,-0.600,0.770,-0.158
18.625,-0.598,0.775,-0.158
18.635,-0.594,0.777,-0.160
18.645,-0.598,0.771,-0.162
18.655,-0.602,0.777,-0.162
18.665,-0.596,0.777,-0.166
18.675,-0.600,0.779,-0.162
18.685,-0.598,0.779,-0.166
18.695,-0.592,0.775,-0.164
18.705,-0.594,0.775,-0.166
18.714,-0.598,0.775,-0.164
18.724,-0.596,0.770,-0.168
18.734,-0.590,0.768,-0.170
18.744,-0.596,0.771,-0.170
18.754,-0.596,0.773,-0.172
18.764,-0.594,0.773,-0.168
18.774,-0.596,0.773,-0.170
18.784,-0.596,0.770,-0.170
18.794,-0.596,0.775,-0.172
18.804,-0.596,0.771,-0.174
18.814,-0.598,0.771,-0.174
18.824,-0.594,0.771,-0.176
18.834,-0.598,0.770,-0.178
18.843,-0.602,0.773,-0.178
18.853,-0.600,0.770,-0.178
18.863,-0.602,0.775,-0.180
18.873,-0.602,0.773,-0.180
18.883,-0.596,0.777,-0.178
18.893,-0.594,0.771,-0.176
18.903,-0.598,0.770,-0.178
18.913,-0.598,0.771,-0.178
18.923,-0.604,0.773,-0.176
18.933,-0.605,0.771,-0.174
18.943,-0.605,0.771,-0.174
18.953,-0.604,0.771,-0.174
18.963,-0.604,0.764,-0.174
18.973,-0.600,0.762,-0.174
18.982,-0.604,0.764,-0.172
18.992,-0.607,0.768,-0.172
19.002,-0.607,0.764,-0.168
19.012,-0.611,0.766,-0.168
19.022,-0.611,0.762,-0.168
19.032,-0.611,0.762,-0.170
19.042,-0.613,0.760,-0.166
19.052,-0.611,0.758,-0.164
19.062,-0.613,0.760,-0.164
19.072,-0.613,0.756,-0.168
19.082,-0.617,0.762,-0.166
19.092,-0.613,0.760,-0.164
19.102,-0.613,0.754,-0.168
19.111,-0.613,0.752,-0.164
19.121,-0.613,0.758,-0.162
19.131,-0.613,0.760,-0.162
19.141,-0.611,0.762,-0.160
19.151,-0.611,0.762,-0.164
19.161,-0.613,0.762,-0.166
19.171,-0.609,0.758,-0.162
19.181,-0.609,0.758,-0.166
19.191,-0.607,0.760,-0.162
19.201,-0.609,0.762,-0.164
19.211,-0.615,0.770,-0.166
19.221,-0.617,0.768,-0.170
19.231,-0.617,0.764,-0.170
19.241,-0.615,0.754,-0.172
19.250,-0.611,0.758,-0.164
19.260,-0.615,0.760,-0.164
19.270,-0.615,0.766,-0.162
19.280,-0.613,0.764,-0.162
19.290,-0.607,0.760,-0.164
19.300,-0.607,0.760,-0.162
19.310,-0.609,0.760,-0.162
19.320,-0.607,0.754,-0.158
19.330,-0.609,0.754,-0.162
19.340,-0.609,0.756,-0.160
19.350,-0.613,0.754,-0.164
19.360,-0.615,0.758,-0.160
19.370,-0.619,0.756,-0.158
19.379,-0.621,0.754,-0.162
19.389,-0.617,0.756,-0.162
19.399,-0.615,0.756,-0.164
19.409,-0.615,0.762,-0.166
19.419,-0.615,0.762,-0.162
19.429,-0.615,0.756,-0.168
19.439,-0.621,0.756,-0.168
19.449,-0.617,0.758,-0.168
19.459,-0.615,0.760,-0.164
19.469,-0.617,0.760,-0.166
19.479,-0.615,0.760,-0.166
19.489,-0.615,0.756,-0.170
19.499,-0.611,0.754,-0.172
19.509,-0.611,0.756,-0.170
19.518,-0.613,0.766,-0.174
19.528,-0.613,0.768,-0.176
19.538,-0.613,0.768,-0.180
19.548,-0.609,0.770,-0.178
19.558,-0.615,0.766,-0.180
19.568,-0.615,0.766,-0.180
19.578,-0.611,0.762,-0.178
19.588,-0.615,0.758,-0.176
19.598,-0.617,0.760,-0.172
19.608,-0.613,0.756,-0.170
19.618,-0.617,0.756,-0.172
19.628,-0.619,0.750,-0.174
19.638,-0.615,0.744,-0.178
19.647,-0.617,0.744,-0.170
19.657,-0.623,0.748,-0.176
19.667,-0.619,0.748,-0.176
19.677,-0.627,0.750,-0.176
19.687,-0.627,0.746,-0.172
19.697,-0.629,0.748,-0.174
19.707,-0.631,0.746,-0.176
19.717,-0.627,0.746,-0.176
19.727,-0.633,0.746,-0.172
19.737,-0.629,0.742,-0.174
19.747,-0.623,0.744,-0.176
19.757,-0.625,0.744,-0.172
19.767,-0.629,0.746,-0.178
19.777,-0.625,0.748,-0.174
19.786,-0.629,0.752,-0.176
19.796,-0.629,0.748,-0.178
19.806,-0.629,0.752,-0.174
19.816,-0.631,0.750,-0.174
19.826,-0.633,0.750,-0.176
19.836,-0.635,0.752,-0.172
19.846,-0.629,0.750,-0.170
19.856,-0.631,0.746,-0.172
19.866,-0.631,0.744,-0.170
19.876,-0.625,0.742,-0.170
19.886,-0.629,0.746,-0.170
19.896,-0.633,0.748,-0.168
19.906,-0.631,0.746,-0.172
19.915,-0.631,0.744,-0.170
19.925,-0.625,0.744,-0.174
19.935,-0.627,0.744,-0.172
19.945,-0.627,0.746,-0.172
19.955,-0.627,0.748,-0.172
19.965,-0.627,0.748,-0.174
19.975,-0.631,0.748,-0.174
19.985,-0.629,0.750,-0.174
19.995,-0.627,0.752,-0.170
20.005,-0.623,0.754,-0.170
20.015,-0.621,0.758,-0.166
20.025,-0.623,0.762,-0.168
20.035,-0.617,0.762,-0.164
20.045,-0.611,0.754,-0.162
20.054,-0.613,0.750,-0.170
20.064,-0.615,0.748,-0.166
20.074,-0.621,0.752,-0.170
20.084,-0.627,0.754,-0.172
20.094,-0.623,0.758,-0.168
20.104,-0.623,0.760,-0.168
20.114,-0.629,0.756,-0.170
20.124,-0.623,0.756,-0.168
20.134,-0.625,0.752,-0.172
20.144,-0.625,0.746,-0.170
20.154,-0.623,0.750,-0.170
20.164,-0.623,0.752,-0.166
20.174,-0.627,0.748,-0.166
20.184,-0.623,0.752,-0.168
20.193,-0.621,0.750,-0.166
20.203,-0.623,0.750,-0.166
20.213,-0.621,0.748,-0.164
20.223,-0.621,0.746,-0.170
20.233,-0.625,0.748,-0.168
20.243,-0.627,0.744,-0.174
20.253,-0.627,0.746,-0.170
20.263,-0.625,0.746,-0.170
20.273,-0.623,0.746,-0.170
20.283,-0.625,0.750,-0.168
20.293,-0.629,0.758,-0.170
20.303,-0.625,0.754,-0.168
20.313,-0.619,0.756,-0.168
20.322,-0.619,0.748,-0.166
20.332,-0.617,0.748,-0.170
20.342,-0.619,0.750,-0.172
20.352,-0.619,0.754,-0.170
20.362,-0.617,0.758,-0.174
20.372,-0.623,0.756,-0.170
20.382,-0.623,0.760,-0.168
20.392,-0.625,0.756,-0.172
20.402,-0.625,0.758,-0.176
20.412,-0.623,0.752,-0.176
20.422,-0.621,0.750,-0.174
20.432,-0.623,0.750,-0.178
20.442,-0.621,0.750,-0.176
20.452,-0.625,0.752,-0.174
20.461,-0.621,0.754,-0.174
20.471,-0.625,0.754,-0.172
20.481,-0.623,0.750,-0.174
20.491,-0.621,0.752,-0.176
20.501,-0.623,0.752,-0.172
20.511,-0.627,0.752,-0.172
20.521,-0.627,0.750,-0.170
20.531,-0.627,0.752,-0.174
20.541,-0.625,0.750,-0.174
20.551,-0.625,0.754,-0.172
20.561,-0.625,0.752,-0.170
20.571,-0.629,0.754,-0.172
20.581,-0.629,0.750,-0.174
20.590,-0.629,0.748,-0.172
20.600,-0.627,0.748,-0.172
20.610,-0.629,0.746,-0.172
20.620,-0.633,0.744,-0.168
20.630,-0.629,0.746,-0.168
20.640,-0.629,0.748,-0.166
20.650,-0.629,0.748,-0.168
20.660,-0.629,0.752,-0.164
20.670,-0.631,0.748,-0.162
20.680,-0.627,0.750,-0.160
20.690,-0.631,0.744,-0.164
20.700,-0.633,0.744,-0.162
20.710,-0.631,0.742,-0.164
20.720,-0.631,0.740,-0.162
20.729,-0.633,0.742,-0.166
20.739,-0.631,0.746,-0.162
20.749,-0.635,0.746,-0.162
20.759,-0.635,0.748,-0.160
20.769,-0.635,0.748,-0.162
20.779,-0.635,0.746,-0.160
20.789,-0.635,0.750,-0.158
20.799,-0.633,0.748,-0.158
20.809,-0.631,0.746,-0.160
20.819,-0.631,0.748,-0.162
20.829,-0.631,0.746,-0.158
20.839,-0.633,0.746,-0.158
20.849,-0.633,0.746,-0.160
20.858,-0.631,0.742,-0.158
20.868,-0.635,0.746,-0.158
20.878,-0.637,0.746,-0.154
20.888,-0.635,0.748,-0.158
20.898,-0.633,0.748,-0.156
20.908,-0.635,0.746,-0.158
20.918,-0.635,0.744,-0.158
20.928,-0.633,0.744,-0.156
20.938,-0.635,0.746,-0.156
20.948,-0.635,0.748,-0.160
20.958,-0.635,0.750,-0.156
20.968,-0.633,0.742,-0.156
20.978,-0.631,0.736,-0.160
20.988,-0.635,0.738,-0.160
20.997,-0.639,0.746,-0.162
21.007,-0.641,0.750,-0.158
21.017,-0.637,0.750,-0.156
21.027,-0.633,0.752,-0.156
21.037,-0.635,0.746,-0.158
21.047,-0.635,0.744,-0.158
21.057,-0.637,0.740,-0.156
21.067,-0.633,0.736,-0.156
21.077,-0.633,0.736,-0.156
21.087,-0.637,0.740,-0.154
21.097,-0.635,0.736,-0.154
21.107,-0.639,0.740,-0.158
21.117,-0.637,0.746,-0.158
21.126,-0.639,0.746,-0.154
21.136,-0.639,0.746,-0.158
21.146,-0.635,0.742,-0.160
21.156,-0.637,0.742,-0.160
21.166,-0.637,0.740,-0.164
21.176,-0.633,0.744,-0.158
21.186,-0.637,0.748,-0.164
21.196,-0.635,0.744,-0.164
21.206,-0.633,0.744,-0.162
21.216,-0.633,0.754,-0.164
21.226,-0.631,0.754,-0.164
21.236,-0.627,0.750,-0.160
21.246,-0.627,0.754,-0.166
21.256,-0.621,0.750,-0.164
21.265,-0.625,0.746,-0.170
21.275,-0.627,0.752,-0.170
21.285,-0.621,0.760,-0.170
21.295,-0.629,0.750,-0.168
21.305,-0.623,0.762,-0.174
21.315,-0.617,0.762,-0.164
21.325,-0.623,0.756,-0.174
21.335,-0.623,0.754,-0.172
21.345,-0.625,0.754,-0.174
21.355,-0.623,0.750,-0.174
21.365,-0.625,0.750,-0.170
21.375,-0.625,0.752,-0.176
21.385,-0.623,0.750,-0.174
21.395,-0.625,0.752,-0.172
21.404,-0.625,0.748,-0.172
21.414,-0.625,0.752,-0.176
21.424,-0.625,0.750,-0.172
21.434,-0.627,0.750,-0.170
21.444,-0.627,0.746,-0.176
21.454,-0.631,0.744,-0.176
21.464,-0.633,0.744,-0.176
21.474,-0.633,0.746,-0.178
21.484,-0.635,0.746,-0.174
21.494,-0.635,0.746,-0.174
21.504,-0.639,0.748,-0.174
21.514,-0.633,0.746,-0.170
21.524,-0.633,0.742,-0.170
21.533,-0.633,0.742,-0.174
21.543,-0.631,0.742,-0.172
21.553,-0.637,0.742,-0.172
21.563,-0.635,0.742,-0.172
21.573,-0.635,0.746,-0.168
21.583,-0.633,0.744,-0.170
21.593,-0.633,0.748,-0.170
21.603,-0.635,0.744,-0.170
21.613,-0.633,0.742,-0.168
21.623,-0.635,0.742,-0.170
21.633,-0.637,0.742,-0.168
21.643,-0.637,0.742,-0.168
21.653,-0.639,0.742,-0.168
21.663,-0.637,0.738,-0.168
21.672,-0.639,0.740,-0.172
21.682,-0.641,0.740,-0.168
21.692,-0.641,0.744,-0.170
21.702,-0.637,0.740,-0.170
21.712,-0.641,0.742,-0.172
21.722,-0.639,0.740,-0.168
21.732,-0.637,0.742,-0.170
21.742,-0.637,0.744,-0.168
21.752,-0.639,0.742,-0.166
21.762,-0.639,0.742,-0.168
21.772,-0.639,0.738,-0.166
21.782,-0.639,0.736,-0.166
21.792,-0.635,0.744,-0.164
21.801,-0.637,0.742,-0.162
21.811,-0.635,0.742,-0.166
21.821,-0.635,0.744,-0.164
21.831,-0.637,0.744,-0.166
21.841,-0.637,0.744,-0.162
21.851,-0.637,0.746,-0.166
21.861,-0.637,0.746,-0.166
21.871,-0.635,0.746,-0.164
21.881,-0.637,0.742,-0.164
21.891,-0.633,0.746,-0.164
21.901,-0.635,0.746,-0.162
21.911,-0.631,0.746,-0.162
21.921,-0.633,0.746,-0.162
21.931,-0.637,0.744,-0.168
21.940,-0.633,0.744,-0.162
21.950,-0.633,0.744,-0.164
21.960,-0.633,0.744,-0.164
21.970,-0.635,0.744,-0.166
21.980,-0.635,0.740,-0.166
21.990,-0.633,0.742,-0.166
22.000,-0.637,0.744,-0.164
22.010,-0.635,0.748,-0.166
22.020,-0.633,0.748,-0.164
22.030,-0.637,0.748,-0.166
22.040,-0.633,0.740,-0.166
22.050,-0.633,0.738,-0.170
22.060,-0.635,0.742,-0.170
22.069,-0.637,0.748,-0.166
22.079,-0.635,0.750,-0.166
22.089,-0.635,0.750,-0.170
22.099,-0.631,0.754,-0.170
22.109,-0.635,0.744,-0.168
22.119,-0.635,0.742,-0.166
22.129,-0.633,0.740,-0.168
22.139,-0.635,0.738,-0.168
22.149,-0.629,0.742,-0.166
22.159,-0.633,0.744,-0.170
22.169,-0.635,0.744,-0.166
22.179,-0.635,0.744,-0.168
22.189,-0.635,0.744,-0.166
22.199,-0.635,0.740,-0.166
22.208,-0.643,0.740,-0.170
22.218,-0.637,0.740,-0.172
22.228,-0.639,0.736,-0.172
22.238,-0.641,0.740,-0.172
22.248,-0.643,0.740,-0.170
22.258,-0.639,0.742,-0.174
22.268,-0.641,0.742,-0.172
22.278,-0.641,0.742,-0.172
22.288,-0.639,0.750,-0.168
22.298,-0.635,0.746,-0.168
22.308,-0.631,0.742,-0.170
22.318,-0.629,0.744,-0.168
22.328,-0.637,0.740,-0.168
22.337,-0.635,0.740,-0.170
22.347,-0.633,0.742,-0.166
22.357,-0.635,0.746,-0.170
22.367,-0.637,0.748,-0.172
22.377,-0.633,0.746,-0.170
22.387,-0.637,0.746,-0.170
22.397,-0.635,0.746,-0.168
22.407,-0.635,0.742,-0.170
22.417,-0.639,0.744,-0.170
22.427,-0.635,0.744,-0.168
22.437,-0.637,0.744,-0.166
22.447,-0.637,0.740,-0.170
22.457,-0.639,0.742,-0.164
22.467,-0.637,0.740,-0.168
22.476,-0.637,0.738,-0.170
22.486,-0.635,0.736,-0.166
22.496,-0.639,0.740,-0.168
22.506,-0.639,0.738,-0.166
22.516,-0.639,0.744,-0.168
22.526,-0.641,0.742,-0.168
22.536,-0.641,0.744,-0.166
22.546,-0.639,0.740,-0.170
22.556,-0.637,0.742,-0.170
22.566,-0.639,0.740,-0.170
22.576,-0.639,0.738,-0.168
22.586,-0.643,0.742,-0.166
22.596,-0.641,0.742,-0.168
22.605,-0.641,0.744,-0.166
22.615,-0.641,0.744,-0.164
22.625,-0.643,0.742,-0.166
22.635,-0.639,0.742,-0.166
22.645,-0.639,0.742,-0.168
22.655,-0.643,0.742,-0.162
22.665,-0.639,0.744,-0.166
22.675,-0.643,0.738,-0.166
22.685,-0.639,0.734,-0.166
22.695,-0.639,0.738,-0.162
22.705,-0.643,0.738,-0.162
22.715,-0.643,0.738,-0.166
22.725,-0.643,0.738,-0.166
22.735,-0.643,0.738,-0.162
22.744,-0.643,0.736,-0.166
22.754,-0.641,0.738,-0.162
22.764,-0.643,0.736,-0.162
22.774,-0.645,0.738,-0.164
22.784,-0.643,0.742,-0.164
22.794,-0.643,0.738,-0.166
22.804,-0.637,0.742,-0.166
22.814,-0.637,0.742,-0.162
22.824,-0.639,0.740,-0.166
22.834,-0.637,0.740,-0.166
22.844,-0.637,0.740,-0.164
22.854,-0.641,0.742,-0.166
22.864,-0.641,0.746,-0.164
22.874,-0.639,0.746,-0.164
22.883,-0.643,0.746,-0.166
22.893,-0.641,0.744,-0.166
22.903,-0.639,0.740,-0.164
22.913,-0.635,0.740,-0.168
22.923,-0.633,0.744,-0.164
22.933,-0.641,0.746,-0.164
22.943,-0.639,0.744,-0.168
22.953,-0.639,0.742,-0.166
22.963,-0.639,0.738,-0.168
22.973,-0.633,0.738,-0.166
22.983,-0.637,0.736,-0.164
22.993,-0.645,0.732,-0.168
23.003,-0.641,0.732,-0.168
23.012,-0.637,0.738,-0.164
23.022,-0.643,0.734,-0.168
23.032,-0.643,0.740,-0.168
23.042,-0.645,0.744,-0.164
23.052,-0.643,0.746,-0.168
23.062,-0.643,0.742,-0.164
23.072,-0.639,0.736,-0.168
23.082,-0.641,0.734,-0.168
23.092,-0.641,0.742,-0.170
23.102,-0.645,0.748,-0.168
23.112,-0.643,0.748,-0.168
23.122,-0.646,0.752,-0.166
23.132,-0.641,0.748,-0.168
23.142,-0.637,0.738,-0.164
23.151,-0.641,0.732,-0.164
23.161,-0.637,0.729,-0.162
23.171,-0.631,0.721,-0.166
23.181,-0.639,0.729,-0.166
23.191,-0.645,0.736,-0.166
23.201,-0.650,0.740,-0.166
23.211,-0.652,0.742,-0.166
23.221,-0.650,0.740,-0.170
23.231,-0.646,0.738,-0.168
23.241,-0.643,0.736,-0.166
23.251,-0.641,0.734,-0.162
23.261,-0.639,0.732,-0.164
23.271,-0.635,0.732,-0.168
23.280,-0.639,0.734,-0.164
23.290,-0.641,0.744,-0.162
23.300,-0.635,0.738,-0.166
23.310,-0.639,0.748,-0.164
23.320,-0.643,0.754,-0.164
23.330,-0.641,0.750,-0.162
23.340,-0.633,0.742,-0.164
23.350,-0.635,0.740,-0.164
23.360,-0.639,0.736,-0.164
23.370,-0.639,0.742,-0.164
23.380,-0.645,0.742,-0.166
23.390,-0.645,0.750,-0.170
23.400,-0.641,0.750,-0.162
23.410,-0.643,0.748,-0.164
23.419,-0.643,0.744,-0.166
23.429,-0.643,0.748,-0.168
23.439,-0.637,0.744,-0.166
23.449,-0.637,0.742,-0.162
23.459,-0.637,0.742,-0.166
23.469,-0.639,0.740,-0.160
23.479,-0.641,0.740,-0.160
23.489,-0.639,0.740,-0.160
23.499,-0.639,0.738,-0.162
23.509,-0.645,0.742,-0.162
23.519,-0.643,0.740,-0.162
23.529,-0.646,0.736,-0.160
23.539,-0.643,0.736,-0.164
23.548,-0.646,0.732,-0.164
23.558,-0.646,0.734,-0.162
23.568,-0.643,0.734,-0.158
23.578,-0.643,0.736,-0.156
23.588,-0.646,0.738,-0.158
23.598,-0.645,0.740,-0.158
23.608,-0.646,0.732,-0.156
23.618,-0.646,0.738,-0.154
23.628,-0.645,0.740,-0.160
23.638,-0.652,0.740,-0.158
23.648,-0.650,0.734,-0.160
23.658,-0.646,0.732,-0.156
23.668,-0.645,0.738,-0.158
23.678,-0.652,0.740,-0.160
23.687,-0.646,0.734,-0.158
23.697,-0.648,0.736,-0.160
23.707,-0.654,0.736,-0.158
23.717,-0.652,0.732,-0.160
23.727,-0.648,0.730,-0.160
23.737,-0.645,0.730,-0.156
23.747,-0.646,0.730,-0.156
23.757,-0.648,0.734,-0.156
23.767,-0.648,0.734,-0.158
23.777,-0.652,0.732,-0.162
23.787,-0.650,0.734,-0.160
23.797,-0.650,0.738,-0.160
23.807,-0.646,0.734,-0.160
23.816,-0.646,0.736,-0.160
23.826,-0.650,0.736,-0.162
23.836,-0.652,0.736,-0.158
23.846,-0.646,0.734,-0.162
23.856,-0.648,0.736,-0.158
23.866,-0.645,0.736,-0.160
23.876,-0.641,0.738,-0.160
23.886,-0.641,0.736,-0.160
23.896,-0.645,0.736,-0.162
23.906,-0.643,0.738,-0.164
23.916,-0.645,0.738,-0.166
23.926,-0.645,0.738,-0.162
23.936,-0.643,0.736,-0.160
23.946,-0.646,0.740,-0.164
23.955,-0.646,0.740,-0.166
23.965,-0.643,0.732,-0.164
23.975,-0.646,0.730,-0.164
23.985,-0.648,0.736,-0.164
23.995,-0.650,0.744,-0.162
24.005,-0.648,0.744,-0.162
24.015,-0.645,0.742,-0.166
24.025,-0.645,0.742,-0.156
24.035,-0.645,0.734,-0.162
24.045,-0.643,0.727,-0.160
24.055,-0.645,0.730,-0.164
24.065,-0.646,0.730,-0.166
24.075,-0.648,0.734,-0.166
24.084,-0.648,0.730,-0.164
24.094,-0.650,0.734,-0.160
24.104,-0.654,0.734,-0.164
24.114,-0.652,0.730,-0.164
24.124,-0.652,0.732,-0.164
24.134,-0.652,0.725,-0.166
24.144,-0.654,0.730,-0.168
24.154,-0.654,0.732,-0.166
24.164,-0.650,0.732,-0.166
24.174,-0.658,0.725,-0.166
24.184,-0.656,0.725,-0.170
24.194,-0.656,0.732,-0.166
24.204,-0.660,0.734,-0.168
24.214,-0.660,0.730,-0.166
24.223,-0.656,0.729,-0.166
24.233,-0.650,0.725,-0.166
24.243,-0.645,0.725,-0.160
24.253,-0.648,0.734,-0.164
24.263,-0.656,0.736,-0.162
24.273,-0.648,0.740,-0.164
24.283,-0.650,0.738,-0.162
24.293,-0.650,0.736,-0.164
24.303,-0.652,0.732,-0.164
24.313,-0.652,0.734,-0.164
24.323,-0.652,0.730,-0.164
24.333,-0.654,0.729,-0.164
24.343,-0.656,0.729,-0.164
24.353,-0.658,0.727,-0.168
24.362,-0.660,0.723,-0.166
24.372,-0.660,0.723,-0.164
24.382,-0.660,0.723,-0.166
24.392,-0.664,0.723,-0.166
24.402,-0.666,0.727,-0.164
24.412,-0.666,0.721,-0.166
24.422,-0.666,0.721,-0.164
24.432,-0.664,0.721,-0.168
24.442,-0.668,0.719,-0.166
24.452,-0.662,0.719,-0.164
24.462,-0.666,0.719,-0.162
24.472,-0.668,0.719,-0.164
24.482,-0.664,0.721,-0.162
24.491,-0.668,0.725,-0.160
24.501,-0.668,0.723,-0.164
24.511,-0.670,0.719,-0.164
24.521,-0.670,0.715,-0.168
24.531,-0.670,0.719,-0.162
24.541,-0.674,0.715,-0.166
24.551,-0.680,0.713,-0.166
24.561,-0.678,0.719,-0.164
24.571,-0.680,0.717,-0.160
24.581,-0.678,0.717,-0.158
24.591,-0.680,0.719,-0.162
24.601,-0.676,0.715,-0.162
24.611,-0.672,0.715,-0.156
24.621,-0.674,0.721,-0.158
24.630,-0.672,0.715,-0.158
24.640,-0.670,0.711,-0.156
24.650,-0.668,0.713,-0.160
24.660,-0.670,0.711,-0.158
24.670,-0.668,0.713,-0.158
24.680,-0.672,0.713,-0.158
24.690,-0.674,0.715,-0.158
24.700,-0.678,0.719,-0.164
24.710,-0.674,0.723,-0.162
24.720,-0.670,0.723,-0.162
24.730,-0.672,0.729,-0.160
24.740,-0.674,0.727,-0.164
24.750,-0.676,0.725,-0.154
24.759,-0.672,0.717,-0.156
24.769,-0.672,0.715,-0.156
24.779,-0.670,0.713,-0.154
24.789,-0.678,0.721,-0.156
24.799,-0.674,0.715,-0.152
24.809,-0.674,0.719,-0.148
24.819,-0.672,0.711,-0.154
24.829,-0.668,0.713,-0.152
24.839,-0.670,0.715,-0.150
24.849,-0.674,0.715,-0.154
24.859,-0.670,0.717,-0.154
24.869,-0.674,0.719,-0.152
24.879,-0.670,0.719,-0.152
24.889,-0.664,0.727,-0.148
24.898,-0.670,0.725,-0.148
24.908,-0.670,0.727,-0.145
24.918,-0.666,0.729,-0.148
24.928,-0.664,0.729,-0.146
24.938,-0.664,0.725,-0.148
24.948,-0.660,0.721,-0.148
24.958,-0.660,0.721,-0.146
24.968,-0.662,0.721,-0.148
24.978,-0.662,0.719,-0.148
24.988,-0.664,0.729,-0.148
24.998,-0.662,0.736,-0.148
25.008,-0.662,0.736,-0.146
25.018,-0.662,0.736,-0.145
25.027,-0.658,0.729,-0.146
25.037,-0.660,0.723,-0.146
25.047,-0.656,0.725,-0.143
25.057,-0.658,0.730,-0.143
25.067,-0.660,0.734,-0.141
25.077,-0.658,0.740,-0.145
25.087,-0.656,0.736,-0.139
25.097,-0.664,0.732,-0.143
25.107,-0.656,0.732,-0.139
25.117,-0.656,0.730,-0.143
25.127,-0.658,0.729,-0.145
25.137,-0.660,0.730,-0.143
25.147,-0.658,0.732,-0.145
25.157,-0.660,0.732,-0.148
25.166,-0.656,0.734,-0.145
25.176,-0.656,0.729,-0.146
25.186,-0.656,0.734,-0.143
25.196,-0.656,0.734,-0.143
25.206,-0.658,0.730,-0.145
25.216,-0.660,0.729,-0.146
25.226,-0.656,0.730,-0.145
25.236,-0.662,0.729,-0.146
25.246,-0.660,0.725,-0.150
25.256,-0.662,0.725,-0.148
25.266,-0.664,0.727,-0.148
25.276,-0.662,0.727,-0.148
25.286,-0.666,0.727,-0.150
25.295,-0.660,0.729,-0.146
25.305,-0.658,0.727,-0.146
25.315,-0.664,0.723,-0.145
25.325,-0.668,0.725,-0.148
25.335,-0.666,0.727,-0.148
25.345,-0.666,0.729,-0.148
25.355,-0.666,0.727,-0.150
25.365,-0.666,0.727,-0.148
25.375,-0.666,0.727,-0.145
25.385,-0.666,0.725,-0.150
25.395,-0.672,0.729,-0.148
25.405,-0.670,0.729,-0.146
25.415,-0.668,0.725,-0.146
25.425,-0.668,0.727,-0.145
25.434,-0.668,0.725,-0.146
25.444,-0.664,0.727,-0.145
25.454,-0.666,0.725,-0.145
25.464,-0.668,0.723,-0.145
25.474,-0.668,0.723,-0.146
25.484,-0.668,0.725,-0.148
25.494,-0.664,0.727,-0.143
25.504,-0.668,0.729,-0.146
25.514,-0.670,0.729,-0.145
25.524,-0.668,0.730,-0.146
25.534,-0.666,0.723,-0.145
25.544,-0.664,0.715,-0.146
25.554,-0.666,0.715,-0.146
25.564,-0.672,0.725,-0.146
25.573,-0.670,0.730,-0.146
25.583,-0.670,0.732,-0.143
25.593,-0.670,0.732,-0.143
25.603,-0.666,0.730,-0.145
25.613,-0.666,0.729,-0.143
25.623,-0.664,0.721,-0.143
25.633,-0.664,0.727,-0.145
25.643,-0.666,0.725,-0.145
25.653,-0.664,0.719,-0.145
25.663,-0.666,0.723,-0.143
25.673,-0.666,0.725,-0.145
25.683,-0.668,0.723,-0.139
25.693,-0.670,0.727,-0.139
25.702,-0.668,0.727,-0.139
25.712,-0.664,0.727,-0.143
25.722,-0.666,0.727,-0.141
25.732,-0.670,0.721,-0.137
25.742,-0.674,0.721,-0.141
25.752,-0.670,0.719,-0.137
25.762,-0.670,0.721,-0.135
25.772,-0.670,0.725,-0.131
25.782,-0.670,0.732,-0.131
25.792,-0.668,0.727,-0.133
25.802,-0.668,0.727,-0.127
25.812,-0.662,0.725,-0.127
25.822,-0.658,0.727,-0.129
25.832,-0.660,0.729,-0.127
25.841,-0.664,0.729,-0.131
25.851,-0.664,0.730,-0.131
25.861,-0.662,0.730,-0.133
25.871,-0.668,0.732,-0.133
25.881,-0.670,0.727,-0.133
25.891,-0.668,0.729,-0.135
25.901,-0.664,0.729,-0.137
25.911,-0.668,0.729,-0.135
25.921,-0.666,0.727,-0.137
25.931,-0.662,0.727,-0.135
25.941,-0.662,0.730,-0.135
25.951,-0.662,0.730,-0.137
25.961,-0.662,0.730,-0.137
25.970,-0.662,0.727,-0.133
25.980,-0.666,0.729,-0.139
25.990,-0.666,0.727,-0.137
26.000,-0.664,0.723,-0.137
26.010,-0.666,0.723,-0.139
26.020,-0.666,0.721,-0.141
26.030,-0.672,0.723,-0.145
26.040,-0.676,0.725,-0.145
26.050,-0.668,0.723,-0.143
26.060,-0.676,0.725,-0.143
26.070,-0.678,0.725,-0.143
26.080,-0.666,0.721,-0.143
26.090,-0.666,0.723,-0.139
26.100,-0.678,0.721,-0.139
26.109,-0.666,0.721,-0.139
26.119,-0.668,0.721,-0.139
26.129,-0.674,0.721,-0.145
26.139,-0.670,0.719,-0.141
26.149,-0.672,0.721,-0.139
26.159,-0.674,0.721,-0.141
26.169,-0.670,0.723,-0.139
26.179,-0.668,0.723,-0.139
26.189,-0.672,0.729,-0.141
26.199,-0.668,0.729,-0.139
26.209,-0.664,0.723,-0.141
26.219,-0.664,0.725,-0.141
26.229,-0.668,0.729,-0.143
26.238,-0.666,0.729,-0.143
26.248,-0.664,0.732,-0.145
26.258,-0.664,0.727,-0.146
26.268,-0.664,0.729,-0.145
26.278,-0.666,0.727,-0.148
26.288,-0.668,0.729,-0.148
26.298,-0.670,0.725,-0.150
26.308,-0.668,0.723,-0.148
26.318,-0.672,0.725,-0.150
26.328,-0.668,0.727,-0.150
26.338,-0.670,0.729,-0.148
26.348,-0.670,0.730,-0.154
26.358,-0.672,0.727,-0.150
26.368,-0.662,0.719,-0.148
26.377,-0.666,0.719,-0.148
26.387,-0.668,0.715,-0.150
26.397,-0.670,0.721,-0.150
26.407,-0.672,0.727,-0.152
26.417,-0.670,0.730,-0.148
26.427,-0.668,0.730,-0.148
26.437,-0.664,0.727,-0.146
26.447,-0.670,0.725,-0.146
26.457,-0.666,0.721,-0.148
26.467,-0.662,0.719,-0.145
26.477,-0.666,0.721,-0.146
26.487,-0.670,0.725,-0.145
26.497,-0.668,0.723,-0.143
26.506,-0.666,0.723,-0.145
26.516,-0.672,0.727,-0.145
26.526,-0.666,0.721,-0.145
26.536,-0.668,0.719,-0.145
26.546,-0.668,0.721,-0.146
26.556,-0.668,0.723,-0.143
26.566,-0.668,0.723,-0.148
26.576,-0.668,0.727,-0.150
26.586,-0.672,0.727,-0.148
26.596,-0.670,0.725,-0.148
26.606,-0.668,0.723,-0.148
26.616,-0.666,0.732,-0.143
26.626,-0.668,0.730,-0.145
26.636,-0.664,0.730,-0.145
26.645,-0.660,0.727,-0.145
26.655,-0.664,0.725,-0.146
26.665,-0.662,0.727,-0.143
26.675,-0.658,0.729,-0.145
26.685,-0.666,0.730,-0.143
26.695,-0.670,0.729,-0.143
26.705,-0.666,0.730,-0.141
26.715,-0.664,0.729,-0.145
26.725,-0.660,0.725,-0.143
26.735,-0.662,0.727,-0.143
26.745,-0.664,0.727,-0.141
26.755,-0.660,0.727,-0.146
26.765,-0.664,0.727,-0.143
26.774,-0.660,0.727,-0.143
26.784,-0.664,0.727,-0.141
26.794,-0.664,0.727,-0.143
26.804,-0.662,0.723,-0.139
26.814,-0.662,0.723,-0.141
26.824,-0.664,0.729,-0.145
26.834,-0.668,0.729,-0.143
26.844,-0.666,0.727,-0.146
26.854,-0.668,0.727,-0.145
26.864,-0.670,0.727,-0.143
26.874,-0.670,0.725,-0.146
26.884,-0.670,0.727,-0.148
26.894,-0.666,0.729,-0.146
26.904,-0.668,0.727,-0.146
26.913,-0.660,0.725,-0.146
26.923,-0.658,0.729,-0.148
26.933,-0.666,0.730,-0.146
26.943,-0.674,0.729,-0.145
26.953,-0.664,0.725,-0.146
26.963,-0.668,0.725,-0.143
26.973,-0.668,0.727,-0.148
26.983,-0.670,0.725,-0.143
26.993,-0.672,0.725,-0.145
27.003,-0.668,0.725,-0.145
27.013,-0.670,0.723,-0.146
27.023,-0.668,0.725,-0.146
27.033,-0.664,0.723,-0.146
27.043,-0.666,0.723,-0.145
27.052,-0.666,0.723,-0.143
27.062,-0.670,0.723,-0.141
27.072,-0.668,0.727,-0.146
27.082,-0.666,0.725,-0.143
27.092,-0.662,0.725,-0.145
27.102,-0.662,0.725,-0.146
27.112,-0.666,0.725,-0.145
27.122,-0.666,0.727,-0.143
27.132,-0.666,0.729,-0.143
27.142,-0.666,0.727,-0.145
27.152,-0.662,0.730,-0.146
27.162,-0.664,0.732,-0.143
27.172,-0.668,0.729,-0.146
27.181,-0.662,0.729,-0.145
27.191,-0.662,0.729,-0.146
27.201,-0.666,0.730,-0.145
27.211,-0.662,0.727,-0.143
27.221,-0.662,0.723,-0.141
27.231,-0.664,0.725,-0.145
27.241,-0.668,0.723,-0.146
27.251,-0.664,0.729,-0.145
27.261,-0.666,0.725,-0.143
27.271,-0.664,0.730,-0.146
27.281,-0.664,0.727,-0.143
27.291,-0.662,0.725,-0.146
27.301,-0.672,0.729,-0.146
27.311,-0.666,0.725,-0.146
27.320,-0.662,0.730,-0.146
27.330,-0.668,0.730,-0.146
27.340,-0.668,0.730,-0.146
27.350,-0.662,0.725,-0.145
27.360,-0.664,0.723,-0.146
27.370,-0.666,0.729,-0.146
27.380,-0.670,0.730,-0.145
27.390,-0.668,0.730,-0.143
27.400,-0.664,0.732,-0.141
27.410,-0.662,0.730,-0.141
27.420,-0.666,0.729,-0.141
27.430,-0.666,0.725,-0.143
27.440,-0.666,0.721,-0.139
27.449,-0.660,0.719,-0.143
27.459,-0.664,0.721,-0.141
27.469,-0.668,0.725,-0.139
27.479,-0.666,0.725,-0.139
27.489,-0.672,0.727,-0.141
27.499,-0.668,0.725,-0.143
27.509,-0.670,0.725,-0.143
27.519,-0.662,0.723,-0.145
27.529,-0.666,0.723,-0.145
27.539,-0.668,0.725,-0.148
27.549,-0.664,0.727,-0.146
27.559,-0.662,0.730,-0.143
27.569,-0.666,0.730,-0.146
27.579,-0.666,0.729,-0.146
27.588,-0.662,0.727,-0.146
27.598,-0.662,0.736,-0.145
27.608,-0.660,0.729,-0.146
27.618,-0.662,0.729,-0.143
27.628,-0.654,0.725,-0.145
27.638,-0.660,0.730,-0.145
27.648,-0.660,0.729,-0.148
27.658,-0.660,0.732,-0.148
27.668,-0.662,0.732,-0.150
27.678,-0.656,0.732,-0.146
27.688,-0.662,0.734,-0.146
27.698,-0.662,0.730,-0.150
27.708,-0.660,0.729,-0.148
27.717,-0.660,0.730,-0.148
27.727,-0.660,0.729,-0.148
27.737,-0.660,0.730,-0.145
27.747,-0.662,0.729,-0.148
27.757,-0.664,0.729,-0.148
27.767,-0.658,0.730,-0.148
27.777,-0.668,0.725,-0.148
27.787,-0.662,0.723,-0.150
27.797,-0.662,0.725,-0.145
27.807,-0.660,0.729,-0.148
27.817,-0.662,0.729,-0.148
27.827,-0.666,0.732,-0.145
27.837,-0.666,0.730,-0.148
27.847,-0.660,0.727,-0.146
27.856,-0.662,0.725,-0.146
27.866,-0.666,0.729,-0.150
27.876,-0.666,0.727,-0.146
27.886,-0.666,0.729,-0.148
27.896,-0.664,0.725,-0.146
27.906,-0.666,0.725,-0.148
27.916,-0.664,0.727,-0.146
27.926,-0.664,0.727,-0.145
27.936,-0.666,0.727,-0.146
27.946,-0.668,0.729,-0.146
27.956,-0.666,0.729,-0.148
27.966,-0.664,0.723,-0.146
27.976,-0.668,0.727,-0.145
27.985,-0.668,0.725,-0.145
27.995,-0.666,0.727,-0.143
28.005,-0.664,0.725,-0.141
28.015,-0.662,0.727,-0.145
28.025,-0.662,0.725,-0.145
28.035,-0.664,0.727,-0.141
28.045,-0.664,0.725,-0.145
28.055,-0.660,0.727,-0.141
28.065,-0.666,0.730,-0.145
28.075,-0.664,0.729,-0.143
28.085,-0.660,0.729,-0.143
28.095,-0.666,0.732,-0.143
28.105,-0.664,0.729,-0.145
28.115,-0.658,0.729,-0.145
28.124,-0.662,0.730,-0.146
28.134,-0.664,0.729,-0.146
28.144,-0.654,0.727,-0.145
28.154,-0.658,0.730,-0.143
28.164,-0.666,0.732,-0.148
28.174,-0.662,0.732,-0.146
28.184,-0.662,0.732,-0.146
28.194,-0.662,0.730,-0.145
28.204,-0.662,0.730,-0.146
28.214,-0.660,0.730,-0.146
28.224,-0.658,0.727,-0.145
28.234,-0.660,0.734,-0.143
28.244,-0.660,0.729,-0.143
28.253,-0.660,0.730,-0.146
28.263,-0.658,0.729,-0.145
28.273,-0.660,0.729,-0.145
28.283,-0.662,0.729,-0.148
28.293,-0.662,0.729,-0.145
28.303,-0.666,0.725,-0.143
28.313,-0.662,0.723,-0.143
28.323,-0.664,0.725,-0.146
28.333,-0.668,0.727,-0.146
28.343,-0.662,0.729,-0.145
28.353,-0.658,0.729,-0.145
28.363,-0.662,0.730,-0.143
28.373,-0.666,0.734,-0.146
28.383,-0.666,0.729,-0.145
28.392,-0.658,0.719,-0.148
28.402,-0.660,0.719,-0.148
28.412,-0.666,0.729,-0.150
28.422,-0.664,0.732,-0.148
28.432,-0.662,0.734,-0.148
28.442,-0.666,0.736,-0.145
28.452,-0.664,0.736,-0.148
28.462,-0.660,0.729,-0.146
28.472,-0.658,0.729,-0.146
28.482,-0.662,0.723,-0.146
28.492,-0.658,0.723,-0.150
28.502,-0.658,0.721,-0.148
28.512,-0.668,0.719,-0.148
28.522,-0.662,0.721,-0.152
28.531,-0.662,0.723,-0.150
28.541,-0.662,0.727,-0.150
28.551,-0.664,0.725,-0.148
28.561,-0.662,0.725,-0.148
28.571,-0.662,0.725,-0.148
28.581,-0.660,0.727,-0.154
28.591,-0.666,0.723,-0.150
28.601,-0.670,0.730,-0.148
28.611,-0.666,0.732,-0.152
28.621,-0.664,0.732,-0.152
28.631,-0.660,0.729,-0.154
28.641,-0.664,0.738,-0.152
28.651,-0.664,0.736,-0.154
28.660,-0.658,0.734,-0.150
28.670,-0.660,0.725,-0.154
28.680,-0.652,0.725,-0.156
28.690,-0.650,0.734,-0.154
28.700,-0.648,0.736,-0.148
28.710,-0.645,0.742,-0.150
28.720,-0.645,0.746,-0.150
28.730,-0.643,0.744,-0.150
28.740,-0.639,0.746,-0.152
28.750,-0.639,0.742,-0.158
28.760,-0.635,0.744,-0.156
28.770,-0.637,0.740,-0.156
28.780,-0.635,0.746,-0.154
28.790,-0.639,0.748,-0.158
28.799,-0.641,0.744,-0.158
28.809,-0.635,0.748,-0.154
28.819,-0.639,0.746,-0.154
28.829,-0.641,0.748,-0.158
28.839,-0.631,0.748,-0.158
28.849,-0.633,0.750,-0.158
28.859,-0.631,0.744,-0.158
28.869,-0.627,0.746,-0.160
28.879,-0.631,0.748,-0.160
28.889,-0.631,0.746,-0.162
28.899,-0.627,0.748,-0.164
28.909,-0.629,0.750,-0.160
28.919,-0.627,0.746,-0.162
28.928,-0.625,0.750,-0.164
28.938,-0.629,0.750,-0.166
28.948,-0.629,0.748,-0.168
28.958,-0.623,0.740,-0.164
28.968,-0.621,0.744,-0.168
28.978,-0.625,0.752,-0.166
28.988,-0.631,0.756,-0.170
28.998,-0.637,0.762,-0.172
29.008,-0.639,0.760,-0.174
29.018,-0.633,0.758,-0.172
29.028,-0.629,0.758,-0.168
29.038,-0.625,0.756,-0.162
29.048,-0.621,0.754,-0.158
29.058,-0.617,0.760,-0.164
29.067,-0.611,0.744,-0.158
29.077,-0.613,0.750,-0.160
29.087,-0.617,0.748,-0.156
29.097,-0.617,0.748,-0.158
29.107,-0.621,0.750,-0.160
29.117,-0.627,0.756,-0.158
29.127,-0.629,0.754,-0.164
29.137,-0.623,0.756,-0.158
29.147,-0.623,0.764,-0.156
29.157,-0.619,0.766,-0.160
29.167,-0.619,0.770,-0.156
29.177,-0.611,0.770,-0.158
29.187,-0.609,0.768,-0.158
29.196,-0.602,0.768,-0.156
29.206,-0.598,0.770,-0.156
29.216,-0.596,0.768,-0.156
29.226,-0.600,0.771,-0.154
29.236,-0.598,0.775,-0.156
29.246,-0.590,0.768,-0.156
29.256,-0.596,0.773,-0.158
29.266,-0.596,0.777,-0.158
29.276,-0.596,0.777,-0.160
29.286,-0.592,0.773,-0.162
29.296,-0.588,0.775,-0.162
29.306,-0.588,0.777,-0.162
29.316,-0.586,0.777,-0.162
29.326,-0.584,0.779,-0.156
29.335,-0.596,0.787,-0.164
29.345,-0.592,0.785,-0.166
29.355,-0.584,0.795,-0.164
29.365,-0.598,0.781,-0.164
29.375,-0.604,0.779,-0.166
29.385,-0.592,0.781,-0.166
29.395,-0.590,0.779,-0.160
29.405,-0.590,0.781,-0.160
29.415,-0.584,0.789,-0.156
29.425,-0.578,0.797,-0.152
29.435,-0.570,0.797,-0.150
29.445,-0.566,0.795,-0.150
29.455,-0.557,0.797,-0.148
29.464,-0.553,0.795,-0.146
29.474,-0.551,0.797,-0.145
29.484,-0.555,0.803,-0.145
29.494,-0.551,0.801,-0.148
29.504,-0.549,0.805,-0.146
29.514,-0.562,0.811,-0.146
29.524,-0.557,0.807,-0.150
29.534,-0.557,0.803,-0.146
29.544,-0.566,0.803,-0.152
29.554,-0.562,0.799,-0.150
29.564,-0.551,0.793,-0.152
29.574,-0.555,0.801,-0.150
29.584,-0.559,0.803,-0.146
29.594,-0.545,0.799,-0.145
29.603,-0.553,0.797,-0.145
29.613,-0.551,0.801,-0.146
29.623,-0.547,0.803,-0.143
29.633,-0.547,0.811,-0.143
29.643,-0.545,0.818,-0.141
29.653,-0.539,0.816,-0.143
29.663,-0.535,0.814,-0.143
29.673,-0.529,0.816,-0.143
29.683,-0.533,0.820,-0.143
29.693,-0.537,0.822,-0.146
29.703,-0.531,0.814,-0.143
29.713,-0.529,0.811,-0.148
29.723,-0.527,0.816,-0.145
29.733,-0.531,0.824,-0.143
29.742,-0.529,0.828,-0.145
29.752,-0.529,0.822,-0.143
29.762,-0.527,0.820,-0.143
29.772,-0.531,0.822,-0.143
29.782,-0.525,0.822,-0.143
29.792,-0.529,0.820,-0.146
29.802,-0.529,0.818,-0.148
29.812,-0.527,0.814,-0.145
29.822,-0.521,0.812,-0.143
29.832,-0.523,0.812,-0.143
29.842,-0.521,0.812,-0.146
29.852,-0.527,0.814,-0.148
29.862,-0.523,0.820,-0.143
29.871,-0.523,0.822,-0.141
29.881,-0.527,0.824,-0.143
29.891,-0.529,0.830,-0.146
29.901,-0.529,0.830,-0.152
29.911,-0.523,0.822,-0.146
29.921,-0.529,0.820,-0.150
29.931,-0.518,0.818,-0.148
29.941,-0.523,0.824,-0.150
29.951,-0.527,0.832,-0.148
29.961,-0.531,0.840,-0.146
29.971,-0.529,0.836,-0.146
29.981,-0.533,0.828,-0.143
29.991,-0.531,0.824,-0.143
30.001,-0.533,0.816,-0.135
30.010,-0.535,0.809,-0.135
30.020,-0.529,0.807,-0.131
30.030,-0.531,0.805,-0.129
30.040,-0.539,0.799,-0.127
30.050,-0.537,0.793,-0.125
30.060,-0.533,0.791,-0.133
30.070,-0.537,0.787,-0.133
30.080,-0.529,0.781,-0.141
30.090,-0.527,0.789,-0.141
30.100,-0.537,0.791,-0.152
30.110,-0.539,0.801,-0.162
30.120,-0.547,0.811,-0.164
30.130,-0.543,0.822,-0.176
30.139,-0.535,0.824,-0.176
30.149,-0.533,0.824,-0.188
30.159,-0.539,0.824,-0.186
30.169,-0.535,0.818,-0.197
30.179,-0.539,0.816,-0.197
30.189,-0.543,0.820,-0.195
30.199,-0.541,0.830,-0.199
30.209,-0.537,0.824,-0.197
30.219,-0.529,0.828,-0.193
30.229,-0.527,0.822,-0.195
30.239,-0.516,0.811,-0.189
30.249,-0.512,0.805,-0.195
30.259,-0.514,0.801,-0.199
30.269,-0.514,0.795,-0.203
30.278,-0.523,0.791,-0.209
30.288,-0.523,0.797,-0.209
30.298,-0.543,0.801,-0.211
30.308,-0.551,0.807,-0.217
30.318,-0.557,0.805,-0.213
30.328,-0.566,0.801,-0.217
30.338,-0.568,0.795,-0.221
30.348,-0.564,0.789,-0.223
30.358,-0.559,0.781,-0.223
30.368,-0.564,0.775,-0.229
30.378,-0.572,0.775,-0.234
30.388,-0.574,0.785,-0.232
30.398,-0.594,0.799,-0.242
30.407,-0.590,0.789,-0.236
30.417,-0.582,0.781,-0.229
30.427,-0.578,0.766,-0.236
30.437,-0.576,0.773,-0.242
30.447,-0.574,0.777,-0.238
30.457,-0.574,0.766,-0.232
30.467,-0.590,0.768,-0.229
30.477,-0.602,0.760,-0.232
30.487,-0.615,0.746,-0.230
30.497,-0.633,0.740,-0.232
30.507,-0.645,0.723,-0.240
30.517,-0.648,0.729,-0.238
30.527,-0.650,0.725,-0.238
30.537,-0.641,0.717,-0.236
30.546,-0.643,0.725,-0.232
30.556,-0.648,0.730,-0.234
30.566,-0.646,0.734,-0.223
30.576,-0.641,0.717,-0.209
30.586,-0.650,0.697,-0.213
30.596,-0.662,0.703,-0.205
30.606,-0.678,0.686,-0.197
30.616,-0.682,0.680,-0.189
30.626,-0.674,0.686,-0.188
30.636,-0.672,0.670,-0.188
30.646,-0.678,0.658,-0.193
30.656,-0.676,0.656,-0.201
30.666,-0.678,0.658,-0.197
30.675,-0.701,0.662,-0.201
30.685,-0.707,0.656,-0.199
30.695,-0.715,0.650,-0.189
30.705,-0.734,0.635,-0.188
30.715,-0.742,0.621,-0.188
30.725,-0.746,0.609,-0.186
30.735,-0.750,0.611,-0.186
30.745,-0.754,0.607,-0.184
30.755,-0.750,0.600,-0.186
30.765,-0.760,0.602,-0.182
30.775,-0.773,0.592,-0.189
30.785,-0.770,0.592,-0.191
30.795,-0.760,0.604,-0.189
30.805,-0.762,0.604,-0.193
30.814,-0.762,0.600,-0.201
30.824,-0.762,0.592,-0.205
30.834,-0.768,0.590,-0.217
30.844,-0.773,0.586,-0.223
30.854,-0.766,0.582,-0.227
30.864,-0.764,0.598,-0.229
30.874,-0.762,0.602,-0.238
30.884,-0.758,0.586,-0.242
30.894,-0.758,0.588,-0.246
30.904,-0.764,0.588,-0.260
30.914,-0.777,0.582,-0.258
30.924,-0.791,0.588,-0.264
30.934,-0.803,0.586,-0.262
30.943,-0.812,0.570,-0.271
30.953,-0.814,0.566,-0.273
30.963,-0.811,0.562,-0.275
30.973,-0.822,0.545,-0.273
30.983,-0.801,0.543,-0.287
30.993,-0.820,0.533,-0.264
31.003,-0.822,0.553,-0.281
31.013,-0.818,0.553,-0.266
31.023,-0.818,0.557,-0.264
31.033,-0.822,0.551,-0.254
31.043,-0.820,0.549,-0.250
31.053,-0.807,0.539,-0.250
31.063,-0.811,0.543,-0.240
31.073,-0.811,0.545,-0.238
31.082,-0.803,0.547,-0.238
31.092,-0.799,0.549,-0.242
31.102,-0.799,0.553,-0.234
31.112,-0.797,0.557,-0.240
31.122,-0.795,0.551,-0.242
31.132,-0.793,0.568,-0.240
31.142,-0.797,0.557,-0.242
31.152,-0.793,0.549,-0.252
31.162,-0.789,0.549,-0.250
31.172,-0.789,0.545,-0.250
31.182,-0.795,0.535,-0.248
31.192,-0.809,0.549,-0.250
31.202,-0.805,0.568,-0.252
31.212,-0.809,0.553,-0.246
31.221,-0.814,0.547,-0.252
31.231,-0.818,0.559,-0.244
31.241,-0.818,0.543,-0.248
31.251,-0.826,0.533,-0.240
31.261,-0.811,0.533,-0.242
31.271,-0.795,0.525,-0.244
31.281,-0.795,0.533,-0.238
31.291,-0.807,0.541,-0.240
31.301,-0.811,0.545,-0.234
31.311,-0.820,0.551,-0.230
31.321,-0.814,0.547,-0.229
31.331,-0.816,0.547,-0.223
31.341,-0.828,0.539,-0.229
31.350,-0.824,0.533,-0.225
31.360,-0.822,0.543,-0.225
31.370,-0.824,0.541,-0.219
31.380,-0.818,0.543,-0.223
31.390,-0.803,0.545,-0.217
31.400,-0.814,0.539,-0.211
31.410,-0.820,0.541,-0.213
31.420,-0.816,0.539,-0.211
31.430,-0.812,0.523,-0.205
31.440,-0.822,0.523,-0.203
31.450,-0.822,0.531,-0.199
31.460,-0.824,0.525,-0.205
31.470,-0.830,0.531,-0.205
31.480,-0.834,0.535,-0.213
31.489,-0.838,0.529,-0.213
31.499,-0.826,0.516,-0.219
31.509,-0.814,0.527,-0.217
31.519,-0.824,0.539,-0.207
31.529,-0.832,0.533,-0.207
31.539,-0.818,0.541,-0.201
31.549,-0.822,0.543,-0.197
31.559,-0.820,0.531,-0.199
31.569,-0.811,0.527,-0.197
31.579,-0.814,0.531,-0.201
31.589,-0.824,0.529,-0.209
31.599,-0.828,0.535,-0.205
31.609,-0.824,0.539,-0.209
31.618,-0.824,0.543,-0.211
31.628,-0.836,0.539,-0.219
31.638,-0.826,0.553,-0.217
31.648,-0.816,0.555,-0.213
31.658,-0.811,0.541,-0.217
31.668,-0.777,0.535,-0.205
31.678,-0.797,0.539,-0.197
31.688,-0.809,0.549,-0.197
31.698,-0.807,0.547,-0.186
31.708,-0.816,0.535,-0.193
31.718,-0.818,0.521,-0.193
31.728,-0.820,0.518,-0.191
31.738,-0.818,0.512,-0.193
31.748,-0.848,0.518,-0.197
31.757,-0.844,0.523,-0.203
31.767,-0.842,0.523,-0.201
31.777,-0.844,0.518,-0.211
31.787,-0.842,0.512,-0.219
31.797,-0.840,0.518,-0.217
31.807,-0.846,0.527,-0.217
31.817,-0.844,0.533,-0.223
31.827,-0.846,0.535,-0.221
31.837,-0.838,0.529,-0.217
31.847,-0.832,0.525,-0.215
31.857,-0.832,0.514,-0.219
31.867,-0.818,0.520,-0.211
31.877,-0.832,0.531,-0.213
31.886,-0.844,0.527,-0.217
31.896,-0.844,0.525,-0.213
31.906,-0.848,0.516,-0.219
31.916,-0.846,0.512,-0.219
31.926,-0.848,0.512,-0.217
31.936,-0.854,0.514,-0.217
31.946,-0.857,0.512,-0.217
31.956,-0.854,0.510,-0.213
31.966,-0.852,0.506,-0.207
31.976,-0.848,0.506,-0.213
31.986,-0.836,0.508,-0.203
31.996,-0.854,0.506,-0.207
32.006,-0.844,0.506,-0.211
32.016,-0.842,0.510,-0.203
32.025,-0.852,0.514,-0.209
32.035,-0.848,0.520,-0.203
32.045,-0.846,0.514,-0.211
32.055,-0.850,0.520,-0.211
32.065,-0.852,0.523,-0.211
32.075,-0.850,0.514,-0.207
32.085,-0.842,0.525,-0.211
32.095,-0.846,0.520,-0.205
32.105,-0.852,0.523,-0.209
32.115,-0.844,0.541,-0.207
32.125,-0.859,0.537,-0.207
32.135,-0.852,0.543,-0.207
32.145,-0.844,0.543,-0.205
32.154,-0.842,0.535,-0.207
32.164,-0.834,0.525,-0.195
32.174,-0.836,0.529,-0.195
32.184,-0.836,0.520,-0.191
32.194,-0.836,0.516,-0.186
32.204,-0.834,0.514,-0.176
32.214,-0.838,0.518,-0.166
32.224,-0.842,0.525,-0.166
32.234,-0.838,0.523,-0.166
32.244,-0.834,0.506,-0.158
32.254,-0.836,0.508,-0.164
32.264,-0.840,0.512,-0.160
32.274,-0.844,0.516,-0.158
32.284,-0.850,0.510,-0.156
32.293,-0.852,0.516,-0.152
32.303,-0.855,0.512,-0.148
32.313,-0.861,0.502,-0.150
32.323,-0.854,0.502,-0.150
32.333,-0.842,0.504,-0.145
32.343,-0.840,0.508,-0.145
32.353,-0.838,0.523,-0.152
32.363,-0.844,0.527,-0.148
32.373,-0.848,0.545,-0.154
32.383,-0.842,0.549,-0.150
32.393,-0.830,0.539,-0.150
32.403,-0.828,0.543,-0.148
32.413,-0.836,0.545,-0.150
32.423,-0.838,0.547,-0.141
32.432,-0.842,0.541,-0.141
32.442,-0.844,0.535,-0.139
32.452,-0.846,0.531,-0.145
32.462,-0.830,0.533,-0.143
32.472,-0.838,0.531,-0.139
32.482,-0.846,0.541,-0.135
32.492,-0.855,0.525,-0.127
32.502,-0.844,0.518,-0.125
32.512,-0.834,0.523,-0.123
32.522,-0.832,0.529,-0.127
32.532,-0.844,0.539,-0.125
32.542,-0.840,0.541,-0.131
32.552,-0.836,0.549,-0.131
32.561,-0.840,0.541,-0.135
32.571,-0.836,0.533,-0.137
32.581,-0.828,0.541,-0.137
32.591,-0.838,0.541,-0.141
32.601,-0.836,0.543,-0.143
32.611,-0.840,0.557,-0.139
32.621,-0.854,0.551,-0.141
32.631,-0.850,0.555,-0.135
32.641,-0.840,0.555,-0.133
32.651,-0.846,0.547,-0.137
32.661,-0.840,0.537,-0.137
32.671,-0.838,0.545,-0.133
32.681,-0.842,0.541,-0.135
32.691,-0.848,0.543,-0.133
32.700,-0.854,0.541,-0.139
32.710,-0.855,0.539,-0.135
32.720,-0.855,0.537,-0.133
32.730,-0.842,0.541,-0.127
32.740,-0.844,0.533,-0.131
32.750,-0.855,0.533,-0.131
32.760,-0.838,0.543,-0.123
32.770,-0.836,0.537,-0.121
32.780,-0.836,0.541,-0.123
32.790,-0.836,0.549,-0.119
32.800,-0.840,0.529,-0.119
32.810,-0.854,0.520,-0.115
32.820,-0.861,0.525,-0.115
32.829,-0.867,0.506,-0.105
32.839,-0.873,0.508,-0.113
32.849,-0.848,0.500,-0.104
32.859,-0.840,0.488,-0.094
32.869,-0.840,0.492,-0.102
32.879,-0.859,0.508,-0.107
32.889,-0.863,0.514,-0.115
32.899,-0.867,0.525,-0.125
32.909,-0.867,0.531,-0.137
32.919,-0.865,0.535,-0.139
32.929,-0.865,0.537,-0.143
32.939,-0.846,0.531,-0.143
32.949,-0.832,0.521,-0.141
32.959,-0.832,0.531,-0.143
32.968,-0.824,0.553,-0.135
32.978,-0.836,0.576,-0.143
32.988,-0.816,0.592,-0.152
32.998,-0.783,0.611,-0.154
33.008,-0.779,0.609,-0.158
33.018,-0.771,0.619,-0.168
33.028,-0.752,0.641,-0.174
33.038,-0.729,0.658,-0.176
33.048,-0.730,0.652,-0.176
33.058,-0.750,0.631,-0.170
33.068,-0.760,0.629,-0.162
33.078,-0.771,0.635,-0.156
33.088,-0.764,0.646,-0.160
33.097,-0.764,0.672,-0.148
33.107,-0.777,0.666,-0.154
33.117,-0.752,0.660,-0.148
33.127,-0.744,0.639,-0.139
33.137,-0.756,0.625,-0.143
33.147,-0.744,0.621,-0.137
33.157,-0.754,0.619,-0.137
33.167,-0.758,0.635,-0.135
33.177,-0.752,0.646,-0.129
33.187,-0.748,0.646,-0.133
33.197,-0.752,0.645,-0.127
33.207,-0.760,0.633,-0.127
33.217,-0.758,0.629,-0.129
33.227,-0.766,0.621,-0.137
33.236,-0.781,0.594,-0.139
33.246,-0.783,0.588,-0.148
33.256,-0.775,0.592,-0.146
33.266,-0.779,0.604,-0.152
33.276,-0.775,0.613,-0.160
33.286,-0.785,0.611,-0.160
33.296,-0.781,0.617,-0.170
33.306,-0.787,0.631,-0.166
33.316,-0.785,0.633,-0.174
33.326,-0.770,0.631,-0.178
33.336,-0.762,0.627,-0.180
33.346,-0.754,0.635,-0.189
33.356,-0.758,0.633,-0.186
33.365,-0.756,0.621,-0.191
33.375,-0.754,0.621,-0.186
33.385,-0.746,0.631,-0.188
33.395,-0.746,0.639,-0.180
33.405,-0.748,0.637,-0.172
33.415,-0.746,0.639,-0.172
33.425,-0.736,0.645,-0.166
33.435,-0.738,0.648,-0.166
33.445,-0.738,0.639,-0.166
33.455,-0.742,0.627,-0.170
33.465,-0.754,0.615,-0.166
33.475,-0.779,0.598,-0.176
33.485,-0.785,0.600,-0.178
33.495,-0.779,0.605,-0.178
33.504,-0.781,0.615,-0.182
33.514,-0.768,0.625,-0.184
33.524,-0.762,0.633,-0.182
33.534,-0.762,0.633,-0.191
33.544,-0.762,0.621,-0.195
33.554,-0.775,0.609,-0.195
33.564,-0.785,0.607,-0.203
33.574,-0.783,0.605,-0.195
33.584,-0.789,0.604,-0.201
33.594,-0.787,0.609,-0.205
33.604,-0.789,0.615,-0.197
33.614,-0.793,0.607,-0.191
33.624,-0.773,0.594,-0.188
33.633,-0.762,0.598,-0.184
33.643,-0.773,0.590,-0.193
33.653,-0.783,0.588,-0.195
33.663,-0.801,0.590,-0.193
33.673,-0.809,0.584,-0.184
33.683,-0.801,0.580,-0.166
33.693,-0.775,0.584,-0.186
33.703,-0.785,0.598,-0.176
33.713,-0.811,0.598,-0.184
33.723,-0.805,0.600,-0.184
33.733,-0.795,0.598,-0.180
33.743,-0.783,0.594,-0.186
33.753,-0.795,0.594,-0.188
33.763,-0.814,0.584,-0.188
33.772,-0.814,0.576,-0.182
33.782,-0.818,0.572,-0.170
33.792,-0.826,0.566,-0.170
33.802,-0.824,0.568,-0.168
33.812,-0.818,0.574,-0.160
33.822,-0.824,0.568,-0.162
33.832,-0.824,0.561,-0.160
33.842,-0.816,0.564,-0.158
33.852,-0.814,0.570,-0.148
33.862,-0.814,0.574,-0.145
33.872,-0.814,0.574,-0.146
33.882,-0.811,0.578,-0.143
33.892,-0.807,0.572,-0.143
33.902,-0.809,0.564,-0.145
33.911,-0.809,0.562,-0.139
33.921,-0.809,0.562,-0.143
33.931,-0.812,0.564,-0.139
33.941,-0.818,0.568,-0.135
33.951,-0.814,0.562,-0.135
33.961,-0.812,0.562,-0.133
33.971,-0.816,0.562,-0.131
33.981,-0.809,0.568,-0.129
33.991,-0.799,0.574,-0.129
34.001,-0.795,0.580,-0.133
34.011,-0.789,0.586,-0.133
34.021,-0.791,0.586,-0.139
34.031,-0.816,0.570,-0.148
34.040,-0.822,0.557,-0.156
34.050,-0.820,0.551,-0.160
34.060,-0.832,0.539,-0.156
34.070,-0.838,0.545,-0.158
34.080,-0.840,0.555,-0.158
34.090,-0.836,0.561,-0.150
34.100,-0.840,0.559,-0.152
34.110,-0.836,0.555,-0.154
34.120,-0.838,0.553,-0.156
34.130,-0.840,0.553,-0.158
34.140,-0.838,0.547,-0.156
34.150,-0.838,0.537,-0.160
34.160,-0.840,0.541,-0.158
34.170,-0.838,0.547,-0.158
34.179,-0.842,0.549,-0.158
34.189,-0.836,0.547,-0.154
34.199,-0.836,0.555,-0.150
34.209,-0.836,0.557,-0.148
34.219,-0.836,0.543,-0.143
34.229,-0.838,0.533,-0.139
34.239,-0.842,0.523,-0.137
34.249,-0.842,0.529,-0.133
34.259,-0.840,0.535,-0.131
34.269,-0.834,0.547,-0.131
34.279,-0.822,0.559,-0.137
34.289,-0.807,0.572,-0.137
34.299,-0.793,0.594,-0.143
34.308,-0.799,0.604,-0.145
34.318,-0.805,0.604,-0.158
34.328,-0.803,0.600,-0.160
34.338,-0.797,0.596,-0.162
34.348,-0.797,0.586,-0.160
34.358,-0.793,0.588,-0.160
34.368,-0.797,0.590,-0.156
34.378,-0.801,0.588,-0.156
34.388,-0.803,0.582,-0.154
34.398,-0.814,0.590,-0.154
34.408,-0.818,0.584,-0.150
34.418,-0.818,0.582,-0.156
34.428,-0.818,0.590,-0.162
34.438,-0.807,0.605,-0.162
34.447,-0.801,0.602,-0.158
34.457,-0.791,0.600,-0.148
34.467,-0.785,0.605,-0.137
34.477,-0.781,0.602,-0.127
34.487,-0.762,0.580,-0.129
34.497,-0.758,0.561,-0.127
34.507,-0.764,0.555,-0.135
34.517,-0.779,0.561,-0.135
34.527,-0.793,0.559,-0.141
34.537,-0.814,0.553,-0.143
34.547,-0.816,0.553,-0.150
34.557,-0.809,0.561,-0.152
34.567,-0.811,0.553,-0.156
34.576,-0.814,0.545,-0.156
34.586,-0.824,0.551,-0.160
34.596,-0.852,0.539,-0.170
34.606,-0.873,0.527,-0.180
34.616,-0.867,0.537,-0.178
34.626,-0.861,0.527,-0.178
34.636,-0.855,0.527,-0.182
34.646,-0.842,0.527,-0.174
34.656,-0.834,0.531,-0.172
34.666,-0.828,0.539,-0.176
34.676,-0.832,0.533,-0.166
34.686,-0.846,0.529,-0.176
34.696,-0.855,0.523,-0.180
34.706,-0.855,0.523,-0.182
34.715,-0.865,0.518,-0.184
34.725,-0.873,0.520,-0.184
34.735,-0.865,0.518,-0.182
34.745,-0.867,0.520,-0.184
34.755,-0.875,0.523,-0.184
34.765,-0.873,0.502,-0.184
34.775,-0.877,0.492,-0.178
34.785,-0.879,0.492,-0.176
34.795,-0.885,0.496,-0.176
34.805,-0.881,0.494,-0.170
34.815,-0.889,0.492,-0.162
34.825,-0.873,0.498,-0.160
34.835,-0.859,0.508,-0.150
34.844,-0.867,0.510,-0.146
34.854,-0.846,0.514,-0.150
34.864,-0.826,0.533,-0.146
34.874,-0.820,0.541,-0.154
34.884,-0.832,0.535,-0.158
34.894,-0.826,0.541,-0.162
34.904,-0.822,0.537,-0.164
34.914,-0.826,0.541,-0.168
34.924,-0.820,0.545,-0.164
34.934,-0.820,0.543,-0.162
34.944,-0.820,0.551,-0.162
34.954,-0.818,0.551,-0.158
34.964,-0.826,0.551,-0.156
34.974,-0.828,0.547,-0.154
34.983,-0.838,0.541,-0.152
34.993,-0.840,0.539,-0.154
35.003,-0.848,0.537,-0.154
35.013,-0.848,0.539,-0.158
35.023,-0.850,0.531,-0.154
35.033,-0.854,0.523,-0.160
35.043,-0.854,0.516,-0.156
35.053,-0.854,0.516,-0.150
35.063,-0.855,0.527,-0.156
35.073,-0.859,0.531,-0.152
35.083,-0.861,0.533,-0.152
35.093,-0.867,0.539,-0.154
35.103,-0.859,0.527,-0.152
35.112,-0.855,0.529,-0.152
35.122,-0.855,0.535,-0.154
35.132,-0.848,0.531,-0.156
35.142,-0.842,0.527,-0.148
35.152,-0.844,0.523,-0.150
35.162,-0.842,0.510,-0.150
35.172,-0.852,0.514,-0.148
35.182,-0.842,0.523,-0.145
35.192,-0.846,0.533,-0.143
35.202,-0.844,0.537,-0.139
35.212,-0.836,0.541,-0.137
35.222,-0.836,0.537,-0.141
35.232,-0.832,0.529,-0.137
35.242,-0.830,0.531,-0.135
35.251,-0.828,0.535,-0.135
35.261,-0.832,0.531,-0.141
35.271,-0.840,0.531,-0.139
35.281,-0.844,0.521,-0.141
35.291,-0.844,0.525,-0.141
35.301,-0.844,0.529,-0.143
35.311,-0.844,0.525,-0.146
35.321,-0.848,0.527,-0.145
35.331,-0.850,0.521,-0.143
35.341,-0.850,0.523,-0.143
35.351,-0.852,0.514,-0.143
35.361,-0.850,0.523,-0.143
35.371,-0.852,0.539,-0.150
35.381,-0.848,0.535,-0.150
35.390,-0.850,0.539,-0.156
35.400,-0.854,0.543,-0.156
35.410,-0.850,0.549,-0.158
35.420,-0.850,0.543,-0.152
35.430,-0.852,0.539,-0.156
35.440,-0.844,0.529,-0.146
35.450,-0.844,0.523,-0.145
35.460,-0.844,0.521,-0.143
35.470,-0.850,0.516,-0.133
35.480,-0.857,0.508,-0.129
35.490,-0.859,0.504,-0.123
35.500,-0.867,0.490,-0.117
35.510,-0.875,0.480,-0.115
35.519,-0.875,0.471,-0.107
35.529,-0.885,0.465,-0.104
35.539,-0.896,0.459,-0.104
35.549,-0.900,0.457,-0.096
35.559,-0.900,0.451,-0.098
35.569,-0.898,0.453,-0.094
35.579,-0.900,0.455,-0.100
35.589,-0.896,0.453,-0.104
35.599,-0.906,0.455,-0.104
35.609,-0.904,0.455,-0.111
35.619,-0.904,0.457,-0.115
35.629,-0.908,0.459,-0.117
35.639,-0.904,0.463,-0.121
35.649,-0.900,0.467,-0.123
35.658,-0.891,0.469,-0.123
35.668,-0.881,0.475,-0.119
35.678,-0.887,0.467,-0.121
35.688,-0.885,0.469,-0.119
35.698,-0.885,0.457,-0.117
35.708,-0.887,0.457,-0.117
35.718,-0.885,0.455,-0.113
35.728,-0.895,0.451,-0.115
35.738,-0.904,0.447,-0.113
35.748,-0.908,0.445,-0.115
35.758,-0.910,0.441,-0.113
35.768,-0.908,0.432,-0.119
35.778,-0.916,0.424,-0.119
35.787,-0.918,0.424,-0.119
35.797,-0.928,0.436,-0.121
35.807,-0.926,0.451,-0.119
35.817,-0.920,0.455,-0.119
35.827,-0.914,0.453,-0.123
35.837,-0.902,0.451,-0.121
35.847,-0.902,0.449,-0.129
35.857,-0.891,0.445,-0.125
35.867,-0.885,0.445,-0.131
35.877,-0.887,0.439,-0.129
35.887,-0.895,0.441,-0.129
35.897,-0.895,0.451,-0.131
35.907,-0.898,0.449,-0.131
35.917,-0.906,0.459,-0.133
35.926,-0.904,0.457,-0.133
35.936,-0.908,0.457,-0.135
35.946,-0.904,0.463,-0.141
35.956,-0.900,0.459,-0.139
35.966,-0.900,0.455,-0.139
35.976,-0.900,0.453,-0.143
35.986,-0.900,0.441,-0.148
35.996,-0.898,0.445,-0.146
36.006,-0.898,0.463,-0.145
36.016,-0.898,0.461,-0.148
36.026,-0.896,0.469,-0.146
36.036,-0.898,0.467,-0.154
36.046,-0.889,0.471,-0.158
36.055,-0.881,0.475,-0.156
36.065,-0.871,0.473,-0.156
36.075,-0.863,0.486,-0.160
36.085,-0.869,0.484,-0.154
36.095,-0.865,0.484,-0.158
36.105,-0.869,0.488,-0.156
36.115,-0.869,0.492,-0.158
36.125,-0.867,0.496,-0.160
36.135,-0.861,0.500,-0.170
36.145,-0.869,0.494,-0.162
36.155,-0.867,0.500,-0.168
36.165,-0.861,0.506,-0.166
36.175,-0.865,0.502,-0.160
36.185,-0.867,0.504,-0.150
36.194,-0.867,0.490,-0.148
36.204,-0.867,0.496,-0.143
36.214,-0.863,0.496,-0.139
36.224,-0.857,0.504,-0.139
36.234,-0.848,0.514,-0.139
36.244,-0.859,0.506,-0.141
36.254,-0.871,0.514,-0.154
36.264,-0.869,0.518,-0.164
36.274,-0.873,0.508,-0.166
36.284,-0.857,0.504,-0.170
36.294,-0.854,0.490,-0.178
36.304,-0.850,0.498,-0.172
36.314,-0.852,0.496,-0.160
36.323,-0.857,0.508,-0.158
36.333,-0.855,0.496,-0.156
36.343,-0.869,0.461,-0.156
36.353,-0.857,0.500,-0.172
36.363,-0.826,0.539,-0.162
36.373,-0.826,0.535,-0.160
36.383,-0.836,0.512,-0.174
36.393,-0.844,0.516,-0.170
36.403,-0.848,0.518,-0.166
36.413,-0.857,0.510,-0.160
36.423,-0.863,0.510,-0.160
36.433,-0.857,0.510,-0.164
36.443,-0.854,0.508,-0.164
36.453,-0.857,0.510,-0.176
36.462,-0.852,0.521,-0.178
36.472,-0.850,0.533,-0.176
36.482,-0.848,0.533,-0.180
36.492,-0.848,0.539,-0.178
36.502,-0.844,0.537,-0.188
36.512,-0.832,0.539,-0.189
36.522,-0.820,0.535,-0.189
36.532,-0.820,0.529,-0.189
36.542,-0.826,0.527,-0.199
36.552,-0.818,0.537,-0.195
36.562,-0.828,0.543,-0.191
36.572,-0.818,0.543,-0.189
36.582,-0.799,0.537,-0.189
36.592,-0.785,0.541,-0.209
36.601,-0.779,0.535,-0.219
36.611,-0.775,0.533,-0.225
36.621,-0.783,0.529,-0.227
36.631,-0.799,0.545,-0.223
36.641,-0.811,0.559,-0.225
36.651,-0.805,0.557,-0.225
36.661,-0.809,0.557,-0.232
36.671,-0.799,0.572,-0.236
36.681,-0.791,0.572,-0.248
36.691,-0.783,0.568,-0.256
36.701,-0.762,0.566,-0.264
36.711,-0.756,0.570,-0.270
36.721,-0.762,0.572,-0.283
36.730,-0.766,0.570,-0.283
36.740,-0.770,0.564,-0.289
36.750,-0.768,0.568,-0.291
36.760,-0.770,0.568,-0.299
36.770,-0.770,0.568,-0.301
36.780,-0.762,0.566,-0.301
36.790,-0.752,0.576,-0.311
36.800,-0.758,0.592,-0.316
36.810,-0.758,0.611,-0.326
36.820,-0.762,0.613,-0.330
36.830,-0.764,0.625,-0.322
36.840,-0.764,0.619,-0.322
36.850,-0.764,0.611,-0.324
36.860,-0.750,0.605,-0.322
36.869,-0.740,0.594,-0.322
36.879,-0.742,0.588,-0.322
36.889,-0.738,0.590,-0.326
36.899,-0.740,0.604,-0.320
36.909,-0.742,0.605,-0.320
36.919,-0.750,0.613,-0.316
36.929,-0.752,0.615,-0.322
36.939,-0.758,0.617,-0.324
36.949,-0.764,0.617,-0.320
36.959,-0.752,0.619,-0.318
36.969,-0.740,0.619,-0.314
36.979,-0.732,0.617,-0.316
36.989,-0.730,0.621,-0.312
36.998,-0.729,0.623,-0.305
37.008,-0.727,0.629,-0.307
37.018,-0.732,0.635,-0.297
37.028,-0.732,0.633,-0.295
37.038,-0.727,0.631,-0.283
37.048,-0.734,0.627,-0.275
37.058,-0.738,0.635,-0.271
37.068,-0.738,0.635,-0.264
37.078,-0.736,0.635,-0.260
37.088,-0.732,0.635,-0.254
37.098,-0.729,0.633,-0.250
37.108,-0.725,0.635,-0.242
37.118,-0.723,0.641,-0.238
37.128,-0.723,0.646,-0.232
37.137,-0.725,0.643,-0.225
37.147,-0.727,0.631,-0.221
37.157,-0.723,0.621,-0.217
37.167,-0.715,0.617,-0.213
37.177,-0.715,0.627,-0.209
37.187,-0.715,0.625,-0.207
37.197,-0.713,0.635,-0.209
37.207,-0.713,0.641,-0.201
37.217,-0.713,0.643,-0.199
37.227,-0.713,0.650,-0.193
37.237,-0.713,0.648,-0.197
37.247,-0.705,0.646,-0.199
37.257,-0.707,0.643,-0.195
37.266,-0.711,0.639,-0.195
37.276,-0.709,0.646,-0.197
37.286,-0.705,0.650,-0.203
37.296,-0.701,0.648,-0.203
37.306,-0.703,0.650,-0.207
37.316,-0.703,0.656,-0.211
37.326,-0.701,0.662,-0.209
37.336,-0.699,0.660,-0.211
37.346,-0.691,0.660,-0.215
37.356,-0.691,0.670,-0.213
37.366,-0.693,0.672,-0.217
37.376,-0.697,0.668,-0.219
37.386,-0.688,0.662,-0.215
37.396,-0.691,0.666,-0.213
37.405,-0.691,0.668,-0.221
37.415,-0.691,0.670,-0.225
37.425,-0.691,0.674,-0.229
37.435,-0.693,0.676,-0.227
37.445,-0.693,0.678,-0.230
37.455,-0.693,0.686,-0.229
37.465,-0.697,0.693,-0.230
37.475,-0.699,0.697,-0.234
37.485,-0.695,0.693,-0.234
37.495,-0.688,0.703,-0.232
37.505,-0.695,0.697,-0.234
37.515,-0.697,0.695,-0.230
37.525,-0.691,0.703,-0.230
37.534,-0.688,0.701,-0.227
37.544,-0.680,0.697,-0.223
37.554,-0.676,0.695,-0.217
37.564,-0.674,0.699,-0.215
37.574,-0.668,0.697,-0.211
37.584,-0.668,0.699,-0.207
37.594,-0.664,0.697,-0.209
37.604,-0.662,0.701,-0.207
37.614,-0.658,0.701,-0.201
37.624,-0.664,0.705,-0.201
37.634,-0.666,0.703,-0.201
37.644,-0.664,0.701,-0.199
37.654,-0.668,0.703,-0.201
37.664,-0.666,0.697,-0.199
37.673,-0.672,0.703,-0.203
37.683,-0.670,0.701,-0.203
37.693,-0.668,0.695,-0.199
37.703,-0.672,0.705,-0.201
37.713,-0.676,0.699,-0.203
37.723,-0.676,0.701,-0.207
37.733,-0.680,0.691,-0.209
37.743,-0.682,0.695,-0.211
37.753,-0.682,0.699,-0.207
37.763,-0.684,0.699,-0.205
37.773,-0.682,0.701,-0.205
37.783,-0.680,0.703,-0.201
37.793,-0.676,0.695,-0.201
37.802,-0.680,0.699,-0.205
37.812,-0.674,0.699,-0.199
37.822,-0.676,0.695,-0.201
37.832,-0.676,0.693,-0.207
37.842,-0.680,0.689,-0.203
37.852,-0.680,0.688,-0.209
37.862,-0.688,0.684,-0.205
37.872,-0.699,0.682,-0.207
37.882,-0.701,0.691,-0.209
37.892,-0.703,0.678,-0.211
37.902,-0.701,0.680,-0.209
37.912,-0.703,0.684,-0.209
37.922,-0.693,0.678,-0.209
37.932,-0.693,0.680,-0.205
37.941,-0.697,0.680,-0.207
37.951,-0.693,0.682,-0.209
37.961,-0.689,0.684,-0.205
37.971,-0.695,0.688,-0.201
37.981,-0.697,0.684,-0.201
37.991,-0.693,0.678,-0.203
38.001,-0.691,0.684,-0.201
38.011,-0.691,0.682,-0.199
38.021,-0.695,0.684,-0.195
38.031,-0.701,0.689,-0.199
38.041,-0.695,0.689,-0.193
38.051,-0.693,0.686,-0.195
38.061,-0.689,0.684,-0.193
38.071,-0.693,0.682,-0.197
38.080,-0.695,0.678,-0.195
38.090,-0.695,0.678,-0.197
38.100,-0.703,0.674,-0.197
38.110,-0.705,0.674,-0.197
38.120,-0.701,0.668,-0.195
38.130,-0.703,0.670,-0.193
38.140,-0.703,0.676,-0.195
38.150,-0.709,0.672,-0.199
38.160,-0.711,0.670,-0.205
38.170,-0.711,0.672,-0.199
38.180,-0.705,0.672,-0.199
38.190,-0.705,0.676,-0.199
38.200,-0.707,0.680,-0.207
38.209,-0.705,0.682,-0.207
38.219,-0.703,0.672,-0.207
38.229,-0.701,0.674,-0.205
38.239,-0.705,0.678,-0.201
38.249,-0.705,0.686,-0.203
38.259,-0.705,0.689,-0.201
38.269,-0.703,0.684,-0.203
38.279,-0.697,0.674,-0.205
38.289,-0.689,0.678,-0.201
38.299,-0.695,0.674,-0.205
38.309,-0.697,0.668,-0.207
38.319,-0.699,0.670,-0.205
38.329,-0.701,0.672,-0.205
38.339,-0.699,0.674,-0.205
38.348,-0.705,0.674,-0.209
38.358,-0.709,0.676,-0.211
38.368,-0.705,0.676,-0.211
38.378,-0.703,0.680,-0.209
38.388,-0.705,0.680,-0.211
38.398,-0.707,0.676,-0.213
38.408,-0.707,0.672,-0.211
38.418,-0.703,0.668,-0.215
38.428,-0.701,0.674,-0.211
38.438,-0.705,0.678,-0.213
38.448,-0.705,0.674,-0.215
38.458,-0.699,0.672,-0.213
38.468,-0.701,0.672,-0.213
38.477,-0.695,0.670,-0.215
38.487,-0.701,0.682,-0.213
38.497,-0.699,0.686,-0.211
38.507,-0.695,0.684,-0.209
38.517,-0.697,0.684,-0.209
38.527,-0.697,0.682,-0.209
38.537,-0.697,0.676,-0.211
38.547,-0.697,0.676,-0.209
38.557,-0.697,0.672,-0.209
38.567,-0.695,0.674,-0.207
38.577,-0.695,0.678,-0.209
38.587,-0.695,0.684,-0.207
38.597,-0.697,0.682,-0.209
38.607,-0.695,0.680,-0.209
38.616,-0.699,0.682,-0.203
38.626,-0.699,0.684,-0.207
38.636,-0.699,0.678,-0.207
38.646,-0.693,0.680,-0.209
38.656,-0.697,0.678,-0.207
38.666,-0.697,0.676,-0.205
38.676,-0.697,0.678,-0.205
38.686,-0.695,0.680,-0.207
38.696,-0.693,0.678,-0.209
38.706,-0.695,0.686,-0.207
38.716,-0.701,0.688,-0.203
38.726,-0.701,0.686,-0.205
38.736,-0.693,0.680,-0.205
38.745,-0.689,0.684,-0.205
38.755,-0.695,0.682,-0.207
38.765,-0.693,0.689,-0.205
38.775,-0.693,0.684,-0.201
38.785,-0.691,0.684,-0.199
38.795,-0.688,0.686,-0.203
38.805,-0.686,0.686,-0.199
38.815,-0.686,0.684,-0.205
38.825,-0.691,0.686,-0.203
38.835,-0.689,0.686,-0.203
38.845,-0.688,0.684,-0.205
38.855,-0.691,0.688,-0.203
38.865,-0.689,0.689,-0.201
38.875,-0.689,0.695,-0.205
38.884,-0.693,0.693,-0.207
38.894,-0.691,0.686,-0.205
38.904,-0.686,0.684,-0.205
38.914,-0.688,0.691,-0.201
38.924,-0.693,0.697,-0.201
38.934,-0.699,0.699,-0.201
38.944,-0.686,0.691,-0.199
38.954,-0.680,0.693,-0.197
38.964,-0.684,0.691,-0.199
38.974,-0.682,0.691,-0.197
38.984,-0.680,0.689,-0.199
38.994,-0.684,0.691,-0.199
39.004,-0.686,0.691,-0.197
39.013,-0.684,0.686,-0.193
39.023,-0.686,0.686,-0.199
39.033,-0.688,0.689,-0.193
39.043,-0.689,0.686,-0.197
39.053,-0.688,0.684,-0.197
39.063,-0.682,0.676,-0.195
39.073,-0.682,0.680,-0.195
39.083,-0.684,0.697,-0.191
39.093,-0.684,0.699,-0.195
39.103,-0.686,0.701,-0.195
39.113,-0.684,0.689,-0.199
39.123,-0.678,0.689,-0.195
39.133,-0.682,0.699,-0.199
39.143,-0.682,0.693,-0.201
39.152,-0.684,0.693,-0.197
39.162,-0.684,0.691,-0.205
39.172,-0.680,0.695,-0.203
39.182,-0.682,0.703,-0.203
39.192,-0.678,0.703,-0.207
39.202,-0.678,0.695,-0.205
39.212,-0.682,0.693,-0.209
39.222,-0.680,0.697,-0.207
39.232,-0.680,0.693,-0.209
39.242,-0.680,0.691,-0.211
39.252,-0.680,0.689,-0.213
39.262,-0.684,0.689,-0.213
39.272,-0.689,0.691,-0.209
39.281,-0.691,0.693,-0.217
39.291,-0.689,0.695,-0.215
39.301,-0.689,0.689,-0.211
39.311,-0.689,0.689,-0.213
39.321,-0.686,0.691,-0.217
39.331,-0.682,0.689,-0.217
39.341,-0.684,0.689,-0.217
39.351,-0.682,0.689,-0.217
39.361,-0.682,0.691,-0.219
39.371,-0.682,0.691,-0.219
39.381,-0.678,0.691,-0.219
39.391,-0.682,0.693,-0.219
39.401,-0.686,0.693,-0.217
39.411,-0.682,0.691,-0.217
39.420,-0.684,0.691,-0.219
39.430,-0.686,0.689,-0.221
39.440,-0.682,0.691,-0.219
39.450,-0.686,0.688,-0.217
39.460,-0.688,0.686,-0.223
39.470,-0.686,0.682,-0.225
39.480,-0.686,0.682,-0.223
39.490,-0.684,0.682,-0.221
39.500,-0.686,0.682,-0.219
39.510,-0.689,0.684,-0.219
39.520,-0.688,0.686,-0.221
39.530,-0.688,0.686,-0.219
39.540,-0.688,0.688,-0.221
39.550,-0.684,0.693,-0.221
39.559,-0.682,0.699,-0.217
39.569,-0.693,0.725,-0.217
39.579,-0.699,0.738,-0.229
39.589,-0.703,0.744,-0.234
39.599,-0.707,0.787,-0.230
39.609,-0.717,0.830,-0.244
39.619,-0.713,0.830,-0.273
39.629,-0.697,0.801,-0.285
39.639,-0.676,0.758,-0.291
39.649,-0.654,0.727,-0.287
39.659,-0.643,0.703,-0.277
39.669,-0.645,0.684,-0.254
39.679,-0.652,0.668,-0.232
39.688,-0.668,0.662,-0.209
39.698,-0.684,0.666,-0.182
39.708,-0.688,0.666,-0.156
39.718,-0.693,0.674,-0.141
39.728,-0.691,0.666,-0.123
39.738,-0.688,0.656,-0.115
39.748,-0.678,0.654,-0.104
39.758,-0.676,0.654,-0.100
39.768,-0.670,0.658,-0.096
39.778,-0.662,0.660,-0.092
39.788,-0.662,0.670,-0.088
39.798,-0.664,0.678,-0.084
39.808,-0.668,0.697,-0.088
39.818,-0.666,0.701,-0.090
39.827,-0.668,0.717,-0.088
39.837,-0.666,0.730,-0.096
39.847,-0.660,0.729,-0.098
39.857,-0.654,0.732,-0.100
39.867,-0.652,0.740,-0.105
39.877,-0.648,0.752,-0.104
39.887,-0.646,0.760,-0.104
39.897,-0.645,0.770,-0.100
39.907,-0.648,0.773,-0.098
39.917,-0.650,0.775,-0.098
39.927,-0.648,0.771,-0.096
39.937,-0.645,0.771,-0.096
39.947,-0.641,0.768,-0.098
39.956,-0.643,0.760,-0.094
39.966,-0.641,0.766,-0.094
39.976,-0.643,0.762,-0.090
39.986,-0.643,0.764,-0.090
39.996,-0.645,0.766,-0.086
40.006,-0.641,0.760,-0.086
40.016,-0.641,0.760,-0.086
40.026,-0.641,0.762,-0.088
40.036,-0.650,0.758,-0.088
40.046,-0.645,0.758,-0.088
40.056,-0.639,0.756,-0.084
40.066,-0.645,0.748,-0.082
40.076,-0.648,0.754,-0.078
40.086,-0.650,0.760,-0.076
40.095,-0.658,0.758,-0.078
40.105,-0.662,0.754,-0.080
40.115,-0.664,0.754,-0.078
40.125,-0.664,0.758,-0.074
40.135,-0.664,0.754,-0.072
40.145,-0.664,0.756,-0.068
40.155,-0.664,0.758,-0.068
40.165,-0.660,0.756,-0.062
40.175,-0.660,0.752,-0.059
40.185,-0.658,0.756,-0.059
40.195,-0.660,0.764,-0.053
40.205,-0.662,0.768,-0.051
40.215,-0.666,0.768,-0.055
40.224,-0.658,0.758,-0.047
40.234,-0.662,0.750,-0.045
40.244,-0.658,0.750,-0.039
40.254,-0.658,0.746,-0.033
40.264,-0.652,0.748,-0.035
40.274,-0.652,0.748,-0.031
40.284,-0.650,0.742,-0.025
40.294,-0.648,0.740,-0.020
40.304,-0.650,0.736,-0.020
40.314,-0.656,0.732,-0.020
40.324,-0.662,0.730,-0.014
40.334,-0.666,0.729,-0.014
40.344,-0.670,0.727,-0.008
40.354,-0.674,0.734,-0.008
40.363,-0.678,0.740,-0.008
40.373,-0.676,0.740,-0.006
40.383,-0.668,0.734,-0.002
40.393,-0.668,0.729,-0.002
40.403,-0.664,0.736,-0.004
40.413,-0.670,0.740,-0.002
40.423,-0.672,0.742,0.000
40.433,-0.668,0.740,0.004
40.443,-0.664,0.742,0.004
40.453,-0.660,0.740,0.004
40.463,-0.668,0.738,0.002
40.473,-0.670,0.736,0.000
40.483,-0.672,0.742,0.000
40.492,-0.678,0.744,0.000
40.502,-0.680,0.746,0.002
40.512,-0.678,0.742,-0.002
40.522,-0.676,0.742,0.000
40.532,-0.672,0.742,-0.004
40.542,-0.678,0.748,-0.002
40.552,-0.682,0.744,0.000
40.562,-0.678,0.742,-0.004
40.572,-0.680,0.746,-0.008
40.582,-0.680,0.748,-0.006
40.592,-0.682,0.746,-0.010
40.602,-0.680,0.746,-0.010
40.612,-0.676,0.746,-0.008
40.622,-0.678,0.752,-0.006
40.631,-0.680,0.754,-0.014
40.641,-0.680,0.752,-0.012
40.651,-0.678,0.754,-0.010
40.661,-0.674,0.754,-0.010
40.671,-0.674,0.752,-0.008
40.681,-0.672,0.752,-0.006
40.691,-0.674,0.750,-0.002
40.701,-0.674,0.742,0.000
40.711,-0.668,0.742,0.004
40.721,-0.670,0.738,0.010
40.731,-0.672,0.736,0.014
40.741,-0.678,0.732,0.016
40.751,-0.678,0.734,0.020
40.761,-0.674,0.732,0.025
40.770,-0.684,0.734,0.025
40.780,-0.682,0.732,0.027
40.790,-0.680,0.734,0.031
40.800,-0.680,0.734,0.031
40.810,-0.680,0.734,0.033
40.820,-0.676,0.734,0.031
40.830,-0.676,0.736,0.035
40.840,-0.682,0.736,0.033
40.850,-0.678,0.738,0.035
40.860,-0.676,0.736,0.035
40.870,-0.680,0.738,0.035
40.880,-0.682,0.740,0.037
40.890,-0.682,0.742,0.037
40.899,-0.686,0.742,0.037
40.909,-0.680,0.740,0.041
40.919,-0.682,0.742,0.039
40.929,-0.686,0.742,0.035
40.939,-0.682,0.732,0.035
40.949,-0.680,0.736,0.035
40.959,-0.680,0.736,0.035
40.969,-0.682,0.736,0.035
40.979,-0.680,0.734,0.033
40.989,-0.682,0.734,0.039
40.999,-0.682,0.723,0.033
41.009,-0.684,0.730,0.035
41.019,-0.684,0.729,0.037
41.029,-0.686,0.732,0.035
41.038,-0.684,0.736,0.039
41.048,-0.688,0.742,0.039
41.058,-0.691,0.744,0.037
41.068,-0.686,0.740,0.033
41.078,-0.688,0.736,0.037
41.088,-0.691,0.736,0.037
41.098,-0.689,0.736,0.037
41.108,-0.691,0.734,0.041
41.118,-0.691,0.736,0.045
41.128,-0.691,0.742,0.045
41.138,-0.688,0.740,0.047
41.148,-0.688,0.740,0.047
41.158,-0.682,0.736,0.051
41.167,-0.680,0.734,0.047
41.177,-0.678,0.738,0.049
41.187,-0.678,0.736,0.053
41.197,-0.680,0.736,0.057
41.207,-0.680,0.742,0.057
41.217,-0.678,0.746,0.057
41.227,-0.678,0.748,0.057
41.237,-0.680,0.748,0.057
41.247,-0.674,0.736,0.057
41.257,-0.676,0.732,0.057
41.267,-0.680,0.738,0.055
41.277,-0.688,0.740,0.055
41.287,-0.686,0.740,0.053
41.297,-0.686,0.742,0.053
41.306,-0.689,0.742,0.053
41.316,-0.688,0.734,0.059
41.326,-0.686,0.730,0.057
41.336,-0.686,0.730,0.055
41.346,-0.684,0.729,0.053
41.356,-0.688,0.729,0.051
41.366,-0.689,0.723,0.053
41.376,-0.689,0.729,0.051
41.386,-0.693,0.729,0.047
41.396,-0.693,0.725,0.049
41.406,-0.695,0.725,0.047
41.416,-0.695,0.727,0.043
41.426,-0.699,0.729,0.047
41.435,-0.697,0.727,0.045
41.445,-0.697,0.730,0.039
41.455,-0.699,0.729,0.039
41.465,-0.695,0.730,0.037
41.475,-0.693,0.727,0.039
41.485,-0.693,0.742,0.035
41.495,-0.699,0.730,0.041
41.505,-0.699,0.729,0.039
41.515,-0.691,0.725,0.039
41.525,-0.693,0.717,0.035
41.535,-0.701,0.721,0.037
41.545,-0.697,0.725,0.037
41.555,-0.701,0.725,0.041
41.565,-0.703,0.725,0.039
41.574,-0.701,0.723,0.037
41.584,-0.701,0.719,0.037
41.594,-0.699,0.721,0.035
41.604,-0.699,0.721,0.037
41.614,-0.701,0.725,0.037
41.624,-0.697,0.725,0.039
41.634,-0.695,0.730,0.037
41.644,-0.697,0.729,0.037
41.654,-0.695,0.729,0.037
41.664,-0.699,0.723,0.035
41.674,-0.697,0.727,0.029
41.684,-0.697,0.729,0.035
41.694,-0.697,0.729,0.031
41.703,-0.697,0.730,0.027
41.713,-0.695,0.730,0.031
41.723,-0.693,0.730,0.029
41.733,-0.691,0.732,0.029
41.743,-0.695,0.732,0.029
41.753,-0.695,0.732,0.029
41.763,-0.691,0.734,0.025
41.773,-0.695,0.734,0.027
41.783,-0.695,0.732,0.023
41.793,-0.693,0.730,0.021
41.803,-0.693,0.730,0.025
41.813,-0.689,0.732,0.023
41.823,-0.689,0.734,0.023
41.833,-0.691,0.734,0.023
41.842,-0.691,0.736,0.023
41.852,-0.689,0.734,0.027
41.862,-0.688,0.732,0.027
41.872,-0.688,0.738,0.025
41.882,-0.689,0.736,0.031
41.892,-0.688,0.740,0.029
41.902,-0.684,0.738,0.031
41.912,-0.686,0.740,0.031
41.922,-0.686,0.738,0.031
41.932,-0.680,0.740,0.033
41.942,-0.682,0.738,0.031
41.952,-0.684,0.740,0.029
41.962,-0.682,0.738,0.035
41.971,-0.684,0.740,0.037
41.981,-0.688,0.740,0.035
41.991,-0.686,0.740,0.039
42.001,-0.689,0.736,0.041
42.011,-0.689,0.736,0.041
42.021,-0.689,0.734,0.043
42.031,-0.693,0.734,0.043
42.041,-0.691,0.736,0.041
42.051,-0.691,0.732,0.043
42.061,-0.691,0.734,0.043
42.071,-0.693,0.734,0.043
42.081,-0.695,0.729,0.045
42.091,-0.691,0.729,0.039
42.101,-0.699,0.730,0.041
42.110,-0.695,0.729,0.043
42.120,-0.693,0.727,0.041
42.130,-0.693,0.729,0.039
42.140,-0.695,0.734,0.045
42.150,-0.699,0.738,0.041
42.160,-0.697,0.732,0.041
42.170,-0.693,0.725,0.041
42.180,-0.691,0.725,0.039
42.190,-0.695,0.729,0.041
42.200,-0.695,0.732,0.041
42.210,-0.695,0.730,0.039
42.220,-0.689,0.736,0.043
42.230,-0.691,0.734,0.043
42.240,-0.691,0.725,0.049
42.249,-0.691,0.723,0.043
42.259,-0.691,0.723,0.049
42.269,-0.689,0.723,0.047
42.279,-0.688,0.725,0.053
42.289,-0.693,0.723,0.049
42.299,-0.693,0.721,0.045
42.309,-0.691,0.723,0.049
42.319,-0.693,0.730,0.049
42.329,-0.691,0.727,0.051
42.339,-0.689,0.727,0.051
42.349,-0.689,0.730,0.051
42.359,-0.689,0.730,0.049
42.369,-0.688,0.729,0.049
42.378,-0.693,0.730,0.049
42.388,-0.693,0.729,0.045
42.398,-0.689,0.727,0.043
42.408,-0.699,0.734,0.043
42.418,-0.703,0.732,0.043
42.428,-0.699,0.727,0.039
42.438,-0.693,0.725,0.039
42.448,-0.701,0.727,0.037
42.458,-0.695,0.729,0.035
42.468,-0.701,0.729,0.035
42.478,-0.703,0.730,0.033
42.488,-0.701,0.727,0.033
42.498,-0.699,0.729,0.031
42.508,-0.703,0.729,0.031
42.517,-0.697,0.729,0.025
42.527,-0.699,0.729,0.031
42.537,-0.697,0.729,0.027
42.547,-0.695,0.732,0.031
42.557,-0.691,0.729,0.029
42.567,-0.691,0.730,0.025
42.577,-0.691,0.730,0.031
42.587,-0.691,0.734,0.027
42.597,-0.688,0.732,0.027
42.607,-0.689,0.732,0.033
42.617,-0.688,0.734,0.027
42.627,-0.686,0.732,0.029
42.637,-0.688,0.736,0.029
42.646,-0.686,0.736,0.029
42.656,-0.686,0.732,0.031
42.666,-0.684,0.732,0.027
42.676,-0.688,0.734,0.025
42.686,-0.688,0.734,0.027
42.696,-0.686,0.734,0.025
42.706,-0.688,0.734,0.023
42.716,-0.689,0.730,0.023
42.726,-0.686,0.732,0.021
42.736,-0.689,0.732,0.023
42.746,-0.686,0.734,0.020
42.756,-0.689,0.732,0.023
42.766,-0.689,0.732,0.023
42.776,-0.688,0.736,0.021
42.785,-0.689,0.734,0.021
42.795,-0.689,0.734,0.025
42.805,-0.688,0.736,0.020
42.815,-0.691,0.736,0.020
42.825,-0.691,0.730,0.018
42.835,-0.693,0.734,0.020
42.845,-0.691,0.732,0.020
42.855,-0.693,0.736,0.021
42.865,-0.691,0.738,0.023
42.875,-0.691,0.736,0.023
42.885,-0.691,0.732,0.023
42.895,-0.691,0.734,0.021
42.905,-0.688,0.734,0.025
42.914,-0.689,0.734,0.027
42.924,-0.689,0.734,0.023
42.934,-0.691,0.734,0.023
42.944,-0.693,0.738,0.023
42.954,-0.693,0.736,0.025
42.964,-0.689,0.736,0.029
42.974,-0.691,0.736,0.025
42.984,-0.689,0.738,0.029
42.994,-0.689,0.734,0.031
43.004,-0.686,0.738,0.029
43.014,-0.686,0.738,0.033
43.024,-0.688,0.736,0.035
43.034,-0.684,0.730,0.039
43.044,-0.688,0.736,0.037
43.053,-0.689,0.736,0.035
43.063,-0.686,0.732,0.037
43.073,-0.686,0.736,0.035
43.083,-0.682,0.742,0.039
43.093,-0.686,0.744,0.031
43.103,-0.686,0.740,0.041
43.113,-0.680,0.736,0.035
43.123,-0.678,0.730,0.035
43.133,-0.682,0.734,0.035
43.143,-0.688,0.738,0.037
43.153,-0.689,0.744,0.039
43.163,-0.686,0.744,0.041
43.173,-0.689,0.740,0.041
43.182,-0.689,0.736,0.041
43.192,-0.686,0.732,0.043
43.202,-0.686,0.730,0.039
43.212,-0.686,0.730,0.037
43.222,-0.680,0.730,0.035
43.232,-0.682,0.730,0.035
43.242,-0.686,0.730,0.041
43.252,-0.686,0.729,0.037
43.262,-0.686,0.732,0.037
43.272,-0.688,0.740,0.041
43.282,-0.686,0.734,0.039
43.292,-0.689,0.734,0.037
43.302,-0.688,0.738,0.035
43.312,-0.686,0.732,0.033
43.321,-0.684,0.734,0.027
43.331,-0.680,0.734,0.035
43.341,-0.682,0.738,0.035
43.351,-0.682,0.746,0.033
43.361,-0.686,0.744,0.031
43.371,-0.682,0.744,0.031
43.381,-0.680,0.736,0.031
43.391,-0.680,0.736,0.025
43.401,-0.678,0.736,0.031
43.411,-0.680,0.742,0.031
43.421,-0.678,0.744,0.029
43.431,-0.678,0.740,0.029
43.441,-0.682,0.742,0.027
43.451,-0.682,0.746,0.027
43.460,-0.684,0.744,0.029
43.470,-0.680,0.740,0.023
43.480,-0.684,0.742,0.025
43.490,-0.682,0.742,0.025
43.500,-0.684,0.742,0.023
43.510,-0.684,0.738,0.029
43.520,-0.686,0.736,0.027
43.530,-0.682,0.738,0.023
43.540,-0.682,0.738,0.025
43.550,-0.682,0.734,0.023
43.560,-0.684,0.734,0.025
43.570,-0.688,0.736,0.021
43.580,-0.688,0.734,0.023
43.589,-0.684,0.738,0.021
43.599,-0.684,0.734,0.020
43.609,-0.684,0.736,0.021
43.619,-0.686,0.732,0.021
43.629,-0.686,0.732,0.018
43.639,-0.684,0.734,0.018
43.649,-0.688,0.738,0.023
43.659,-0.688,0.738,0.021
43.669,-0.688,0.734,0.021
43.679,-0.689,0.738,0.020
43.689,-0.689,0.736,0.021
43.699,-0.689,0.734,0.023
43.709,-0.686,0.732,0.020
43.719,-0.684,0.734,0.021
43.728,-0.686,0.732,0.021
43.738,-0.688,0.732,0.020
43.748,-0.688,0.734,0.021
43.758,-0.688,0.736,0.023
43.768,-0.689,0.736,0.025
43.778,-0.689,0.734,0.025
43.788,-0.691,0.732,0.023
43.798,-0.688,0.734,0.023
43.808,-0.689,0.730,0.023
43.818,-0.686,0.729,0.025
43.828,-0.688,0.736,0.023
43.838,-0.689,0.736,0.023
43.848,-0.689,0.736,0.023
43.857,-0.689,0.736,0.027
43.867,-0.689,0.738,0.025
43.877,-0.689,0.740,0.021
43.887,-0.686,0.738,0.025
43.897,-0.686,0.736,0.021
43.907,-0.688,0.738,0.023
43.917,-0.686,0.736,0.021
43.927,-0.686,0.736,0.023
43.937,-0.682,0.734,0.027
43.947,-0.680,0.732,0.025
43.957,-0.678,0.734,0.023
43.967,-0.676,0.732,0.023
43.977,-0.676,0.730,0.023
43.987,-0.678,0.734,0.021
43.996,-0.678,0.736,0.025
44.006,-0.678,0.742,0.020
44.016,-0.686,0.756,0.023
44.026,-0.680,0.746,0.018
44.036,-0.676,0.734,0.014
44.046,-0.682,0.734,0.010
44.056,-0.684,0.740,0.016
44.066,-0.686,0.738,0.012
44.076,-0.686,0.740,0.014
44.086,-0.689,0.746,0.016
44.096,-0.688,0.740,0.014
44.106,-0.684,0.736,0.014
44.116,-0.686,0.734,0.012
44.125,-0.684,0.732,0.010
44.135,-0.684,0.732,0.010
44.145,-0.678,0.732,0.010
44.155,-0.678,0.734,0.010
44.165,-0.678,0.734,0.014
44.175,-0.684,0.742,0.008
44.185,-0.682,0.742,0.010
44.195,-0.684,0.744,0.010
44.205,-0.684,0.748,0.008
44.215,-0.684,0.742,0.008
44.225,-0.678,0.744,0.006
44.235,-0.680,0.736,0.008
44.245,-0.680,0.744,0.010
44.255,-0.680,0.742,0.008
44.264,-0.678,0.744,0.010
44.274,-0.676,0.736,0.006
44.284,-0.678,0.738,0.004
44.294,-0.680,0.738,0.008
44.304,-0.682,0.738,0.008
44.314,-0.678,0.740,0.008
44.324,-0.678,0.742,0.006
44.334,-0.676,0.740,0.010
44.344,-0.676,0.736,0.006
44.354,-0.676,0.740,0.008
44.364,-0.676,0.736,0.004
44.374,-0.680,0.736,0.004
44.384,-0.680,0.738,0.002
44.393,-0.680,0.740,0.006
44.403,-0.682,0.746,0.004
44.413,-0.680,0.744,0.002
44.423,-0.682,0.744,0.002
44.433,-0.682,0.742,0.000
44.443,-0.682,0.740,-0.004
44.453,-0.686,0.736,0.000
44.463,-0.684,0.736,-0.002
44.473,-0.684,0.736,-0.002
44.483,-0.682,0.736,-0.002
44.493,-0.684,0.736,-0.004
44.503,-0.680,0.732,-0.004
44.513,-0.682,0.738,-0.004
44.523,-0.684,0.734,-0.004
44.532,-0.686,0.732,-0.006
44.542,-0.684,0.732,-0.004
44.552,-0.684,0.727,-0.002
44.562,-0.684,0.727,-0.006
44.572,-0.686,0.729,-0.008
44.582,-0.688,0.730,-0.010
44.592,-0.688,0.730,-0.014
44.602,-0.686,0.729,-0.010
44.612,-0.686,0.732,-0.008
44.622,-0.686,0.732,-0.010
44.632,-0.686,0.736,-0.010
44.642,-0.688,0.736,-0.010
44.652,-0.691,0.740,-0.010
44.661,-0.689,0.742,-0.010
44.671,-0.688,0.742,-0.004
44.681,-0.686,0.734,-0.008
44.691,-0.682,0.736,-0.012
44.701,-0.682,0.732,-0.012
44.711,-0.684,0.742,-0.008
44.721,-0.688,0.734,-0.008
44.731,-0.689,0.738,-0.008
44.741,-0.688,0.734,-0.008
44.751,-0.688,0.730,-0.010
44.761,-0.686,0.732,-0.010
44.771,-0.686,0.734,-0.006
44.781,-0.684,0.734,-0.004
44.791,-0.684,0.732,-0.006
44.800,-0.686,0.734,-0.006
44.810,-0.684,0.732,-0.004
44.820,-0.686,0.738,-0.008
44.830,-0.688,0.740,-0.008
44.840,-0.691,0.738,-0.004
44.850,-0.688,0.732,-0.012
44.860,-0.684,0.729,-0.008
44.870,-0.688,0.736,-0.010
44.880,-0.689,0.738,-0.006
44.890,-0.693,0.740,-0.004
44.900,-0.691,0.732,-0.006
44.910,-0.682,0.736,-0.008
44.920,-0.686,0.732,-0.008
44.930,-0.684,0.727,-0.010
44.939,-0.684,0.730,-0.006
44.949,-0.686,0.723,-0.010
44.959,-0.688,0.727,-0.008
44.969,-0.686,0.727,-0.008
44.979,-0.688,0.727,-0.012
44.989,-0.689,0.729,-0.010
44.999,-0.693,0.732,-0.010
45.009,-0.693,0.732,-0.012
45.019,-0.697,0.734,-0.010
45.029,-0.697,0.736,-0.016
45.039,-0.697,0.730,-0.014
45.049,-0.693,0.727,-0.014
45.059,-0.691,0.730,-0.010
45.068,-0.695,0.730,-0.014
45.078,-0.695,0.734,-0.012
45.088,-0.691,0.729,-0.018
45.098,-0.691,0.727,-0.014
45.108,-0.693,0.730,-0.012
45.118,-0.693,0.729,-0.010
45.128,-0.693,0.732,-0.012
45.138,-0.691,0.736,-0.008
45.148,-0.688,0.730,-0.012
45.158,-0.684,0.727,-0.008
45.168,-0.686,0.729,-0.010
45.178,-0.689,0.727,-0.010
45.188,-0.688,0.729,-0.014
45.198,-0.689,0.732,-0.014
45.207,-0.688,0.730,-0.016
45.217,-0.686,0.730,-0.012
45.227,-0.684,0.732,-0.012
45.237,-0.684,0.734,-0.014
45.247,-0.688,0.732,-0.016
45.257,-0.688,0.736,-0.020
45.267,-0.686,0.734,-0.016
45.277,-0.684,0.734,-0.018
45.287,-0.686,0.738,-0.020
45.297,-0.686,0.736,-0.016
45.307,-0.682,0.732,-0.020
45.317,-0.680,0.736,-0.018
45.327,-0.682,0.734,-0.016
45.336,-0.684,0.734,-0.018
45.346,-0.682,0.732,-0.020
45.356,-0.680,0.734,-0.021
45.366,-0.682,0.734,-0.021
45.376,-0.682,0.734,-0.023
45.386,-0.688,0.734,-0.021
45.396,-0.686,0.734,-0.021
45.406,-0.684,0.734,-0.020
45.416,-0.688,0.734,-0.020
45.426,-0.686,0.732,-0.020
45.436,-0.686,0.734,-0.023
45.446,-0.689,0.734,-0.023
45.456,-0.689,0.734,-0.023
45.466,-0.689,0.730,-0.025
45.475,-0.688,0.729,-0.023
45.485,-0.688,0.732,-0.023
45.495,-0.689,0.734,-0.021
45.505,-0.689,0.732,-0.023
45.515,-0.686,0.729,-0.025
45.525,-0.689,0.730,-0.021
45.535,-0.682,0.730,-0.023
45.545,-0.680,0.734,-0.023
45.555,-0.689,0.742,-0.023
45.565,-0.691,0.738,-0.023
45.575,-0.691,0.732,-0.025
45.585,-0.688,0.729,-0.027
45.595,-0.689,0.729,-0.025
45.604,-0.695,0.738,-0.021
45.614,-0.697,0.734,-0.021
45.624,-0.689,0.729,-0.020
45.634,-0.688,0.723,-0.023
45.644,-0.686,0.719,-0.023
45.654,-0.688,0.721,-0.023
45.664,-0.693,0.725,-0.021
45.674,-0.693,0.723,-0.025
45.684,-0.688,0.717,-0.025
45.694,-0.695,0.723,-0.025
45.704,-0.695,0.721,-0.025
45.714,-0.695,0.723,-0.025
45.724,-0.695,0.721,-0.027
45.734,-0.695,0.723,-0.027
45.743,-0.693,0.723,-0.027
45.753,-0.697,0.729,-0.025
45.763,-0.701,0.727,-0.029
45.773,-0.697,0.723,-0.029
45.783,-0.693,0.721,-0.025
45.793,-0.699,0.736,-0.031
45.803,-0.697,0.729,-0.029
45.813,-0.693,0.727,-0.031
45.823,-0.693,0.723,-0.031
45.833,-0.691,0.725,-0.029
45.843,-0.693,0.727,-0.033
45.853,-0.691,0.734,-0.031
45.863,-0.689,0.736,-0.027
45.872,-0.688,0.734,-0.031
45.882,-0.688,0.734,-0.033
45.892,-0.691,0.729,-0.035
45.902,-0.691,0.727,-0.033
45.912,-0.691,0.725,-0.031
45.922,-0.695,0.723,-0.033
45.932,-0.697,0.725,-0.031
45.942,-0.695,0.729,-0.031
45.952,-0.693,0.727,-0.031
45.962,-0.693,0.730,-0.035
45.972,-0.697,0.721,-0.031
45.982,-0.699,0.717,-0.033
45.992,-0.697,0.719,-0.033
46.002,-0.695,0.719,-0.031
46.011,-0.693,0.717,-0.033
46.021,-0.693,0.719,-0.029
46.031,-0.691,0.717,-0.033
46.041,-0.695,0.717,-0.033
46.051,-0.697,0.717,-0.029
46.061,-0.699,0.717,-0.029
46.071,-0.701,0.721,-0.027
46.081,-0.705,0.715,-0.023
46.091,-0.701,0.709,-0.021
46.101,-0.703,0.701,-0.023
46.111,-0.701,0.707,-0.025
46.121,-0.705,0.713,-0.027
46.131,-0.705,0.709,-0.031
46.140,-0.707,0.715,-0.031
46.150,-0.699,0.715,-0.035
46.160,-0.699,0.717,-0.037
46.170,-0.701,0.715,-0.043
46.180,-0.695,0.725,-0.045
46.190,-0.697,0.723,-0.045
46.200,-0.697,0.719,-0.049
46.210,-0.697,0.717,-0.051
46.220,-0.695,0.727,-0.049
46.230,-0.689,0.732,-0.049
46.240,-0.697,0.738,-0.055
46.250,-0.695,0.742,-0.061
46.260,-0.689,0.734,-0.062
46.270,-0.684,0.730,-0.059
46.279,-0.682,0.736,-0.059
46.289,-0.684,0.740,-0.055
46.299,-0.686,0.740,-0.057
46.309,-0.688,0.734,-0.051
46.319,-0.688,0.729,-0.053
46.329,-0.688,0.729,-0.055
46.339,-0.688,0.730,-0.055
46.349,-0.693,0.727,-0.055
46.359,-0.695,0.725,-0.059
46.369,-0.691,0.719,-0.062
46.379,-0.695,0.713,-0.061
46.389,-0.695,0.715,-0.057
46.399,-0.695,0.725,-0.057
46.409,-0.693,0.721,-0.057
46.418,-0.691,0.721,-0.057
46.428,-0.689,0.723,-0.059
46.438,-0.691,0.725,-0.055
46.448,-0.693,0.721,-0.055
46.458,-0.695,0.725,-0.061
46.468,-0.693,0.725,-0.059
46.478,-0.691,0.723,-0.057
46.488,-0.686,0.732,-0.055
46.498,-0.691,0.725,-0.057
46.508,-0.691,0.723,-0.053
46.518,-0.689,0.721,-0.061
46.528,-0.691,0.721,-0.057
46.538,-0.691,0.721,-0.059
46.547,-0.688,0.721,-0.059
46.557,-0.693,0.730,-0.055
46.567,-0.693,0.727,-0.051
46.577,-0.689,0.725,-0.055
46.587,-0.691,0.723,-0.055
46.597,-0.697,0.725,-0.061
46.607,-0.697,0.713,-0.061
46.617,-0.699,0.715,-0.061
46.627,-0.695,0.715,-0.062
46.637,-0.695,0.715,-0.066
46.647,-0.701,0.719,-0.061
46.657,-0.701,0.717,-0.059
46.667,-0.705,0.717,-0.066
46.677,-0.701,0.721,-0.064
46.686,-0.705,0.717,-0.062
46.696,-0.697,0.715,-0.062
46.706,-0.695,0.717,-0.064
46.716,-0.693,0.715,-0.068
46.726,-0.691,0.719,-0.068
46.736,-0.693,0.721,-0.062
46.746,-0.693,0.723,-0.064
46.756,-0.695,0.727,-0.066
46.766,-0.695,0.727,-0.068
46.776,-0.693,0.719,-0.066
46.786,-0.697,0.721,-0.064
46.796,-0.697,0.721,-0.066
46.806,-0.695,0.723,-0.064
46.815,-0.697,0.725,-0.064
46.825,-0.697,0.723,-0.064
46.835,-0.695,0.721,-0.066
46.845,-0.689,0.719,-0.064
46.855,-0.693,0.715,-0.068
46.865,-0.697,0.715,-0.066
46.875,-0.703,0.711,-0.070
46.885,-0.703,0.709,-0.068
46.895,-0.701,0.707,-0.068
46.905,-0.701,0.717,-0.068
46.915,-0.699,0.713,-0.066
46.925,-0.701,0.709,-0.072
46.935,-0.703,0.709,-0.070
46.945,-0.699,0.703,-0.072
46.954,-0.699,0.709,-0.074
46.964,-0.703,0.723,-0.070
46.974,-0.703,0.725,-0.066
46.984,-0.697,0.721,-0.068
46.994,-0.691,0.715,-0.068
47.004,-0.689,0.705,-0.070
47.014,-0.691,0.709,-0.074
47.024,-0.695,0.711,-0.072
47.034,-0.701,0.715,-0.074
47.044,-0.701,0.715,-0.070
47.054,-0.697,0.715,-0.072
47.064,-0.699,0.717,-0.078
47.074,-0.701,0.707,-0.082
47.083,-0.703,0.711,-0.078
47.093,-0.697,0.715,-0.078
47.103,-0.697,0.717,-0.080
47.113,-0.699,0.717,-0.078
47.123,-0.693,0.721,-0.080
47.133,-0.697,0.717,-0.082
47.143,-0.693,0.715,-0.078
47.153,-0.697,0.717,-0.080
47.163,-0.699,0.723,-0.082
47.173,-0.693,0.729,-0.076
47.183,-0.693,0.732,-0.076
47.193,-0.695,0.727,-0.082
47.203,-0.689,0.727,-0.084
47.213,-0.684,0.719,-0.088
47.222,-0.688,0.727,-0.084
47.232,-0.689,0.730,-0.084
47.242,-0.689,0.732,-0.084
47.252,-0.688,0.730,-0.080
47.262,-0.684,0.736,-0.080
47.272,-0.684,0.736,-0.076
47.282,-0.688,0.734,-0.074
47.292,-0.684,0.729,-0.078
47.302,-0.684,0.729,-0.074
47.312,-0.682,0.727,-0.072
47.322,-0.680,0.727,-0.070
47.332,-0.686,0.721,-0.070
47.342,-0.688,0.725,-0.068
47.351,-0.689,0.723,-0.072
47.361,-0.691,0.719,-0.068
47.371,-0.689,0.713,-0.072
47.381,-0.697,0.715,-0.070
47.391,-0.697,0.721,-0.070
47.401,-0.697,0.719,-0.068
47.411,-0.695,0.719,-0.070
47.421,-0.695,0.719,-0.068
47.431,-0.693,0.721,-0.072
47.441,-0.691,0.715,-0.070
47.451,-0.688,0.717,-0.066
47.461,-0.693,0.721,-0.066
47.471,-0.693,0.719,-0.070
47.481,-0.693,0.717,-0.070
47.490,-0.695,0.723,-0.068
47.500,-0.695,0.725,-0.068
47.510,-0.693,0.723,-0.070
47.520,-0.689,0.725,-0.066
47.530,-0.689,0.727,-0.072
47.540,-0.688,0.725,-0.070
47.550,-0.691,0.725,-0.070
47.560,-0.688,0.721,-0.072
47.570,-0.688,0.723,-0.070
47.580,-0.691,0.725,-0.074
47.590,-0.693,0.730,-0.074
47.600,-0.697,0.727,-0.074
47.610,-0.691,0.727,-0.066
47.619,-0.689,0.725,-0.068
47.629,-0.693,0.725,-0.068
47.639,-0.691,0.721,-0.066
47.649,-0.689,0.711,-0.066
47.659,-0.695,0.713,-0.068
47.669,-0.699,0.719,-0.072
47.679,-0.701,0.719,-0.068
47.689,-0.701,0.717,-0.062
47.699,-0.695,0.715,-0.066
47.709,-0.697,0.719,-0.062
47.719,-0.699,0.715,-0.064
47.729,-0.691,0.713,-0.066
47.739,-0.693,0.715,-0.068
47.749,-0.695,0.713,-0.066
47.758,-0.697,0.715,-0.068
47.768,-0.701,0.711,-0.070
47.778,-0.703,0.715,-0.068
47.788,-0.699,0.717,-0.068
47.798,-0.697,0.715,-0.070
47.808,-0.701,0.719,-0.068
47.818,-0.699,0.723,-0.074
47.828,-0.695,0.719,-0.068
47.838,-0.695,0.725,-0.070
47.848,-0.697,0.725,-0.072
47.858,-0.691,0.725,-0.072
47.868,-0.697,0.723,-0.072
47.878,-0.697,0.721,-0.068
47.888,-0.699,0.730,-0.066
47.897,-0.701,0.725,-0.068
47.907,-0.697,0.723,-0.066
47.917,-0.695,0.721,-0.064
47.927,-0.695,0.721,-0.066
47.937,-0.695,0.715,-0.061
47.947,-0.693,0.721,-0.064
47.957,-0.695,0.719,-0.061
47.967,-0.697,0.715,-0.061
47.977,-0.697,0.715,-0.062
47.987,-0.693,0.715,-0.061
47.997,-0.697,0.715,-0.057
48.007,-0.699,0.717,-0.059
48.017,-0.695,0.719,-0.061
48.026,-0.697,0.721,-0.057
48.036,-0.697,0.723,-0.059
48.046,-0.699,0.721,-0.057
48.056,-0.697,0.721,-0.059
48.066,-0.693,0.715,-0.053
48.076,-0.699,0.717,-0.055
48.086,-0.699,0.715,-0.057
48.096,-0.703,0.715,-0.059
48.106,-0.703,0.715,-0.059
48.116,-0.701,0.709,-0.059
48.126,-0.707,0.711,-0.061
48.136,-0.705,0.711,-0.061
48.146,-0.701,0.713,-0.057
48.156,-0.697,0.715,-0.059
48.165,-0.695,0.717,-0.061
48.175,-0.701,0.715,-0.059
48.185,-0.693,0.719,-0.059
48.195,-0.693,0.723,-0.057
48.205,-0.693,0.721,-0.057
48.215,-0.689,0.719,-0.057
48.225,-0.695,0.721,-0.059
48.235,-0.697,0.719,-0.059
48.245,-0.693,0.721,-0.057
48.255,-0.693,0.719,-0.059
48.265,-0.697,0.717,-0.059
48.275,-0.697,0.719,-0.057
48.285,-0.705,0.717,-0.057
48.294,-0.705,0.723,-0.057
48.304,-0.707,0.719,-0.055
48.314,-0.699,0.717,-0.061
48.324,-0.697,0.719,-0.055
48.334,-0.701,0.717,-0.061
48.344,-0.699,0.717,-0.055
48.354,-0.703,0.717,-0.059
48.364,-0.695,0.715,-0.057
48.374,-0.697,0.711,-0.057
48.384,-0.697,0.715,-0.057
48.394,-0.701,0.713,-0.059
48.404,-0.703,0.721,-0.059
48.414,-0.701,0.717,-0.061
48.424,-0.695,0.719,-0.057
48.433,-0.701,0.729,-0.055
48.443,-0.701,0.730,-0.059
48.453,-0.701,0.727,-0.057
48.463,-0.691,0.725,-0.061
48.473,-0.693,0.715,-0.057
48.483,-0.691,0.721,-0.061
48.493,-0.689,0.730,-0.059
48.503,-0.695,0.729,-0.059
48.513,-0.691,0.729,-0.059
48.523,-0.691,0.730,-0.055
48.533,-0.689,0.727,-0.055
48.543,-0.691,0.729,-0.053
48.553,-0.686,0.723,-0.053
48.562,-0.686,0.721,-0.055
48.572,-0.684,0.717,-0.053
48.582,-0.686,0.719,-0.053
48.592,-0.689,0.719,-0.055
48.602,-0.693,0.723,-0.055
48.612,-0.691,0.725,-0.053
48.622,-0.689,0.723,-0.049
48.632,-0.693,0.723,-0.049
48.642,-0.693,0.723,-0.055
48.652,-0.691,0.719,-0.053
48.662,-0.684,0.717,-0.051
48.672,-0.688,0.719,-0.051
48.682,-0.689,0.721,-0.055
48.692,-0.689,0.717,-0.053
48.701,-0.688,0.725,-0.049
48.711,-0.691,0.729,-0.053
48.721,-0.693,0.727,-0.053
48.731,-0.688,0.727,-0.053
48.741,-0.684,0.725,-0.057
48.751,-0.691,0.721,-0.057
48.761,-0.691,0.725,-0.057
48.771,-0.691,0.727,-0.053
48.781,-0.689,0.732,-0.057
48.791,-0.689,0.729,-0.055
48.801,-0.686,0.729,-0.053
48.811,-0.688,0.727,-0.053
48.821,-0.686,0.729,-0.051
48.830,-0.684,0.727,-0.049
48.840,-0.684,0.729,-0.047
48.850,-0.686,0.729,-0.051
48.860,-0.686,0.730,-0.053
48.870,-0.686,0.730,-0.051
48.880,-0.686,0.727,-0.053
48.890,-0.689,0.725,-0.053
48.900,-0.689,0.725,-0.055
48.910,-0.688,0.727,-0.053
48.920,-0.689,0.725,-0.055
48.930,-0.688,0.727,-0.055
48.940,-0.689,0.725,-0.053
