df_hash,22ZHK4.S8VSPF
device,HZ2X61
project_hash,29R7
project_name,istanbul_aydin_university
person_hash,29R7.9DLG
person_label,V46
date_time_start,2025-10-27_15-17-34.481000_+03
date_time_start_unix,1761563854.481
date_time_end,2025-10-27_15-25-50.085000_+03
length_difference_noticed,no

time,acc_x,acc_y,acc_z
15.348,-0.607,0.797,-0.100
15.358,-0.602,0.799,-0.104
15.368,-0.607,0.795,-0.096
15.378,-0.604,0.795,-0.102
15.388,-0.604,0.793,-0.100
15.397,-0.607,0.797,-0.098
15.407,-0.602,0.791,-0.100
15.417,-0.602,0.791,-0.096
15.427,-0.609,0.791,-0.102
15.437,-0.609,0.797,-0.100
15.447,-0.607,0.799,-0.100
15.457,-0.609,0.799,-0.098
15.467,-0.607,0.797,-0.094
15.477,-0.611,0.801,-0.100
15.487,-0.611,0.799,-0.096
15.497,-0.609,0.799,-0.094
15.507,-0.609,0.795,-0.096
15.517,-0.613,0.793,-0.098
15.527,-0.607,0.791,-0.096
15.537,-0.607,0.787,-0.096
15.546,-0.611,0.789,-0.096
15.556,-0.605,0.789,-0.098
15.566,-0.607,0.793,-0.096
15.576,-0.604,0.797,-0.098
15.586,-0.605,0.795,-0.098
15.596,-0.602,0.797,-0.105
15.606,-0.605,0.799,-0.100
15.616,-0.602,0.801,-0.096
15.626,-0.602,0.799,-0.100
15.636,-0.602,0.799,-0.100
15.646,-0.602,0.797,-0.100
15.656,-0.600,0.797,-0.100
15.666,-0.602,0.795,-0.102
15.676,-0.602,0.795,-0.094
15.685,-0.602,0.797,-0.098
15.695,-0.602,0.799,-0.098
15.705,-0.604,0.795,-0.102
15.715,-0.607,0.795,-0.098
15.725,-0.602,0.801,-0.100
15.735,-0.607,0.793,-0.098
15.745,-0.609,0.795,-0.104
15.755,-0.609,0.795,-0.100
15.765,-0.611,0.793,-0.098
15.775,-0.609,0.795,-0.100
15.785,-0.609,0.797,-0.100
15.795,-0.609,0.799,-0.102
15.805,-0.611,0.803,-0.102
15.815,-0.613,0.809,-0.102
15.825,-0.613,0.805,-0.100
15.834,-0.619,0.799,-0.104
15.844,-0.621,0.803,-0.107
15.854,-0.617,0.795,-0.102
15.864,-0.619,0.793,-0.105
15.874,-0.613,0.791,-0.104
15.884,-0.604,0.795,-0.096
15.894,-0.602,0.795,-0.094
15.904,-0.600,0.797,-0.094
15.914,-0.604,0.791,-0.094
15.924,-0.602,0.793,-0.094
15.934,-0.604,0.791,-0.096
15.944,-0.605,0.787,-0.096
15.954,-0.600,0.787,-0.094
15.964,-0.598,0.793,-0.092
15.973,-0.596,0.791,-0.096
15.983,-0.592,0.801,-0.092
15.993,-0.588,0.807,-0.090
16.003,-0.590,0.801,-0.090
16.013,-0.580,0.805,-0.084
16.023,-0.578,0.803,-0.090
16.033,-0.582,0.801,-0.090
16.043,-0.582,0.801,-0.088
16.053,-0.576,0.803,-0.088
16.063,-0.576,0.807,-0.090
16.073,-0.580,0.807,-0.090
16.083,-0.580,0.811,-0.088
16.093,-0.588,0.814,-0.090
16.103,-0.590,0.814,-0.090
16.113,-0.590,0.818,-0.090
16.122,-0.584,0.812,-0.090
16.132,-0.594,0.809,-0.092
16.142,-0.594,0.805,-0.094
16.152,-0.588,0.809,-0.094
16.162,-0.594,0.797,-0.092
16.172,-0.596,0.801,-0.094
16.182,-0.600,0.803,-0.092
16.192,-0.600,0.801,-0.094
16.202,-0.602,0.801,-0.092
16.212,-0.604,0.805,-0.086
16.222,-0.602,0.801,-0.090
16.232,-0.605,0.799,-0.088
16.242,-0.605,0.795,-0.090
16.252,-0.600,0.799,-0.090
16.261,-0.604,0.799,-0.088
16.271,-0.605,0.797,-0.088
16.281,-0.604,0.799,-0.090
16.291,-0.602,0.799,-0.088
16.301,-0.604,0.801,-0.090
16.311,-0.604,0.803,-0.092
16.321,-0.602,0.799,-0.090
16.331,-0.600,0.801,-0.090
16.341,-0.604,0.797,-0.090
16.351,-0.598,0.801,-0.090
16.361,-0.590,0.801,-0.092
16.371,-0.596,0.799,-0.092
16.381,-0.596,0.799,-0.092
16.391,-0.596,0.805,-0.094
16.401,-0.598,0.801,-0.096
16.410,-0.600,0.803,-0.096
16.420,-0.596,0.805,-0.096
16.430,-0.602,0.807,-0.098
16.440,-0.602,0.805,-0.098
16.450,-0.598,0.807,-0.098
16.460,-0.598,0.807,-0.098
16.470,-0.602,0.803,-0.096
16.480,-0.596,0.799,-0.098
16.490,-0.598,0.799,-0.098
16.500,-0.594,0.803,-0.098
16.510,-0.590,0.805,-0.096
16.520,-0.590,0.811,-0.098
16.530,-0.594,0.811,-0.100
16.540,-0.598,0.809,-0.102
16.549,-0.604,0.803,-0.105
16.559,-0.605,0.801,-0.105
16.569,-0.607,0.795,-0.104
16.579,-0.605,0.793,-0.100
16.589,-0.605,0.799,-0.100
16.599,-0.598,0.801,-0.098
16.609,-0.594,0.801,-0.090
16.619,-0.590,0.803,-0.088
16.629,-0.590,0.797,-0.086
16.639,-0.594,0.797,-0.088
16.649,-0.596,0.791,-0.086
16.659,-0.600,0.789,-0.086
16.669,-0.605,0.789,-0.084
16.679,-0.615,0.789,-0.088
16.689,-0.611,0.795,-0.090
16.698,-0.615,0.799,-0.092
16.708,-0.619,0.797,-0.090
16.718,-0.617,0.801,-0.092
16.728,-0.615,0.799,-0.096
16.738,-0.611,0.797,-0.096
16.748,-0.609,0.799,-0.092
16.758,-0.604,0.801,-0.092
16.768,-0.600,0.801,-0.090
16.778,-0.602,0.803,-0.090
16.788,-0.598,0.799,-0.088
16.798,-0.598,0.801,-0.090
16.808,-0.596,0.797,-0.090
16.818,-0.598,0.795,-0.090
16.828,-0.594,0.797,-0.090
16.837,-0.592,0.795,-0.088
16.847,-0.594,0.801,-0.090
16.857,-0.596,0.805,-0.090
16.867,-0.598,0.807,-0.092
16.877,-0.600,0.805,-0.092
16.887,-0.600,0.809,-0.096
16.897,-0.602,0.805,-0.096
16.907,-0.607,0.799,-0.096
16.917,-0.602,0.801,-0.094
16.927,-0.605,0.797,-0.094
16.937,-0.604,0.797,-0.096
16.947,-0.607,0.801,-0.094
16.957,-0.604,0.805,-0.092
16.967,-0.605,0.803,-0.090
16.977,-0.598,0.799,-0.090
16.986,-0.602,0.795,-0.088
16.996,-0.600,0.795,-0.088
17.006,-0.598,0.793,-0.088
17.016,-0.602,0.791,-0.086
17.026,-0.600,0.791,-0.090
17.036,-0.604,0.795,-0.090
17.046,-0.607,0.793,-0.090
17.056,-0.611,0.799,-0.090
17.066,-0.613,0.803,-0.094
17.076,-0.613,0.801,-0.096
17.086,-0.611,0.799,-0.094
17.096,-0.609,0.799,-0.092
17.106,-0.609,0.797,-0.098
17.116,-0.607,0.799,-0.098
17.125,-0.605,0.797,-0.098
17.135,-0.604,0.795,-0.096
17.145,-0.602,0.791,-0.094
17.155,-0.604,0.793,-0.096
17.165,-0.605,0.797,-0.096
17.175,-0.604,0.801,-0.094
17.185,-0.605,0.797,-0.096
17.195,-0.607,0.797,-0.094
17.205,-0.602,0.801,-0.094
17.215,-0.598,0.797,-0.094
17.225,-0.598,0.799,-0.094
17.235,-0.598,0.799,-0.096
17.245,-0.592,0.797,-0.094
17.255,-0.600,0.797,-0.096
17.265,-0.602,0.801,-0.096
17.274,-0.602,0.801,-0.094
17.284,-0.602,0.801,-0.094
17.294,-0.600,0.799,-0.094
17.304,-0.602,0.797,-0.092
17.314,-0.602,0.801,-0.096
17.324,-0.596,0.799,-0.092
17.334,-0.602,0.793,-0.096
17.344,-0.600,0.795,-0.098
17.354,-0.602,0.799,-0.094
17.364,-0.605,0.803,-0.096
17.374,-0.604,0.801,-0.096
17.384,-0.605,0.803,-0.092
17.394,-0.609,0.803,-0.096
17.404,-0.605,0.801,-0.094
17.413,-0.605,0.795,-0.096
17.423,-0.605,0.795,-0.094
17.433,-0.605,0.797,-0.092
17.443,-0.605,0.795,-0.092
17.453,-0.602,0.795,-0.090
17.463,-0.605,0.795,-0.094
17.473,-0.605,0.789,-0.092
17.483,-0.605,0.791,-0.090
17.493,-0.605,0.795,-0.094
17.503,-0.604,0.797,-0.090
17.513,-0.604,0.799,-0.094
17.523,-0.605,0.795,-0.094
17.533,-0.607,0.799,-0.098
17.543,-0.607,0.805,-0.096
17.553,-0.609,0.801,-0.092
17.562,-0.611,0.799,-0.092
17.572,-0.605,0.795,-0.096
17.582,-0.602,0.795,-0.088
17.592,-0.600,0.795,-0.092
17.602,-0.604,0.795,-0.090
17.612,-0.600,0.801,-0.092
17.622,-0.602,0.799,-0.092
17.632,-0.604,0.797,-0.092
17.642,-0.602,0.799,-0.088
17.652,-0.604,0.799,-0.092
17.662,-0.604,0.793,-0.090
17.672,-0.605,0.797,-0.094
17.682,-0.605,0.799,-0.096
17.692,-0.605,0.797,-0.092
17.701,-0.611,0.797,-0.094
17.711,-0.605,0.799,-0.094
17.721,-0.604,0.793,-0.098
17.731,-0.604,0.797,-0.094
17.741,-0.600,0.797,-0.090
17.751,-0.604,0.801,-0.090
17.761,-0.604,0.797,-0.090
17.771,-0.604,0.795,-0.094
17.781,-0.604,0.791,-0.094
17.791,-0.607,0.789,-0.094
17.801,-0.611,0.789,-0.096
17.811,-0.609,0.793,-0.096
17.821,-0.607,0.799,-0.092
17.831,-0.609,0.801,-0.092
17.841,-0.609,0.799,-0.096
17.850,-0.609,0.795,-0.094
17.860,-0.613,0.789,-0.098
17.870,-0.613,0.791,-0.098
17.880,-0.613,0.789,-0.096
17.890,-0.613,0.791,-0.098
17.900,-0.609,0.797,-0.096
17.910,-0.607,0.801,-0.094
17.920,-0.613,0.805,-0.092
17.930,-0.609,0.803,-0.092
17.940,-0.605,0.797,-0.086
17.950,-0.604,0.797,-0.086
17.960,-0.607,0.785,-0.090
17.970,-0.605,0.785,-0.096
17.980,-0.604,0.787,-0.092
17.989,-0.605,0.787,-0.092
17.999,-0.609,0.787,-0.096
18.009,-0.609,0.791,-0.092
18.019,-0.605,0.801,-0.092
18.029,-0.611,0.801,-0.094
18.039,-0.611,0.801,-0.094
18.049,-0.615,0.803,-0.096
18.059,-0.613,0.799,-0.100
18.069,-0.615,0.793,-0.100
18.079,-0.613,0.795,-0.098
18.089,-0.609,0.791,-0.100
18.099,-0.611,0.791,-0.100
18.109,-0.607,0.793,-0.098
18.119,-0.604,0.793,-0.096
18.129,-0.605,0.797,-0.094
18.138,-0.605,0.795,-0.094
18.148,-0.605,0.795,-0.094
18.158,-0.605,0.797,-0.098
18.168,-0.604,0.797,-0.092
18.178,-0.607,0.793,-0.096
18.188,-0.605,0.793,-0.096
18.198,-0.604,0.795,-0.094
18.208,-0.607,0.793,-0.096
18.218,-0.604,0.795,-0.094
18.228,-0.604,0.795,-0.098
18.238,-0.604,0.793,-0.094
18.248,-0.604,0.797,-0.092
18.258,-0.598,0.793,-0.092
18.268,-0.605,0.795,-0.090
18.277,-0.605,0.797,-0.090
18.287,-0.602,0.793,-0.092
18.297,-0.609,0.787,-0.094
18.307,-0.613,0.785,-0.098
18.317,-0.613,0.797,-0.096
18.327,-0.613,0.799,-0.096
18.337,-0.615,0.793,-0.092
18.347,-0.609,0.799,-0.094
18.357,-0.607,0.801,-0.094
18.367,-0.611,0.799,-0.096
18.377,-0.609,0.799,-0.096
18.387,-0.607,0.797,-0.098
18.397,-0.611,0.789,-0.096
18.407,-0.609,0.791,-0.096
18.417,-0.607,0.793,-0.092
18.426,-0.607,0.787,-0.094
18.436,-0.607,0.789,-0.096
18.446,-0.605,0.791,-0.094
18.456,-0.602,0.795,-0.096
18.466,-0.607,0.795,-0.092
18.476,-0.609,0.795,-0.096
18.486,-0.607,0.797,-0.096
18.496,-0.611,0.797,-0.098
18.506,-0.613,0.799,-0.100
18.516,-0.607,0.795,-0.096
18.526,-0.609,0.799,-0.098
18.536,-0.607,0.797,-0.100
18.546,-0.604,0.797,-0.096
18.556,-0.604,0.797,-0.096
18.565,-0.604,0.795,-0.094
18.575,-0.604,0.791,-0.092
18.585,-0.602,0.793,-0.094
18.595,-0.605,0.789,-0.096
18.605,-0.605,0.791,-0.092
18.615,-0.605,0.793,-0.094
18.625,-0.611,0.797,-0.094
18.635,-0.609,0.797,-0.092
18.645,-0.607,0.801,-0.092
18.655,-0.605,0.799,-0.096
18.665,-0.605,0.797,-0.096
18.675,-0.607,0.795,-0.092
18.685,-0.607,0.793,-0.094
18.695,-0.607,0.795,-0.094
18.704,-0.607,0.793,-0.092
18.714,-0.607,0.795,-0.096
18.724,-0.613,0.793,-0.094
18.734,-0.607,0.791,-0.096
18.744,-0.611,0.791,-0.094
18.754,-0.609,0.789,-0.094
18.764,-0.607,0.795,-0.094
18.774,-0.611,0.793,-0.092
18.784,-0.611,0.791,-0.096
18.794,-0.609,0.795,-0.096
18.804,-0.613,0.795,-0.100
18.814,-0.613,0.793,-0.098
18.824,-0.615,0.797,-0.096
18.834,-0.613,0.797,-0.096
18.844,-0.613,0.797,-0.096
18.853,-0.611,0.793,-0.100
18.863,-0.609,0.793,-0.096
18.873,-0.611,0.797,-0.094
18.883,-0.609,0.789,-0.092
18.893,-0.605,0.791,-0.094
18.903,-0.604,0.793,-0.092
18.913,-0.602,0.791,-0.092
18.923,-0.602,0.787,-0.090
18.933,-0.607,0.787,-0.096
18.943,-0.605,0.797,-0.092
18.953,-0.605,0.797,-0.092
18.963,-0.607,0.797,-0.098
18.973,-0.609,0.795,-0.092
18.983,-0.611,0.801,-0.094
18.992,-0.609,0.805,-0.094
19.002,-0.611,0.801,-0.100
19.012,-0.613,0.797,-0.100
19.022,-0.609,0.799,-0.100
19.032,-0.609,0.795,-0.098
19.042,-0.605,0.795,-0.098
19.052,-0.605,0.791,-0.096
19.062,-0.602,0.795,-0.094
19.072,-0.604,0.793,-0.094
19.082,-0.604,0.795,-0.094
19.092,-0.602,0.795,-0.094
19.102,-0.605,0.793,-0.092
19.112,-0.607,0.791,-0.094
19.122,-0.605,0.791,-0.098
19.132,-0.607,0.793,-0.094
19.141,-0.609,0.793,-0.094
19.151,-0.607,0.795,-0.092
19.161,-0.609,0.795,-0.094
19.171,-0.611,0.795,-0.096
19.181,-0.609,0.797,-0.096
19.191,-0.611,0.797,-0.094
19.201,-0.609,0.797,-0.088
19.211,-0.605,0.795,-0.090
19.221,-0.605,0.789,-0.094
19.231,-0.609,0.793,-0.094
19.241,-0.604,0.793,-0.096
19.251,-0.607,0.787,-0.096
19.261,-0.613,0.793,-0.096
19.271,-0.609,0.799,-0.098
19.280,-0.611,0.801,-0.094
19.290,-0.611,0.805,-0.094
19.300,-0.607,0.803,-0.096
19.310,-0.605,0.805,-0.092
19.320,-0.605,0.801,-0.090
19.330,-0.611,0.799,-0.094
19.340,-0.607,0.795,-0.094
19.350,-0.605,0.789,-0.094
19.360,-0.607,0.787,-0.096
19.370,-0.605,0.785,-0.094
19.380,-0.605,0.787,-0.094
19.390,-0.605,0.789,-0.092
19.400,-0.604,0.793,-0.092
19.410,-0.605,0.795,-0.092
19.420,-0.611,0.797,-0.094
19.429,-0.604,0.799,-0.094
19.439,-0.605,0.797,-0.094
19.449,-0.605,0.799,-0.094
19.459,-0.604,0.799,-0.094
19.469,-0.602,0.797,-0.096
19.479,-0.604,0.797,-0.096
19.489,-0.605,0.797,-0.098
19.499,-0.609,0.797,-0.096
19.509,-0.609,0.795,-0.098
19.519,-0.609,0.795,-0.098
19.529,-0.615,0.791,-0.096
19.539,-0.609,0.795,-0.100
19.549,-0.605,0.801,-0.096
19.559,-0.607,0.803,-0.098
19.568,-0.607,0.803,-0.096
19.578,-0.605,0.801,-0.096
19.588,-0.602,0.801,-0.092
19.598,-0.604,0.795,-0.094
19.608,-0.604,0.793,-0.094
19.618,-0.604,0.793,-0.096
19.628,-0.609,0.795,-0.098
19.638,-0.611,0.793,-0.094
19.648,-0.611,0.791,-0.096
19.658,-0.609,0.789,-0.096
19.668,-0.611,0.793,-0.096
19.678,-0.607,0.793,-0.094
19.688,-0.607,0.791,-0.094
19.698,-0.607,0.795,-0.094
19.708,-0.607,0.793,-0.090
19.717,-0.609,0.795,-0.094
19.727,-0.611,0.799,-0.096
19.737,-0.611,0.799,-0.096
19.747,-0.605,0.797,-0.098
19.757,-0.613,0.797,-0.096
19.767,-0.613,0.789,-0.098
19.777,-0.607,0.785,-0.098
19.787,-0.615,0.783,-0.094
19.797,-0.609,0.789,-0.094
19.807,-0.605,0.791,-0.092
19.817,-0.602,0.785,-0.090
19.827,-0.604,0.789,-0.090
19.837,-0.600,0.795,-0.086
19.847,-0.604,0.795,-0.088
19.856,-0.604,0.791,-0.092
19.866,-0.607,0.787,-0.094
19.876,-0.613,0.795,-0.098
19.886,-0.619,0.791,-0.098
19.896,-0.623,0.795,-0.098
19.906,-0.623,0.799,-0.098
19.916,-0.617,0.803,-0.092
19.926,-0.613,0.799,-0.092
19.936,-0.613,0.793,-0.094
19.946,-0.617,0.791,-0.092
19.956,-0.617,0.789,-0.096
19.966,-0.619,0.787,-0.098
19.976,-0.615,0.785,-0.100
19.986,-0.619,0.783,-0.094
19.996,-0.613,0.791,-0.096
20.005,-0.609,0.791,-0.090
20.015,-0.607,0.793,-0.096
20.025,-0.609,0.791,-0.090
20.035,-0.607,0.789,-0.092
20.045,-0.613,0.793,-0.094
20.055,-0.613,0.793,-0.096
20.065,-0.613,0.789,-0.098
20.075,-0.615,0.791,-0.098
20.085,-0.609,0.793,-0.098
20.095,-0.607,0.793,-0.096
20.105,-0.613,0.791,-0.100
20.115,-0.607,0.797,-0.096
20.125,-0.607,0.799,-0.100
20.135,-0.611,0.795,-0.092
20.144,-0.609,0.793,-0.092
20.154,-0.609,0.791,-0.094
20.164,-0.607,0.791,-0.096
20.174,-0.605,0.787,-0.096
20.184,-0.609,0.783,-0.100
20.194,-0.611,0.789,-0.098
20.204,-0.609,0.797,-0.100
20.214,-0.609,0.797,-0.098
20.224,-0.611,0.803,-0.098
20.234,-0.615,0.803,-0.096
20.244,-0.615,0.803,-0.096
20.254,-0.613,0.797,-0.100
20.264,-0.613,0.791,-0.100
20.274,-0.613,0.787,-0.096
20.284,-0.615,0.789,-0.094
20.293,-0.611,0.785,-0.096
20.303,-0.609,0.789,-0.096
20.313,-0.605,0.791,-0.096
20.323,-0.607,0.789,-0.100
20.333,-0.607,0.789,-0.098
20.343,-0.611,0.791,-0.096
20.353,-0.611,0.795,-0.100
20.363,-0.615,0.797,-0.100
20.373,-0.615,0.793,-0.098
20.383,-0.613,0.795,-0.098
20.393,-0.615,0.795,-0.098
20.403,-0.613,0.795,-0.098
20.413,-0.607,0.793,-0.096
20.423,-0.611,0.791,-0.096
20.432,-0.604,0.791,-0.096
20.442,-0.607,0.791,-0.096
20.452,-0.611,0.789,-0.092
20.462,-0.609,0.793,-0.096
20.472,-0.609,0.797,-0.092
20.482,-0.615,0.795,-0.096
20.492,-0.613,0.795,-0.096
20.502,-0.613,0.797,-0.096
20.512,-0.611,0.793,-0.092
20.522,-0.609,0.791,-0.094
20.532,-0.607,0.789,-0.094
20.542,-0.607,0.791,-0.098
20.552,-0.609,0.793,-0.092
20.562,-0.611,0.791,-0.092
20.572,-0.615,0.791,-0.096
20.581,-0.615,0.795,-0.096
20.591,-0.625,0.789,-0.096
20.601,-0.619,0.789,-0.098
20.611,-0.617,0.789,-0.098
20.621,-0.619,0.787,-0.098
20.631,-0.617,0.791,-0.100
20.641,-0.617,0.789,-0.096
20.651,-0.615,0.791,-0.098
20.661,-0.617,0.791,-0.096
20.671,-0.615,0.789,-0.096
20.681,-0.613,0.785,-0.096
20.691,-0.611,0.785,-0.090
20.701,-0.607,0.791,-0.092
20.711,-0.609,0.787,-0.092
20.720,-0.609,0.781,-0.094
20.730,-0.609,0.787,-0.094
20.740,-0.613,0.791,-0.096
20.750,-0.623,0.791,-0.100
20.760,-0.625,0.793,-0.100
20.770,-0.625,0.793,-0.100
20.780,-0.627,0.797,-0.100
20.790,-0.625,0.793,-0.098
20.800,-0.627,0.795,-0.100
20.810,-0.623,0.787,-0.100
20.820,-0.621,0.783,-0.096
20.830,-0.621,0.781,-0.100
20.840,-0.625,0.779,-0.098
20.850,-0.621,0.779,-0.100
20.860,-0.619,0.783,-0.094
20.869,-0.613,0.787,-0.096
20.879,-0.613,0.785,-0.094
20.889,-0.613,0.787,-0.094
20.899,-0.607,0.791,-0.092
20.909,-0.611,0.791,-0.094
20.919,-0.611,0.789,-0.094
20.929,-0.609,0.791,-0.096
20.939,-0.611,0.789,-0.092
20.949,-0.613,0.793,-0.098
20.959,-0.615,0.791,-0.096
20.969,-0.615,0.793,-0.096
20.979,-0.619,0.795,-0.096
20.989,-0.617,0.793,-0.096
20.999,-0.615,0.795,-0.092
21.008,-0.613,0.791,-0.096
21.018,-0.615,0.789,-0.096
21.028,-0.617,0.793,-0.094
21.038,-0.613,0.783,-0.098
21.048,-0.619,0.783,-0.098
21.058,-0.619,0.787,-0.094
21.068,-0.619,0.793,-0.100
21.078,-0.625,0.793,-0.096
21.088,-0.623,0.793,-0.094
21.098,-0.621,0.793,-0.098
21.108,-0.627,0.791,-0.096
21.118,-0.627,0.789,-0.094
21.128,-0.621,0.791,-0.092
21.138,-0.621,0.785,-0.092
21.148,-0.617,0.787,-0.096
21.157,-0.617,0.785,-0.092
21.167,-0.613,0.781,-0.090
21.177,-0.609,0.781,-0.090
21.187,-0.609,0.779,-0.096
21.197,-0.617,0.779,-0.092
21.207,-0.619,0.785,-0.092
21.217,-0.617,0.787,-0.098
21.227,-0.617,0.791,-0.094
21.237,-0.619,0.793,-0.098
21.247,-0.617,0.795,-0.098
21.257,-0.617,0.795,-0.096
21.267,-0.617,0.789,-0.104
21.277,-0.615,0.791,-0.102
21.287,-0.615,0.787,-0.098
21.296,-0.615,0.785,-0.100
21.306,-0.615,0.789,-0.102
21.316,-0.617,0.791,-0.102
21.326,-0.617,0.793,-0.100
21.336,-0.615,0.795,-0.098
21.346,-0.621,0.787,-0.098
21.356,-0.617,0.791,-0.102
21.366,-0.615,0.791,-0.098
21.376,-0.619,0.791,-0.098
21.386,-0.617,0.789,-0.098
21.396,-0.617,0.789,-0.100
21.406,-0.615,0.785,-0.100
21.416,-0.615,0.787,-0.094
21.426,-0.617,0.787,-0.096
21.436,-0.621,0.785,-0.100
21.445,-0.621,0.787,-0.100
21.455,-0.623,0.789,-0.100
21.465,-0.623,0.787,-0.100
21.475,-0.623,0.787,-0.098
21.485,-0.621,0.791,-0.100
21.495,-0.613,0.791,-0.094
21.505,-0.615,0.789,-0.096
21.515,-0.617,0.787,-0.096
21.525,-0.613,0.789,-0.096
21.535,-0.615,0.785,-0.098
21.545,-0.615,0.787,-0.098
21.555,-0.617,0.789,-0.094
21.565,-0.615,0.785,-0.094
21.575,-0.615,0.785,-0.092
21.584,-0.613,0.783,-0.094
21.594,-0.613,0.783,-0.094
21.604,-0.615,0.785,-0.096
21.614,-0.617,0.785,-0.094
21.624,-0.619,0.793,-0.100
21.634,-0.619,0.789,-0.098
21.644,-0.619,0.791,-0.096
21.654,-0.619,0.795,-0.098
21.664,-0.621,0.797,-0.096
21.674,-0.619,0.793,-0.094
21.684,-0.619,0.791,-0.096
21.694,-0.621,0.785,-0.100
21.704,-0.623,0.787,-0.096
21.714,-0.621,0.783,-0.096
21.724,-0.619,0.785,-0.098
21.733,-0.619,0.783,-0.098
21.743,-0.619,0.785,-0.100
21.753,-0.613,0.787,-0.094
21.763,-0.613,0.787,-0.094
21.773,-0.615,0.787,-0.092
21.783,-0.619,0.787,-0.094
21.793,-0.613,0.789,-0.092
21.803,-0.611,0.787,-0.094
21.813,-0.615,0.783,-0.096
21.823,-0.613,0.789,-0.096
21.833,-0.615,0.789,-0.098
21.843,-0.619,0.789,-0.100
21.853,-0.615,0.789,-0.098
21.863,-0.617,0.791,-0.096
21.872,-0.619,0.791,-0.100
21.882,-0.615,0.795,-0.094
21.892,-0.615,0.787,-0.096
21.902,-0.621,0.785,-0.094
21.912,-0.613,0.785,-0.098
21.922,-0.617,0.779,-0.100
21.932,-0.621,0.785,-0.098
21.942,-0.621,0.783,-0.098
21.952,-0.617,0.791,-0.098
21.962,-0.621,0.793,-0.094
21.972,-0.621,0.795,-0.096
21.982,-0.625,0.795,-0.096
21.992,-0.623,0.791,-0.098
22.002,-0.623,0.785,-0.096
22.012,-0.621,0.787,-0.096
22.021,-0.621,0.785,-0.096
22.031,-0.617,0.783,-0.092
22.041,-0.619,0.779,-0.094
22.051,-0.615,0.783,-0.096
22.061,-0.615,0.783,-0.094
22.071,-0.617,0.783,-0.098
22.081,-0.617,0.787,-0.098
22.091,-0.615,0.789,-0.098
22.101,-0.617,0.791,-0.098
22.111,-0.619,0.793,-0.098
22.121,-0.617,0.793,-0.102
22.131,-0.617,0.793,-0.098
22.141,-0.617,0.791,-0.096
22.151,-0.615,0.795,-0.100
22.160,-0.615,0.791,-0.100
22.170,-0.613,0.791,-0.100
22.180,-0.609,0.791,-0.096
22.190,-0.611,0.785,-0.096
22.200,-0.613,0.789,-0.098
22.210,-0.611,0.787,-0.098
22.220,-0.617,0.787,-0.098
22.230,-0.617,0.787,-0.096
22.240,-0.619,0.785,-0.094
22.250,-0.621,0.793,-0.092
22.260,-0.619,0.793,-0.098
22.270,-0.619,0.789,-0.096
22.280,-0.617,0.787,-0.096
22.290,-0.619,0.789,-0.094
22.300,-0.615,0.787,-0.094
22.309,-0.613,0.787,-0.094
22.319,-0.613,0.785,-0.094
22.329,-0.615,0.785,-0.094
22.339,-0.615,0.787,-0.094
22.349,-0.615,0.791,-0.092
22.359,-0.615,0.787,-0.098
22.369,-0.619,0.789,-0.096
22.379,-0.617,0.791,-0.094
22.389,-0.619,0.791,-0.100
22.399,-0.617,0.793,-0.098
22.409,-0.613,0.789,-0.096
22.419,-0.619,0.787,-0.096
22.429,-0.615,0.791,-0.098
22.439,-0.617,0.789,-0.096
22.448,-0.619,0.793,-0.096
22.458,-0.617,0.793,-0.092
22.468,-0.615,0.791,-0.094
22.478,-0.609,0.789,-0.094
22.488,-0.613,0.783,-0.092
22.498,-0.615,0.783,-0.096
22.508,-0.615,0.783,-0.092
22.518,-0.615,0.783,-0.094
22.528,-0.619,0.785,-0.094
22.538,-0.617,0.787,-0.096
22.548,-0.617,0.791,-0.096
22.558,-0.619,0.797,-0.096
22.568,-0.617,0.801,-0.096
22.578,-0.621,0.801,-0.098
22.588,-0.623,0.795,-0.098
22.597,-0.619,0.791,-0.098
22.607,-0.619,0.787,-0.098
22.617,-0.619,0.783,-0.100
22.627,-0.621,0.781,-0.100
22.637,-0.619,0.783,-0.100
22.647,-0.615,0.787,-0.098
22.657,-0.615,0.791,-0.096
22.667,-0.615,0.791,-0.094
22.677,-0.617,0.791,-0.098
22.687,-0.615,0.787,-0.096
22.697,-0.615,0.789,-0.094
22.707,-0.611,0.787,-0.098
22.717,-0.615,0.785,-0.098
22.727,-0.613,0.789,-0.096
22.736,-0.609,0.791,-0.096
22.746,-0.615,0.789,-0.096
22.756,-0.611,0.789,-0.094
22.766,-0.615,0.791,-0.098
22.776,-0.617,0.793,-0.094
22.786,-0.611,0.791,-0.096
22.796,-0.613,0.791,-0.098
22.806,-0.615,0.789,-0.092
22.816,-0.609,0.793,-0.094
22.826,-0.611,0.787,-0.098
22.836,-0.615,0.791,-0.100
22.846,-0.613,0.791,-0.096
22.856,-0.617,0.791,-0.098
22.866,-0.621,0.791,-0.098
22.876,-0.617,0.791,-0.094
22.885,-0.621,0.793,-0.098
22.895,-0.621,0.795,-0.094
22.905,-0.617,0.789,-0.096
22.915,-0.617,0.793,-0.096
22.925,-0.617,0.787,-0.094
22.935,-0.617,0.789,-0.096
22.945,-0.613,0.785,-0.096
22.955,-0.615,0.783,-0.092
22.965,-0.613,0.787,-0.094
22.975,-0.613,0.783,-0.094
22.985,-0.617,0.785,-0.096
22.995,-0.619,0.791,-0.098
23.005,-0.613,0.789,-0.096
23.015,-0.615,0.789,-0.096
23.024,-0.617,0.791,-0.096
23.034,-0.617,0.791,-0.098
23.044,-0.615,0.793,-0.096
23.054,-0.617,0.793,-0.098
23.064,-0.613,0.795,-0.098
23.074,-0.615,0.791,-0.094
23.084,-0.613,0.789,-0.098
23.094,-0.613,0.793,-0.092
23.104,-0.611,0.787,-0.096
23.114,-0.617,0.789,-0.098
23.124,-0.617,0.789,-0.098
23.134,-0.611,0.789,-0.092
23.144,-0.623,0.789,-0.094
23.154,-0.617,0.789,-0.096
23.163,-0.619,0.793,-0.096
23.173,-0.621,0.791,-0.098
23.183,-0.619,0.789,-0.096
23.193,-0.617,0.791,-0.098
23.203,-0.619,0.789,-0.096
23.213,-0.617,0.787,-0.098
23.223,-0.615,0.793,-0.096
23.233,-0.613,0.793,-0.090
23.243,-0.615,0.787,-0.096
23.253,-0.615,0.787,-0.098
23.263,-0.613,0.789,-0.096
23.273,-0.617,0.785,-0.098
23.283,-0.615,0.789,-0.096
23.293,-0.613,0.793,-0.096
23.303,-0.617,0.793,-0.098
23.312,-0.619,0.791,-0.098
23.322,-0.619,0.793,-0.100
23.332,-0.617,0.789,-0.094
23.342,-0.617,0.789,-0.096
23.352,-0.617,0.785,-0.100
23.362,-0.613,0.789,-0.100
23.372,-0.615,0.789,-0.100
23.382,-0.617,0.787,-0.096
23.392,-0.617,0.795,-0.096
23.402,-0.617,0.795,-0.096
23.412,-0.617,0.793,-0.096
23.422,-0.611,0.789,-0.090
23.432,-0.611,0.789,-0.094
23.442,-0.611,0.785,-0.090
23.451,-0.613,0.785,-0.094
23.461,-0.615,0.785,-0.094
23.471,-0.613,0.787,-0.090
23.481,-0.615,0.785,-0.090
23.491,-0.617,0.789,-0.100
23.501,-0.621,0.795,-0.098
23.511,-0.621,0.797,-0.098
23.521,-0.623,0.795,-0.098
23.531,-0.621,0.797,-0.098
23.541,-0.619,0.793,-0.098
23.551,-0.623,0.783,-0.098
23.561,-0.619,0.787,-0.094
23.571,-0.613,0.785,-0.100
23.581,-0.613,0.785,-0.096
23.591,-0.615,0.789,-0.094
23.600,-0.613,0.791,-0.096
23.610,-0.611,0.791,-0.092
23.620,-0.613,0.791,-0.096
23.630,-0.615,0.791,-0.094
23.640,-0.613,0.791,-0.094
23.650,-0.615,0.787,-0.092
23.660,-0.615,0.787,-0.100
23.670,-0.617,0.789,-0.096
23.680,-0.617,0.791,-0.096
23.690,-0.613,0.791,-0.094
23.700,-0.615,0.793,-0.092
23.710,-0.611,0.795,-0.092
23.720,-0.615,0.795,-0.092
23.730,-0.615,0.791,-0.090
23.739,-0.611,0.791,-0.094
23.749,-0.617,0.787,-0.096
23.759,-0.611,0.789,-0.094
23.769,-0.613,0.785,-0.094
23.779,-0.617,0.785,-0.096
23.789,-0.617,0.789,-0.096
23.799,-0.617,0.793,-0.096
23.809,-0.619,0.793,-0.096
23.819,-0.613,0.795,-0.094
23.829,-0.617,0.793,-0.098
23.839,-0.621,0.791,-0.094
23.849,-0.621,0.793,-0.098
23.859,-0.623,0.791,-0.094
23.869,-0.619,0.789,-0.094
23.879,-0.623,0.785,-0.096
23.888,-0.619,0.787,-0.096
23.898,-0.623,0.785,-0.096
23.908,-0.617,0.781,-0.094
23.918,-0.619,0.785,-0.096
23.928,-0.619,0.787,-0.094
23.938,-0.613,0.789,-0.098
23.948,-0.613,0.789,-0.094
23.958,-0.615,0.793,-0.098
23.968,-0.617,0.793,-0.094
23.978,-0.615,0.795,-0.098
23.988,-0.617,0.791,-0.098
23.998,-0.619,0.793,-0.098
24.008,-0.615,0.791,-0.098
24.018,-0.617,0.789,-0.096
24.027,-0.617,0.789,-0.100
24.037,-0.617,0.789,-0.096
24.047,-0.613,0.787,-0.096
24.057,-0.617,0.789,-0.096
24.067,-0.611,0.791,-0.100
24.077,-0.615,0.789,-0.092
24.087,-0.619,0.789,-0.094
24.097,-0.611,0.791,-0.094
24.107,-0.613,0.789,-0.094
24.117,-0.615,0.789,-0.098
24.127,-0.615,0.791,-0.096
24.137,-0.619,0.785,-0.096
24.147,-0.623,0.789,-0.096
24.157,-0.617,0.789,-0.098
24.167,-0.621,0.789,-0.094
24.176,-0.617,0.787,-0.094
24.186,-0.617,0.791,-0.092
24.196,-0.615,0.791,-0.092
24.206,-0.613,0.793,-0.090
24.216,-0.611,0.785,-0.096
24.226,-0.617,0.785,-0.092
24.236,-0.615,0.787,-0.094
24.246,-0.617,0.785,-0.096
24.256,-0.619,0.789,-0.096
24.266,-0.619,0.791,-0.096
24.276,-0.619,0.791,-0.094
24.286,-0.623,0.789,-0.100
24.296,-0.619,0.791,-0.100
24.306,-0.623,0.789,-0.098
24.315,-0.625,0.789,-0.100
24.325,-0.619,0.789,-0.096
24.335,-0.619,0.787,-0.096
24.345,-0.617,0.789,-0.096
24.355,-0.615,0.789,-0.094
24.365,-0.621,0.791,-0.096
24.375,-0.613,0.791,-0.088
24.385,-0.609,0.793,-0.088
24.395,-0.613,0.785,-0.094
24.405,-0.615,0.785,-0.094
24.415,-0.613,0.785,-0.090
24.425,-0.619,0.785,-0.096
24.435,-0.615,0.785,-0.100
24.445,-0.617,0.787,-0.096
24.455,-0.619,0.791,-0.094
24.464,-0.621,0.793,-0.094
24.474,-0.619,0.795,-0.098
24.484,-0.619,0.793,-0.098
24.494,-0.623,0.793,-0.100
24.504,-0.621,0.791,-0.098
24.514,-0.621,0.785,-0.100
24.524,-0.617,0.783,-0.100
24.534,-0.621,0.783,-0.096
24.544,-0.621,0.783,-0.100
24.554,-0.619,0.785,-0.094
24.564,-0.617,0.789,-0.098
24.574,-0.617,0.791,-0.094
24.584,-0.617,0.793,-0.096
24.594,-0.615,0.791,-0.092
24.603,-0.611,0.785,-0.092
24.613,-0.615,0.785,-0.094
24.623,-0.611,0.787,-0.090
24.633,-0.617,0.789,-0.094
24.643,-0.621,0.785,-0.092
24.653,-0.621,0.789,-0.092
24.663,-0.621,0.791,-0.096
24.673,-0.625,0.789,-0.092
24.683,-0.621,0.789,-0.096
24.693,-0.619,0.787,-0.096
24.703,-0.619,0.785,-0.096
24.713,-0.619,0.787,-0.096
24.723,-0.615,0.791,-0.096
24.733,-0.615,0.789,-0.094
24.743,-0.615,0.787,-0.098
24.752,-0.619,0.789,-0.100
24.762,-0.617,0.791,-0.096
24.772,-0.619,0.793,-0.096
24.782,-0.621,0.793,-0.098
24.792,-0.617,0.797,-0.094
24.802,-0.615,0.791,-0.094
24.812,-0.617,0.789,-0.094
24.822,-0.621,0.785,-0.096
24.832,-0.619,0.783,-0.094
24.842,-0.619,0.785,-0.094
24.852,-0.617,0.781,-0.096
24.862,-0.617,0.785,-0.092
24.872,-0.617,0.781,-0.096
24.882,-0.615,0.785,-0.094
24.891,-0.613,0.787,-0.090
24.901,-0.615,0.789,-0.096
24.911,-0.615,0.789,-0.098
24.921,-0.619,0.791,-0.094
24.931,-0.619,0.795,-0.100
24.941,-0.619,0.791,-0.096
24.951,-0.621,0.791,-0.098
24.961,-0.623,0.787,-0.098
24.971,-0.621,0.791,-0.098
24.981,-0.619,0.789,-0.094
24.991,-0.623,0.789,-0.094
25.001,-0.617,0.789,-0.096
25.011,-0.617,0.787,-0.092
25.021,-0.615,0.785,-0.096
25.031,-0.615,0.789,-0.092
25.040,-0.613,0.787,-0.094
25.050,-0.617,0.787,-0.094
25.060,-0.619,0.789,-0.096
25.070,-0.621,0.787,-0.096
25.080,-0.625,0.789,-0.094
25.090,-0.625,0.785,-0.096
25.100,-0.621,0.787,-0.100
25.110,-0.623,0.791,-0.094
25.120,-0.619,0.785,-0.098
25.130,-0.617,0.793,-0.092
25.140,-0.619,0.789,-0.094
25.150,-0.615,0.789,-0.094
25.160,-0.615,0.791,-0.092
25.170,-0.615,0.789,-0.096
25.179,-0.611,0.787,-0.096
25.189,-0.615,0.787,-0.090
25.199,-0.619,0.787,-0.094
25.209,-0.615,0.791,-0.094
25.219,-0.619,0.787,-0.098
25.229,-0.621,0.789,-0.096
25.239,-0.619,0.791,-0.096
25.249,-0.617,0.791,-0.096
25.259,-0.619,0.791,-0.100
25.269,-0.617,0.789,-0.098
25.279,-0.619,0.787,-0.098
25.289,-0.621,0.785,-0.096
25.299,-0.617,0.789,-0.100
25.309,-0.621,0.787,-0.098
25.319,-0.619,0.793,-0.098
25.328,-0.619,0.791,-0.096
25.338,-0.613,0.791,-0.094
25.348,-0.609,0.787,-0.092
25.358,-0.613,0.785,-0.094
25.368,-0.617,0.779,-0.096
25.378,-0.613,0.785,-0.090
25.388,-0.615,0.785,-0.096
25.398,-0.621,0.785,-0.098
25.408,-0.621,0.791,-0.096
25.418,-0.623,0.795,-0.094
25.428,-0.623,0.799,-0.094
25.438,-0.621,0.795,-0.096
25.448,-0.621,0.793,-0.094
25.458,-0.621,0.789,-0.102
25.467,-0.623,0.787,-0.100
25.477,-0.623,0.779,-0.100
25.487,-0.619,0.785,-0.098
25.497,-0.615,0.785,-0.094
25.507,-0.617,0.787,-0.094
25.517,-0.617,0.787,-0.096
25.527,-0.611,0.789,-0.094
25.537,-0.617,0.787,-0.092
25.547,-0.617,0.789,-0.096
25.557,-0.617,0.791,-0.090
25.567,-0.621,0.787,-0.094
25.577,-0.617,0.789,-0.094
25.587,-0.617,0.787,-0.096
25.597,-0.615,0.787,-0.096
25.607,-0.621,0.785,-0.094
25.616,-0.617,0.791,-0.096
25.626,-0.619,0.789,-0.094
25.636,-0.617,0.791,-0.098
25.646,-0.619,0.789,-0.096
25.656,-0.613,0.791,-0.096
25.666,-0.615,0.787,-0.092
25.676,-0.615,0.789,-0.094
25.686,-0.611,0.785,-0.092
25.696,-0.619,0.787,-0.096
25.706,-0.619,0.787,-0.098
25.716,-0.617,0.795,-0.094
25.726,-0.621,0.793,-0.098
25.736,-0.613,0.795,-0.094
25.746,-0.623,0.791,-0.096
25.755,-0.617,0.793,-0.094
25.765,-0.617,0.791,-0.096
25.775,-0.623,0.789,-0.092
25.785,-0.621,0.785,-0.092
25.795,-0.619,0.785,-0.094
25.805,-0.619,0.787,-0.096
25.815,-0.619,0.783,-0.096
25.825,-0.623,0.783,-0.092
25.835,-0.619,0.785,-0.096
25.845,-0.617,0.781,-0.096
25.855,-0.619,0.787,-0.098
25.865,-0.617,0.789,-0.098
25.875,-0.617,0.789,-0.098
25.885,-0.619,0.791,-0.100
25.895,-0.619,0.795,-0.100
25.904,-0.619,0.791,-0.094
25.914,-0.619,0.791,-0.098
25.924,-0.619,0.789,-0.096
25.934,-0.619,0.787,-0.096
25.944,-0.619,0.785,-0.098
25.954,-0.619,0.789,-0.094
25.964,-0.619,0.785,-0.098
25.974,-0.619,0.789,-0.096
25.984,-0.617,0.789,-0.096
25.994,-0.615,0.785,-0.096
26.004,-0.619,0.789,-0.094
26.014,-0.617,0.789,-0.098
26.024,-0.613,0.791,-0.094
26.034,-0.617,0.787,-0.098
26.043,-0.619,0.789,-0.094
26.053,-0.619,0.789,-0.096
26.063,-0.619,0.785,-0.094
26.073,-0.619,0.789,-0.094
26.083,-0.617,0.791,-0.094
26.093,-0.619,0.787,-0.096
26.103,-0.615,0.789,-0.096
26.113,-0.615,0.787,-0.096
26.123,-0.615,0.789,-0.092
26.133,-0.615,0.789,-0.098
26.143,-0.615,0.789,-0.092
26.153,-0.617,0.791,-0.092
26.163,-0.619,0.791,-0.096
26.173,-0.621,0.791,-0.096
26.183,-0.619,0.785,-0.096
26.192,-0.619,0.787,-0.098
26.202,-0.623,0.787,-0.094
26.212,-0.621,0.789,-0.098
26.222,-0.623,0.785,-0.098
26.232,-0.623,0.787,-0.098
26.242,-0.623,0.793,-0.096
26.252,-0.615,0.789,-0.092
26.262,-0.615,0.789,-0.090
26.272,-0.615,0.789,-0.088
26.282,-0.611,0.783,-0.090
26.292,-0.613,0.783,-0.092
26.302,-0.617,0.783,-0.092
26.312,-0.613,0.785,-0.094
26.322,-0.617,0.787,-0.096
26.331,-0.621,0.789,-0.096
26.341,-0.621,0.793,-0.096
26.351,-0.621,0.795,-0.094
26.361,-0.623,0.795,-0.096
26.371,-0.627,0.793,-0.100
26.381,-0.625,0.785,-0.100
26.391,-0.623,0.787,-0.096
26.401,-0.621,0.783,-0.098
26.411,-0.621,0.785,-0.098
26.421,-0.617,0.789,-0.094
26.431,-0.615,0.785,-0.096
26.441,-0.613,0.787,-0.090
26.451,-0.615,0.789,-0.096
26.461,-0.609,0.791,-0.096
26.471,-0.615,0.791,-0.094
26.480,-0.619,0.789,-0.096
26.490,-0.619,0.789,-0.098
26.500,-0.619,0.787,-0.098
26.510,-0.617,0.789,-0.098
26.520,-0.615,0.789,-0.096
26.530,-0.617,0.787,-0.096
26.540,-0.617,0.787,-0.096
26.550,-0.615,0.789,-0.092
26.560,-0.619,0.789,-0.096
26.570,-0.613,0.791,-0.094
26.580,-0.611,0.789,-0.096
26.590,-0.611,0.787,-0.092
26.600,-0.617,0.783,-0.090
26.610,-0.617,0.783,-0.096
26.619,-0.619,0.785,-0.096
26.629,-0.621,0.781,-0.098
26.639,-0.617,0.793,-0.100
26.649,-0.621,0.795,-0.098
26.659,-0.623,0.795,-0.100
26.669,-0.619,0.793,-0.094
26.679,-0.619,0.791,-0.094
26.689,-0.627,0.791,-0.098
26.699,-0.627,0.787,-0.098
26.709,-0.627,0.783,-0.094
26.719,-0.627,0.783,-0.098
26.729,-0.625,0.781,-0.098
26.739,-0.623,0.783,-0.094
26.749,-0.619,0.783,-0.094
26.759,-0.619,0.785,-0.094
26.768,-0.621,0.785,-0.092
26.778,-0.617,0.785,-0.092
26.788,-0.611,0.789,-0.094
26.798,-0.617,0.787,-0.096
26.808,-0.619,0.787,-0.098
26.818,-0.619,0.791,-0.100
26.828,-0.621,0.791,-0.096
26.838,-0.617,0.791,-0.096
26.848,-0.617,0.793,-0.096
26.858,-0.617,0.793,-0.100
26.868,-0.615,0.787,-0.096
26.878,-0.615,0.787,-0.098
26.888,-0.609,0.787,-0.096
26.898,-0.613,0.791,-0.092
26.907,-0.613,0.789,-0.094
26.917,-0.613,0.793,-0.094
26.927,-0.617,0.787,-0.096
26.937,-0.617,0.787,-0.094
26.947,-0.619,0.791,-0.096
26.957,-0.619,0.789,-0.098
26.967,-0.621,0.787,-0.096
26.977,-0.619,0.789,-0.096
26.987,-0.617,0.791,-0.094
26.997,-0.615,0.787,-0.096
27.007,-0.619,0.787,-0.094
27.017,-0.617,0.787,-0.096
27.027,-0.617,0.789,-0.094
27.037,-0.617,0.791,-0.096
27.047,-0.617,0.791,-0.096
27.056,-0.619,0.791,-0.098
27.066,-0.623,0.787,-0.094
27.076,-0.619,0.789,-0.096
27.086,-0.619,0.787,-0.094
27.096,-0.619,0.787,-0.098
27.106,-0.619,0.783,-0.092
27.116,-0.621,0.785,-0.100
27.126,-0.619,0.787,-0.096
27.136,-0.619,0.789,-0.096
27.146,-0.623,0.789,-0.096
27.156,-0.615,0.791,-0.094
27.166,-0.613,0.789,-0.094
27.176,-0.611,0.787,-0.092
27.186,-0.611,0.787,-0.094
27.195,-0.613,0.785,-0.096
27.205,-0.613,0.783,-0.094
27.215,-0.617,0.787,-0.094
27.225,-0.621,0.787,-0.096
27.235,-0.619,0.791,-0.096
27.245,-0.621,0.793,-0.096
27.255,-0.625,0.801,-0.098
27.265,-0.621,0.801,-0.098
27.275,-0.621,0.795,-0.100
27.285,-0.621,0.793,-0.100
27.295,-0.621,0.785,-0.098
27.305,-0.621,0.781,-0.096
27.315,-0.619,0.779,-0.100
27.325,-0.619,0.785,-0.098
27.335,-0.617,0.783,-0.094
27.344,-0.615,0.785,-0.094
27.354,-0.615,0.791,-0.094
27.364,-0.615,0.795,-0.096
27.374,-0.615,0.789,-0.096
27.384,-0.615,0.791,-0.094
27.394,-0.615,0.787,-0.096
27.404,-0.617,0.787,-0.098
27.414,-0.615,0.791,-0.096
27.424,-0.615,0.789,-0.094
27.434,-0.615,0.787,-0.096
27.444,-0.619,0.789,-0.094
27.454,-0.617,0.791,-0.096
27.464,-0.613,0.793,-0.096
27.474,-0.617,0.789,-0.096
27.483,-0.615,0.787,-0.096
27.493,-0.617,0.789,-0.092
27.503,-0.613,0.789,-0.090
27.513,-0.611,0.787,-0.094
27.523,-0.619,0.785,-0.094
27.533,-0.617,0.785,-0.096
27.543,-0.619,0.791,-0.094
27.553,-0.617,0.795,-0.096
27.563,-0.621,0.793,-0.094
27.573,-0.623,0.797,-0.100
27.583,-0.621,0.793,-0.094
27.593,-0.625,0.791,-0.094
27.603,-0.623,0.787,-0.096
27.613,-0.619,0.787,-0.096
27.623,-0.617,0.787,-0.094
27.632,-0.619,0.787,-0.096
27.642,-0.613,0.787,-0.094
27.652,-0.613,0.785,-0.094
27.662,-0.613,0.783,-0.094
27.672,-0.615,0.785,-0.094
27.682,-0.615,0.787,-0.096
27.692,-0.617,0.785,-0.098
27.702,-0.619,0.789,-0.096
27.712,-0.621,0.787,-0.096
27.722,-0.623,0.791,-0.098
27.732,-0.619,0.791,-0.100
27.742,-0.621,0.795,-0.098
27.752,-0.617,0.791,-0.098
27.762,-0.617,0.793,-0.098
27.771,-0.617,0.789,-0.094
27.781,-0.617,0.789,-0.094
27.791,-0.619,0.785,-0.096
27.801,-0.615,0.787,-0.096
27.811,-0.619,0.787,-0.096
27.821,-0.621,0.795,-0.094
27.831,-0.623,0.791,-0.098
27.841,-0.621,0.791,-0.092
27.851,-0.619,0.789,-0.092
27.861,-0.611,0.787,-0.090
27.871,-0.613,0.791,-0.096
27.881,-0.615,0.789,-0.098
27.891,-0.615,0.789,-0.094
27.901,-0.613,0.793,-0.096
27.910,-0.615,0.795,-0.098
27.920,-0.617,0.789,-0.096
27.930,-0.617,0.789,-0.096
27.940,-0.619,0.789,-0.094
27.950,-0.619,0.789,-0.098
27.960,-0.619,0.791,-0.096
27.970,-0.619,0.785,-0.100
27.980,-0.621,0.787,-0.096
27.990,-0.615,0.787,-0.098
28.000,-0.615,0.791,-0.098
28.010,-0.615,0.787,-0.096
28.020,-0.613,0.789,-0.098
28.030,-0.613,0.781,-0.094
28.040,-0.609,0.785,-0.094
28.050,-0.611,0.785,-0.092
28.059,-0.613,0.785,-0.096
28.069,-0.611,0.785,-0.098
28.079,-0.615,0.785,-0.096
28.089,-0.617,0.795,-0.100
28.099,-0.621,0.797,-0.098
28.109,-0.621,0.797,-0.102
28.119,-0.619,0.793,-0.098
28.129,-0.619,0.795,-0.098
28.139,-0.621,0.793,-0.096
28.149,-0.619,0.791,-0.096
28.159,-0.617,0.791,-0.096
28.169,-0.621,0.787,-0.096
28.179,-0.623,0.785,-0.096
28.189,-0.617,0.785,-0.094
28.198,-0.615,0.785,-0.094
28.208,-0.617,0.781,-0.096
28.218,-0.617,0.785,-0.096
28.228,-0.613,0.789,-0.096
28.238,-0.615,0.789,-0.092
28.248,-0.613,0.791,-0.094
28.258,-0.617,0.791,-0.098
28.268,-0.621,0.791,-0.096
28.278,-0.617,0.789,-0.096
28.288,-0.615,0.787,-0.100
28.298,-0.615,0.787,-0.098
28.308,-0.619,0.787,-0.100
28.318,-0.617,0.793,-0.098
28.328,-0.615,0.791,-0.100
28.338,-0.615,0.791,-0.098
28.347,-0.611,0.795,-0.094
28.357,-0.609,0.795,-0.096
28.367,-0.609,0.787,-0.094
28.377,-0.609,0.789,-0.094
28.387,-0.607,0.789,-0.094
28.397,-0.613,0.787,-0.098
28.407,-0.615,0.789,-0.098
28.417,-0.615,0.793,-0.100
28.427,-0.619,0.795,-0.096
28.437,-0.621,0.797,-0.098
28.447,-0.617,0.801,-0.094
28.457,-0.621,0.797,-0.096
28.467,-0.617,0.789,-0.094
28.477,-0.619,0.783,-0.096
28.486,-0.615,0.785,-0.092
28.496,-0.615,0.789,-0.094
28.506,-0.613,0.781,-0.096
28.516,-0.611,0.785,-0.098
28.526,-0.611,0.785,-0.098
28.536,-0.613,0.785,-0.096
28.546,-0.613,0.785,-0.094
28.556,-0.615,0.789,-0.096
28.566,-0.615,0.793,-0.096
28.576,-0.619,0.791,-0.098
28.586,-0.617,0.791,-0.098
28.596,-0.621,0.791,-0.102
28.606,-0.617,0.789,-0.098
28.616,-0.619,0.791,-0.100
28.626,-0.615,0.791,-0.102
28.635,-0.615,0.793,-0.100
28.645,-0.613,0.791,-0.100
28.655,-0.617,0.791,-0.100
28.665,-0.611,0.793,-0.098
28.675,-0.611,0.791,-0.098
28.685,-0.615,0.789,-0.098
28.695,-0.617,0.793,-0.098
28.705,-0.615,0.791,-0.100
28.715,-0.617,0.787,-0.100
28.725,-0.615,0.791,-0.098
28.735,-0.615,0.793,-0.100
28.745,-0.621,0.787,-0.102
28.755,-0.619,0.793,-0.098
28.765,-0.621,0.787,-0.094
28.774,-0.619,0.791,-0.096
28.784,-0.617,0.789,-0.098
28.794,-0.617,0.785,-0.094
28.804,-0.609,0.783,-0.096
28.814,-0.611,0.785,-0.096
28.824,-0.613,0.783,-0.100
28.834,-0.607,0.783,-0.096
28.844,-0.607,0.787,-0.092
28.854,-0.607,0.791,-0.090
28.864,-0.607,0.797,-0.092
28.874,-0.607,0.791,-0.094
28.884,-0.613,0.783,-0.096
28.894,-0.615,0.785,-0.100
28.904,-0.615,0.791,-0.098
28.914,-0.623,0.789,-0.102
28.923,-0.619,0.795,-0.098
28.933,-0.619,0.795,-0.100
28.943,-0.619,0.801,-0.096
28.953,-0.621,0.801,-0.100
28.963,-0.617,0.789,-0.098
28.973,-0.615,0.787,-0.098
28.983,-0.617,0.787,-0.098
28.993,-0.617,0.785,-0.100
29.003,-0.619,0.787,-0.102
29.013,-0.617,0.787,-0.100
29.023,-0.617,0.785,-0.096
29.033,-0.617,0.785,-0.098
29.043,-0.611,0.797,-0.094
29.053,-0.615,0.791,-0.094
29.062,-0.613,0.789,-0.096
29.072,-0.611,0.789,-0.094
29.082,-0.613,0.791,-0.098
29.092,-0.615,0.789,-0.094
29.102,-0.613,0.793,-0.094
29.112,-0.615,0.791,-0.096
29.122,-0.617,0.791,-0.098
29.132,-0.619,0.793,-0.096
29.142,-0.613,0.793,-0.100
29.152,-0.619,0.793,-0.098
29.162,-0.613,0.791,-0.092
29.172,-0.613,0.785,-0.092
29.182,-0.617,0.783,-0.094
29.192,-0.613,0.789,-0.096
29.202,-0.613,0.779,-0.098
29.211,-0.617,0.777,-0.100
29.221,-0.617,0.787,-0.096
29.231,-0.619,0.795,-0.096
29.241,-0.617,0.795,-0.098
29.251,-0.623,0.799,-0.098
29.261,-0.623,0.805,-0.098
29.271,-0.619,0.801,-0.096
29.281,-0.625,0.793,-0.098
29.291,-0.621,0.785,-0.098
29.301,-0.621,0.785,-0.096
29.311,-0.617,0.783,-0.096
29.321,-0.617,0.781,-0.092
29.331,-0.617,0.785,-0.092
29.341,-0.615,0.785,-0.092
29.350,-0.615,0.787,-0.092
29.360,-0.613,0.789,-0.092
29.370,-0.617,0.793,-0.098
29.380,-0.615,0.793,-0.100
29.390,-0.615,0.789,-0.100
29.400,-0.619,0.787,-0.094
29.410,-0.621,0.789,-0.100
29.420,-0.617,0.791,-0.100
29.430,-0.619,0.793,-0.100
29.440,-0.615,0.795,-0.096
29.450,-0.613,0.793,-0.100
29.460,-0.613,0.791,-0.096
29.470,-0.611,0.793,-0.096
29.480,-0.609,0.795,-0.100
29.490,-0.611,0.791,-0.098
29.499,-0.611,0.793,-0.094
29.509,-0.615,0.787,-0.098
29.519,-0.613,0.789,-0.102
29.529,-0.617,0.789,-0.104
29.539,-0.623,0.791,-0.100
29.549,-0.621,0.787,-0.104
29.559,-0.619,0.793,-0.098
29.569,-0.621,0.791,-0.100
29.579,-0.619,0.797,-0.100
29.589,-0.623,0.793,-0.098
29.599,-0.621,0.789,-0.098
29.609,-0.617,0.795,-0.100
29.619,-0.613,0.787,-0.096
29.629,-0.617,0.783,-0.098
29.638,-0.619,0.783,-0.090
29.648,-0.611,0.785,-0.096
29.658,-0.615,0.783,-0.092
29.668,-0.613,0.783,-0.092
29.678,-0.609,0.789,-0.092
29.688,-0.613,0.791,-0.092
29.698,-0.615,0.789,-0.098
29.708,-0.619,0.789,-0.094
29.718,-0.617,0.791,-0.096
29.728,-0.619,0.789,-0.098
29.738,-0.621,0.789,-0.102
29.748,-0.623,0.793,-0.098
29.758,-0.623,0.801,-0.098
29.768,-0.627,0.797,-0.100
29.778,-0.625,0.793,-0.102
29.787,-0.621,0.797,-0.100
29.797,-0.621,0.787,-0.100
29.807,-0.623,0.781,-0.102
29.817,-0.619,0.787,-0.102
29.827,-0.619,0.783,-0.098
29.837,-0.617,0.781,-0.098
29.847,-0.611,0.789,-0.094
29.857,-0.615,0.785,-0.096
29.867,-0.615,0.785,-0.092
29.877,-0.615,0.787,-0.096
29.887,-0.619,0.789,-0.096
29.897,-0.619,0.791,-0.096
29.907,-0.615,0.789,-0.098
29.917,-0.619,0.789,-0.098
29.926,-0.613,0.787,-0.096
29.936,-0.615,0.795,-0.098
29.946,-0.615,0.793,-0.100
29.956,-0.613,0.793,-0.100
29.966,-0.617,0.793,-0.098
29.976,-0.615,0.797,-0.100
29.986,-0.611,0.791,-0.096
29.996,-0.613,0.787,-0.100
30.006,-0.615,0.789,-0.098
30.016,-0.613,0.793,-0.098
30.026,-0.613,0.785,-0.094
30.036,-0.615,0.791,-0.098
30.046,-0.617,0.791,-0.096
30.056,-0.619,0.795,-0.096
30.066,-0.619,0.795,-0.100
30.075,-0.617,0.793,-0.096
30.085,-0.621,0.795,-0.094
30.095,-0.621,0.791,-0.098
30.105,-0.619,0.789,-0.094
30.115,-0.619,0.787,-0.094
30.125,-0.621,0.787,-0.096
30.135,-0.623,0.781,-0.096
30.145,-0.619,0.785,-0.094
30.155,-0.621,0.779,-0.094
30.165,-0.619,0.785,-0.094
30.175,-0.615,0.785,-0.094
30.185,-0.617,0.785,-0.096
30.195,-0.613,0.787,-0.098
30.205,-0.611,0.791,-0.094
30.214,-0.613,0.795,-0.096
30.224,-0.619,0.791,-0.098
30.234,-0.617,0.795,-0.100
30.244,-0.617,0.789,-0.102
30.254,-0.619,0.791,-0.096
30.264,-0.615,0.793,-0.098
30.274,-0.615,0.791,-0.098
30.284,-0.615,0.793,-0.100
30.294,-0.613,0.791,-0.096
30.304,-0.613,0.791,-0.098
30.314,-0.611,0.791,-0.098
30.324,-0.613,0.789,-0.100
30.334,-0.615,0.789,-0.098
30.344,-0.617,0.791,-0.100
30.354,-0.621,0.791,-0.096
30.363,-0.615,0.793,-0.098
30.373,-0.617,0.789,-0.098
30.383,-0.615,0.791,-0.098
30.393,-0.611,0.789,-0.094
30.403,-0.613,0.787,-0.096
30.413,-0.611,0.787,-0.094
30.423,-0.611,0.791,-0.094
30.433,-0.613,0.787,-0.094
30.443,-0.613,0.795,-0.098
30.453,-0.617,0.789,-0.100
30.463,-0.619,0.787,-0.096
30.473,-0.619,0.793,-0.100
30.483,-0.621,0.789,-0.094
30.493,-0.621,0.785,-0.100
30.502,-0.619,0.789,-0.098
30.512,-0.619,0.787,-0.098
30.522,-0.615,0.787,-0.100
30.532,-0.617,0.791,-0.096
30.542,-0.619,0.789,-0.096
30.552,-0.613,0.791,-0.092
30.562,-0.611,0.789,-0.092
30.572,-0.613,0.789,-0.092
30.582,-0.617,0.785,-0.094
30.592,-0.617,0.785,-0.096
30.602,-0.615,0.787,-0.096
30.612,-0.619,0.785,-0.098
30.622,-0.617,0.789,-0.098
30.632,-0.621,0.791,-0.096
30.642,-0.621,0.793,-0.102
30.651,-0.619,0.801,-0.096
30.661,-0.619,0.795,-0.094
30.671,-0.623,0.797,-0.100
30.681,-0.619,0.791,-0.098
30.691,-0.621,0.789,-0.100
30.701,-0.621,0.785,-0.096
30.711,-0.615,0.787,-0.096
30.721,-0.619,0.783,-0.096
30.731,-0.613,0.783,-0.096
30.741,-0.611,0.785,-0.096
30.751,-0.613,0.785,-0.096
30.761,-0.615,0.787,-0.094
30.771,-0.611,0.787,-0.096
30.781,-0.615,0.785,-0.096
30.790,-0.619,0.791,-0.096
30.800,-0.617,0.791,-0.098
30.810,-0.617,0.789,-0.096
30.820,-0.619,0.789,-0.098
30.830,-0.617,0.793,-0.098
30.840,-0.613,0.793,-0.096
30.850,-0.617,0.787,-0.096
30.860,-0.617,0.795,-0.098
30.870,-0.609,0.791,-0.096
30.880,-0.615,0.783,-0.096
30.890,-0.611,0.791,-0.096
30.900,-0.613,0.791,-0.094
30.910,-0.619,0.789,-0.094
30.920,-0.617,0.787,-0.096
30.930,-0.621,0.791,-0.096
30.939,-0.619,0.793,-0.094
30.949,-0.621,0.791,-0.094
30.959,-0.621,0.789,-0.100
30.969,-0.621,0.793,-0.096
30.979,-0.617,0.791,-0.094
30.989,-0.619,0.793,-0.096
30.999,-0.615,0.795,-0.096
31.009,-0.621,0.789,-0.094
31.019,-0.621,0.783,-0.096
31.029,-0.613,0.789,-0.096
31.039,-0.617,0.783,-0.098
31.049,-0.619,0.783,-0.096
31.059,-0.615,0.787,-0.098
31.069,-0.615,0.787,-0.096
31.078,-0.617,0.789,-0.098
31.088,-0.615,0.789,-0.098
31.098,-0.615,0.793,-0.100
31.108,-0.617,0.793,-0.098
31.118,-0.617,0.793,-0.098
31.128,-0.617,0.793,-0.100
31.138,-0.615,0.791,-0.102
31.148,-0.615,0.795,-0.098
31.158,-0.617,0.793,-0.098
31.168,-0.615,0.787,-0.098
31.178,-0.615,0.789,-0.096
31.188,-0.615,0.787,-0.096
31.198,-0.617,0.787,-0.096
31.208,-0.615,0.789,-0.096
31.218,-0.619,0.789,-0.094
31.227,-0.617,0.791,-0.094
31.237,-0.621,0.789,-0.098
31.247,-0.621,0.785,-0.100
31.257,-0.617,0.789,-0.100
31.267,-0.617,0.787,-0.096
31.277,-0.619,0.789,-0.100
31.287,-0.615,0.791,-0.100
31.297,-0.617,0.789,-0.094
31.307,-0.615,0.789,-0.096
31.317,-0.617,0.785,-0.098
31.327,-0.615,0.787,-0.096
31.337,-0.615,0.789,-0.098
31.347,-0.611,0.787,-0.096
31.357,-0.615,0.787,-0.094
31.366,-0.613,0.789,-0.094
31.376,-0.615,0.791,-0.096
31.386,-0.615,0.791,-0.094
31.396,-0.617,0.791,-0.098
31.406,-0.619,0.789,-0.098
31.416,-0.619,0.789,-0.102
31.426,-0.621,0.791,-0.104
31.436,-0.617,0.791,-0.098
31.446,-0.619,0.793,-0.100
31.456,-0.623,0.787,-0.100
31.466,-0.623,0.791,-0.098
31.476,-0.619,0.787,-0.098
31.486,-0.619,0.791,-0.096
31.496,-0.619,0.791,-0.098
31.506,-0.619,0.791,-0.092
31.515,-0.611,0.793,-0.090
31.525,-0.609,0.783,-0.094
31.535,-0.617,0.785,-0.092
31.545,-0.615,0.785,-0.092
31.555,-0.615,0.785,-0.094
31.565,-0.617,0.785,-0.092
31.575,-0.617,0.785,-0.096
31.585,-0.625,0.787,-0.100
31.595,-0.625,0.791,-0.100
31.605,-0.619,0.797,-0.102
31.615,-0.621,0.799,-0.096
31.625,-0.619,0.801,-0.100
31.635,-0.617,0.797,-0.098
31.645,-0.615,0.793,-0.100
31.654,-0.613,0.791,-0.096
31.664,-0.611,0.785,-0.100
31.674,-0.609,0.785,-0.096
31.684,-0.613,0.789,-0.096
31.694,-0.613,0.787,-0.096
31.704,-0.613,0.789,-0.098
31.714,-0.617,0.789,-0.098
31.724,-0.617,0.791,-0.096
31.734,-0.617,0.791,-0.098
31.744,-0.615,0.791,-0.096
31.754,-0.615,0.791,-0.098
31.764,-0.613,0.787,-0.100
31.774,-0.613,0.789,-0.096
31.784,-0.613,0.789,-0.100
31.794,-0.615,0.787,-0.100
31.803,-0.613,0.793,-0.098
31.813,-0.613,0.793,-0.096
31.823,-0.613,0.791,-0.098
31.833,-0.611,0.793,-0.100
31.843,-0.609,0.789,-0.098
31.853,-0.613,0.791,-0.100
31.863,-0.611,0.791,-0.098
31.873,-0.613,0.785,-0.100
31.883,-0.615,0.791,-0.100
31.893,-0.619,0.793,-0.098
31.903,-0.617,0.795,-0.098
31.913,-0.615,0.789,-0.094
31.923,-0.615,0.787,-0.096
31.933,-0.619,0.791,-0.100
31.942,-0.619,0.789,-0.100
31.952,-0.625,0.787,-0.100
31.962,-0.617,0.787,-0.098
31.972,-0.619,0.783,-0.100
31.982,-0.617,0.791,-0.098
31.992,-0.611,0.791,-0.098
32.002,-0.611,0.791,-0.096
32.012,-0.613,0.791,-0.098
32.022,-0.609,0.791,-0.098
32.032,-0.607,0.793,-0.096
32.042,-0.607,0.797,-0.096
32.052,-0.611,0.791,-0.098
32.062,-0.613,0.795,-0.100
32.072,-0.617,0.787,-0.102
32.082,-0.623,0.789,-0.102
32.091,-0.619,0.785,-0.102
32.101,-0.623,0.779,-0.098
32.111,-0.609,0.787,-0.096
32.121,-0.613,0.789,-0.092
32.131,-0.621,0.789,-0.098
32.141,-0.617,0.789,-0.094
32.151,-0.621,0.789,-0.094
32.161,-0.625,0.783,-0.100
32.171,-0.623,0.783,-0.096
32.181,-0.625,0.783,-0.098
32.191,-0.623,0.785,-0.096
32.201,-0.623,0.793,-0.098
32.211,-0.621,0.789,-0.098
32.221,-0.623,0.793,-0.096
32.230,-0.623,0.793,-0.096
32.240,-0.621,0.787,-0.100
32.250,-0.619,0.789,-0.098
32.260,-0.617,0.785,-0.096
32.270,-0.615,0.785,-0.096
32.280,-0.615,0.789,-0.094
32.290,-0.615,0.789,-0.096
32.300,-0.613,0.789,-0.096
32.310,-0.617,0.785,-0.098
32.320,-0.621,0.787,-0.098
32.330,-0.613,0.787,-0.098
32.340,-0.613,0.789,-0.096
32.350,-0.619,0.783,-0.098
32.360,-0.619,0.791,-0.100
32.370,-0.617,0.793,-0.098
32.379,-0.621,0.791,-0.100
32.389,-0.625,0.787,-0.100
32.399,-0.623,0.793,-0.102
32.409,-0.627,0.787,-0.102
32.419,-0.619,0.787,-0.098
32.429,-0.617,0.789,-0.098
32.439,-0.619,0.787,-0.098
32.449,-0.617,0.789,-0.098
32.459,-0.617,0.791,-0.096
32.469,-0.617,0.793,-0.098
32.479,-0.615,0.791,-0.090
32.489,-0.611,0.789,-0.092
32.499,-0.611,0.789,-0.094
32.509,-0.615,0.785,-0.096
32.518,-0.615,0.781,-0.096
32.528,-0.615,0.781,-0.096
32.538,-0.621,0.779,-0.098
32.548,-0.625,0.785,-0.098
32.558,-0.621,0.793,-0.096
32.568,-0.625,0.793,-0.098
32.578,-0.625,0.799,-0.098
32.588,-0.621,0.797,-0.098
32.598,-0.623,0.793,-0.100
32.608,-0.621,0.791,-0.100
32.618,-0.623,0.785,-0.102
32.628,-0.623,0.783,-0.102
32.638,-0.621,0.787,-0.096
32.648,-0.615,0.787,-0.100
32.657,-0.621,0.785,-0.100
32.667,-0.613,0.789,-0.096
32.677,-0.617,0.787,-0.096
32.687,-0.613,0.787,-0.098
32.697,-0.617,0.787,-0.096
32.707,-0.619,0.789,-0.096
32.717,-0.617,0.785,-0.096
32.727,-0.619,0.785,-0.098
32.737,-0.613,0.793,-0.098
32.747,-0.615,0.789,-0.096
32.757,-0.615,0.787,-0.098
32.767,-0.613,0.791,-0.094
32.777,-0.615,0.787,-0.098
32.787,-0.617,0.789,-0.096
32.797,-0.613,0.793,-0.098
32.806,-0.611,0.789,-0.102
32.816,-0.613,0.789,-0.098
32.826,-0.611,0.795,-0.098
32.836,-0.609,0.793,-0.096
32.846,-0.613,0.787,-0.100
32.856,-0.621,0.783,-0.100
32.866,-0.617,0.791,-0.098
32.876,-0.621,0.791,-0.100
32.886,-0.621,0.789,-0.096
32.896,-0.617,0.791,-0.098
32.906,-0.617,0.791,-0.096
32.916,-0.619,0.787,-0.094
32.926,-0.623,0.783,-0.098
32.936,-0.623,0.783,-0.094
32.945,-0.621,0.781,-0.092
32.955,-0.625,0.779,-0.098
32.965,-0.627,0.783,-0.096
32.975,-0.627,0.783,-0.096
32.985,-0.625,0.785,-0.100
32.995,-0.619,0.787,-0.092
33.005,-0.623,0.787,-0.100
33.015,-0.625,0.789,-0.096
33.025,-0.623,0.789,-0.096
33.035,-0.621,0.787,-0.098
33.045,-0.625,0.785,-0.096
33.055,-0.625,0.787,-0.100
33.065,-0.625,0.789,-0.098
33.075,-0.621,0.791,-0.098
33.085,-0.621,0.789,-0.096
33.094,-0.619,0.787,-0.098
33.104,-0.615,0.785,-0.096
33.114,-0.617,0.785,-0.096
33.124,-0.617,0.787,-0.100
33.134,-0.615,0.789,-0.096
33.144,-0.619,0.789,-0.102
33.154,-0.619,0.791,-0.100
33.164,-0.619,0.793,-0.096
33.174,-0.617,0.793,-0.098
33.184,-0.621,0.793,-0.098
33.194,-0.613,0.795,-0.100
33.204,-0.613,0.795,-0.098
33.214,-0.615,0.791,-0.098
33.224,-0.609,0.795,-0.098
33.233,-0.609,0.795,-0.096
33.243,-0.609,0.789,-0.096
33.253,-0.611,0.789,-0.098
33.263,-0.611,0.785,-0.096
33.273,-0.617,0.787,-0.098
33.283,-0.615,0.783,-0.100
33.293,-0.617,0.787,-0.098
33.303,-0.619,0.783,-0.100
33.313,-0.625,0.781,-0.100
33.323,-0.623,0.783,-0.100
33.333,-0.623,0.785,-0.102
33.343,-0.629,0.785,-0.098
33.353,-0.627,0.787,-0.096
33.363,-0.627,0.791,-0.098
33.373,-0.623,0.789,-0.098
33.382,-0.625,0.791,-0.094
33.392,-0.623,0.789,-0.096
33.402,-0.619,0.789,-0.096
33.412,-0.619,0.781,-0.096
33.422,-0.619,0.781,-0.092
33.432,-0.615,0.783,-0.092
33.442,-0.617,0.783,-0.090
33.452,-0.621,0.783,-0.092
33.462,-0.617,0.785,-0.094
33.472,-0.621,0.787,-0.094
33.482,-0.623,0.787,-0.094
33.492,-0.627,0.785,-0.100
33.502,-0.625,0.789,-0.098
33.512,-0.619,0.787,-0.100
33.521,-0.625,0.789,-0.098
33.531,-0.619,0.795,-0.102
33.541,-0.617,0.791,-0.094
33.551,-0.619,0.791,-0.098
33.561,-0.617,0.793,-0.096
33.571,-0.615,0.791,-0.100
33.581,-0.613,0.791,-0.100
33.591,-0.615,0.787,-0.094
33.601,-0.613,0.787,-0.096
33.611,-0.607,0.787,-0.098
33.621,-0.611,0.787,-0.096
33.631,-0.615,0.791,-0.094
33.641,-0.611,0.789,-0.096
33.651,-0.617,0.787,-0.100
33.661,-0.617,0.789,-0.098
33.670,-0.619,0.789,-0.100
33.680,-0.619,0.789,-0.098
33.690,-0.615,0.791,-0.098
33.700,-0.623,0.787,-0.098
33.710,-0.617,0.791,-0.096
33.720,-0.613,0.791,-0.098
33.730,-0.623,0.789,-0.100
33.740,-0.621,0.789,-0.098
33.750,-0.615,0.793,-0.094
33.760,-0.617,0.791,-0.096
33.770,-0.619,0.787,-0.098
33.780,-0.613,0.791,-0.096
33.790,-0.617,0.785,-0.096
33.800,-0.619,0.785,-0.098
33.809,-0.625,0.783,-0.100
33.819,-0.619,0.793,-0.096
33.829,-0.621,0.793,-0.096
33.839,-0.621,0.789,-0.098
33.849,-0.621,0.797,-0.098
33.859,-0.621,0.795,-0.098
33.869,-0.625,0.791,-0.094
33.879,-0.623,0.791,-0.094
33.889,-0.619,0.785,-0.096
33.899,-0.621,0.783,-0.094
33.909,-0.619,0.785,-0.098
33.919,-0.621,0.779,-0.098
33.929,-0.619,0.779,-0.100
33.939,-0.617,0.783,-0.096
33.949,-0.615,0.783,-0.100
33.958,-0.617,0.787,-0.098
33.968,-0.617,0.793,-0.096
33.978,-0.619,0.793,-0.098
33.988,-0.619,0.797,-0.102
33.998,-0.617,0.793,-0.098
34.008,-0.619,0.791,-0.098
34.018,-0.617,0.789,-0.098
34.028,-0.615,0.787,-0.100
34.038,-0.621,0.785,-0.098
34.048,-0.615,0.791,-0.100
34.058,-0.617,0.789,-0.100
34.068,-0.617,0.789,-0.098
34.078,-0.621,0.789,-0.104
34.088,-0.617,0.791,-0.104
34.097,-0.617,0.791,-0.098
34.107,-0.621,0.787,-0.098
34.117,-0.625,0.785,-0.104
34.127,-0.619,0.791,-0.098
34.137,-0.621,0.789,-0.096
34.147,-0.621,0.785,-0.098
34.157,-0.619,0.787,-0.096
34.167,-0.619,0.789,-0.098
34.177,-0.615,0.787,-0.094
34.187,-0.613,0.787,-0.096
34.197,-0.615,0.785,-0.098
34.207,-0.619,0.785,-0.102
34.217,-0.617,0.789,-0.102
34.227,-0.619,0.791,-0.098
34.237,-0.621,0.787,-0.102
34.246,-0.621,0.791,-0.098
34.256,-0.623,0.791,-0.098
34.266,-0.625,0.789,-0.098
34.276,-0.623,0.787,-0.100
34.286,-0.623,0.789,-0.098
34.296,-0.627,0.785,-0.098
34.306,-0.625,0.787,-0.098
34.316,-0.619,0.789,-0.094
34.326,-0.615,0.789,-0.096
34.336,-0.621,0.789,-0.096
34.346,-0.613,0.789,-0.096
34.356,-0.617,0.787,-0.090
34.366,-0.611,0.789,-0.092
34.376,-0.611,0.785,-0.092
34.385,-0.615,0.787,-0.092
34.395,-0.613,0.789,-0.090
34.405,-0.621,0.785,-0.094
34.415,-0.621,0.787,-0.098
34.425,-0.619,0.787,-0.096
34.435,-0.623,0.785,-0.096
34.445,-0.623,0.793,-0.096
34.455,-0.623,0.797,-0.100
34.465,-0.625,0.793,-0.096
34.475,-0.623,0.793,-0.096
34.485,-0.621,0.789,-0.096
34.495,-0.623,0.785,-0.098
34.505,-0.623,0.781,-0.098
34.515,-0.619,0.783,-0.096
34.525,-0.617,0.785,-0.094
34.534,-0.621,0.785,-0.096
34.544,-0.619,0.789,-0.090
34.554,-0.617,0.791,-0.094
34.564,-0.617,0.787,-0.092
34.574,-0.621,0.785,-0.094
34.584,-0.617,0.785,-0.096
34.594,-0.619,0.783,-0.094
34.604,-0.617,0.791,-0.096
34.614,-0.617,0.785,-0.098
34.624,-0.617,0.787,-0.098
34.634,-0.621,0.781,-0.094
34.644,-0.619,0.781,-0.098
34.654,-0.623,0.777,-0.096
34.664,-0.619,0.773,-0.094
34.673,-0.621,0.775,-0.096
34.683,-0.615,0.775,-0.094
34.693,-0.621,0.775,-0.090
34.703,-0.627,0.779,-0.096
34.713,-0.619,0.787,-0.096
34.723,-0.617,0.793,-0.096
34.733,-0.621,0.791,-0.098
34.743,-0.615,0.793,-0.098
34.753,-0.611,0.799,-0.100
34.763,-0.611,0.793,-0.098
34.773,-0.611,0.799,-0.096
34.783,-0.611,0.811,-0.100
34.793,-0.613,0.807,-0.102
34.803,-0.617,0.799,-0.107
34.813,-0.615,0.797,-0.109
34.822,-0.617,0.793,-0.107
34.832,-0.615,0.791,-0.111
34.842,-0.617,0.785,-0.111
34.852,-0.619,0.785,-0.113
34.862,-0.617,0.793,-0.111
34.872,-0.617,0.789,-0.113
34.882,-0.611,0.793,-0.111
34.892,-0.609,0.793,-0.109
34.902,-0.611,0.793,-0.107
34.912,-0.611,0.793,-0.107
34.922,-0.613,0.795,-0.107
34.932,-0.611,0.793,-0.111
34.942,-0.615,0.791,-0.109
34.952,-0.617,0.793,-0.107
34.961,-0.613,0.791,-0.109
34.971,-0.615,0.789,-0.107
34.981,-0.613,0.783,-0.104
34.991,-0.613,0.783,-0.102
35.001,-0.615,0.783,-0.100
35.011,-0.615,0.789,-0.102
35.021,-0.621,0.783,-0.100
35.031,-0.619,0.783,-0.104
35.041,-0.623,0.781,-0.102
35.051,-0.627,0.779,-0.104
35.061,-0.629,0.781,-0.104
35.071,-0.629,0.779,-0.102
35.081,-0.625,0.783,-0.100
35.091,-0.625,0.785,-0.102
35.101,-0.615,0.787,-0.100
35.110,-0.617,0.785,-0.104
35.120,-0.621,0.785,-0.100
35.130,-0.617,0.783,-0.100
35.140,-0.623,0.775,-0.102
35.150,-0.623,0.777,-0.107
35.160,-0.623,0.787,-0.104
35.170,-0.627,0.791,-0.105
35.180,-0.625,0.791,-0.104
35.190,-0.623,0.795,-0.104
35.200,-0.615,0.795,-0.102
35.210,-0.615,0.795,-0.104
35.220,-0.609,0.795,-0.102
35.230,-0.613,0.787,-0.109
35.240,-0.615,0.789,-0.105
35.249,-0.615,0.789,-0.107
35.259,-0.617,0.789,-0.109
35.269,-0.621,0.793,-0.105
35.279,-0.619,0.791,-0.104
35.289,-0.619,0.795,-0.102
35.299,-0.615,0.791,-0.105
35.309,-0.619,0.785,-0.102
35.319,-0.617,0.777,-0.105
35.329,-0.621,0.781,-0.105
35.339,-0.619,0.779,-0.105
35.349,-0.617,0.777,-0.102
35.359,-0.617,0.785,-0.100
35.369,-0.623,0.785,-0.102
35.379,-0.621,0.791,-0.100
35.389,-0.619,0.793,-0.100
35.398,-0.623,0.791,-0.105
35.408,-0.627,0.789,-0.105
35.418,-0.629,0.779,-0.104
35.428,-0.629,0.775,-0.107
35.438,-0.625,0.775,-0.105
35.448,-0.625,0.779,-0.104
35.458,-0.621,0.783,-0.105
35.468,-0.623,0.785,-0.104
35.478,-0.621,0.787,-0.104
35.488,-0.619,0.787,-0.102
35.498,-0.619,0.785,-0.102
35.508,-0.621,0.787,-0.102
35.518,-0.619,0.785,-0.102
35.528,-0.617,0.785,-0.105
35.537,-0.621,0.781,-0.104
35.547,-0.615,0.787,-0.105
35.557,-0.621,0.779,-0.105
35.567,-0.619,0.783,-0.104
35.577,-0.619,0.787,-0.105
35.587,-0.617,0.791,-0.104
35.597,-0.615,0.791,-0.104
35.607,-0.617,0.787,-0.102
35.617,-0.619,0.791,-0.102
35.627,-0.615,0.795,-0.102
35.637,-0.615,0.787,-0.102
35.647,-0.617,0.785,-0.102
35.657,-0.619,0.783,-0.105
35.667,-0.621,0.789,-0.104
35.677,-0.621,0.789,-0.104
35.686,-0.623,0.789,-0.102
35.696,-0.623,0.791,-0.100
35.706,-0.623,0.791,-0.100
35.716,-0.621,0.787,-0.100
35.726,-0.625,0.787,-0.104
35.736,-0.621,0.783,-0.098
35.746,-0.619,0.779,-0.104
35.756,-0.621,0.775,-0.098
35.766,-0.619,0.770,-0.098
35.776,-0.617,0.771,-0.094
35.786,-0.619,0.766,-0.098
35.796,-0.615,0.768,-0.094
35.806,-0.619,0.775,-0.096
35.816,-0.621,0.781,-0.098
35.825,-0.619,0.785,-0.100
35.835,-0.617,0.787,-0.102
35.845,-0.609,0.791,-0.107
35.855,-0.621,0.797,-0.102
35.865,-0.627,0.801,-0.104
35.875,-0.621,0.801,-0.107
35.885,-0.627,0.799,-0.109
35.895,-0.623,0.807,-0.107
35.905,-0.625,0.803,-0.107
35.915,-0.613,0.803,-0.109
35.925,-0.607,0.803,-0.109
35.935,-0.609,0.801,-0.113
35.945,-0.605,0.795,-0.117
35.955,-0.604,0.791,-0.115
35.965,-0.605,0.787,-0.117
35.974,-0.607,0.787,-0.115
35.984,-0.607,0.793,-0.113
35.994,-0.604,0.793,-0.111
36.004,-0.604,0.799,-0.109
36.014,-0.604,0.795,-0.109
36.024,-0.604,0.793,-0.105
36.034,-0.602,0.795,-0.109
36.044,-0.602,0.787,-0.111
36.054,-0.605,0.785,-0.111
36.064,-0.609,0.787,-0.111
36.074,-0.611,0.791,-0.109
36.084,-0.602,0.775,-0.119
36.094,-0.609,0.797,-0.105
36.104,-0.604,0.809,-0.104
36.113,-0.600,0.799,-0.100
36.123,-0.613,0.787,-0.109
36.133,-0.619,0.781,-0.113
36.143,-0.625,0.781,-0.111
36.153,-0.633,0.777,-0.113
36.163,-0.635,0.781,-0.115
36.173,-0.633,0.785,-0.115
36.183,-0.635,0.785,-0.111
36.193,-0.631,0.785,-0.111
36.203,-0.631,0.785,-0.109
36.213,-0.629,0.783,-0.107
36.223,-0.621,0.783,-0.105
36.233,-0.621,0.779,-0.104
36.243,-0.617,0.781,-0.105
36.253,-0.613,0.785,-0.105
36.262,-0.615,0.785,-0.107
36.272,-0.613,0.787,-0.105
36.282,-0.617,0.785,-0.109
36.292,-0.615,0.791,-0.113
36.302,-0.617,0.797,-0.109
36.312,-0.619,0.799,-0.107
36.322,-0.615,0.797,-0.111
36.332,-0.619,0.795,-0.109
36.342,-0.613,0.793,-0.107
36.352,-0.619,0.789,-0.109
36.362,-0.613,0.787,-0.111
36.372,-0.613,0.783,-0.109
36.382,-0.615,0.781,-0.111
36.392,-0.613,0.785,-0.107
36.401,-0.609,0.789,-0.105
36.411,-0.607,0.791,-0.105
36.421,-0.609,0.791,-0.105
36.431,-0.609,0.791,-0.105
36.441,-0.607,0.793,-0.107
36.451,-0.607,0.791,-0.104
36.461,-0.607,0.789,-0.107
36.471,-0.605,0.791,-0.107
36.481,-0.607,0.789,-0.105
36.491,-0.609,0.789,-0.109
36.501,-0.609,0.795,-0.105
36.511,-0.609,0.793,-0.109
36.521,-0.611,0.795,-0.107
36.531,-0.613,0.795,-0.109
36.541,-0.609,0.793,-0.109
36.550,-0.605,0.795,-0.111
36.560,-0.609,0.789,-0.109
36.570,-0.611,0.789,-0.109
36.580,-0.613,0.787,-0.105
36.590,-0.619,0.787,-0.113
36.600,-0.619,0.791,-0.109
36.610,-0.619,0.795,-0.107
36.620,-0.615,0.797,-0.104
36.630,-0.611,0.797,-0.107
36.640,-0.607,0.793,-0.104
36.650,-0.611,0.791,-0.107
36.660,-0.609,0.789,-0.105
36.670,-0.611,0.785,-0.105
36.680,-0.613,0.779,-0.111
36.689,-0.619,0.777,-0.113
36.699,-0.625,0.775,-0.113
36.709,-0.611,0.775,-0.111
36.719,-0.605,0.785,-0.104
36.729,-0.594,0.797,-0.100
36.739,-0.590,0.805,-0.102
36.749,-0.602,0.799,-0.109
36.759,-0.613,0.791,-0.113
36.769,-0.619,0.791,-0.119
36.779,-0.621,0.795,-0.115
36.789,-0.619,0.797,-0.117
36.799,-0.615,0.799,-0.115
36.809,-0.611,0.809,-0.115
36.819,-0.604,0.811,-0.115
36.829,-0.600,0.805,-0.115
36.838,-0.592,0.807,-0.113
36.848,-0.594,0.809,-0.117
36.858,-0.590,0.807,-0.109
36.868,-0.598,0.805,-0.115
36.878,-0.598,0.807,-0.111
36.888,-0.596,0.803,-0.115
36.898,-0.596,0.807,-0.113
36.908,-0.592,0.805,-0.113
36.918,-0.592,0.797,-0.111
36.928,-0.588,0.799,-0.109
36.938,-0.586,0.801,-0.109
36.948,-0.582,0.799,-0.107
36.958,-0.586,0.803,-0.105
36.968,-0.586,0.803,-0.105
36.977,-0.588,0.805,-0.104
36.987,-0.590,0.809,-0.105
36.997,-0.592,0.809,-0.107
37.007,-0.592,0.807,-0.107
37.017,-0.596,0.807,-0.105
37.027,-0.596,0.803,-0.104
37.037,-0.596,0.801,-0.104
37.047,-0.596,0.801,-0.104
37.057,-0.598,0.801,-0.104
37.067,-0.596,0.801,-0.105
37.077,-0.594,0.795,-0.102
37.087,-0.592,0.795,-0.102
37.097,-0.598,0.799,-0.102
37.107,-0.602,0.797,-0.100
37.117,-0.598,0.793,-0.105
37.126,-0.604,0.797,-0.105
37.136,-0.602,0.805,-0.107
37.146,-0.607,0.803,-0.111
37.156,-0.604,0.805,-0.109
37.166,-0.604,0.805,-0.111
37.176,-0.604,0.805,-0.105
37.186,-0.604,0.803,-0.105
37.196,-0.602,0.801,-0.105
37.206,-0.600,0.799,-0.105
37.216,-0.598,0.799,-0.104
37.226,-0.600,0.799,-0.109
37.236,-0.596,0.797,-0.105
37.246,-0.596,0.795,-0.105
37.256,-0.594,0.797,-0.109
37.265,-0.594,0.801,-0.107
37.275,-0.588,0.801,-0.107
37.285,-0.592,0.803,-0.107
37.295,-0.592,0.805,-0.109
37.305,-0.584,0.803,-0.111
37.315,-0.594,0.795,-0.113
37.325,-0.590,0.795,-0.117
37.335,-0.584,0.785,-0.113
37.345,-0.588,0.785,-0.109
37.355,-0.586,0.803,-0.105
37.365,-0.586,0.805,-0.105
37.375,-0.592,0.812,-0.104
37.385,-0.592,0.816,-0.104
37.395,-0.602,0.807,-0.111
37.404,-0.605,0.797,-0.115
37.414,-0.613,0.803,-0.115
37.424,-0.607,0.809,-0.115
37.434,-0.602,0.803,-0.113
37.444,-0.600,0.807,-0.115
37.454,-0.600,0.809,-0.113
37.464,-0.602,0.816,-0.113
37.474,-0.604,0.811,-0.117
37.484,-0.604,0.811,-0.115
37.494,-0.605,0.811,-0.119
37.504,-0.602,0.807,-0.119
37.514,-0.600,0.799,-0.115
37.524,-0.598,0.795,-0.113
37.534,-0.598,0.795,-0.115
37.544,-0.594,0.791,-0.109
37.553,-0.592,0.791,-0.113
37.563,-0.592,0.791,-0.107
37.573,-0.594,0.793,-0.105
37.583,-0.594,0.795,-0.105
37.593,-0.596,0.799,-0.109
37.603,-0.594,0.799,-0.111
37.613,-0.598,0.797,-0.109
37.623,-0.598,0.801,-0.111
37.633,-0.602,0.803,-0.111
37.643,-0.602,0.799,-0.107
37.653,-0.602,0.805,-0.111
37.663,-0.604,0.803,-0.111
37.673,-0.604,0.801,-0.111
37.683,-0.598,0.799,-0.109
37.692,-0.596,0.803,-0.107
37.702,-0.594,0.805,-0.107
37.712,-0.596,0.803,-0.105
37.722,-0.592,0.801,-0.107
37.732,-0.592,0.799,-0.107
37.742,-0.590,0.799,-0.105
37.752,-0.594,0.797,-0.107
37.762,-0.598,0.799,-0.109
37.772,-0.598,0.803,-0.107
37.782,-0.602,0.801,-0.107
37.792,-0.602,0.805,-0.111
37.802,-0.605,0.801,-0.107
37.812,-0.604,0.805,-0.109
37.822,-0.604,0.801,-0.111
37.832,-0.602,0.799,-0.107
37.841,-0.604,0.797,-0.109
37.851,-0.600,0.795,-0.107
37.861,-0.602,0.795,-0.107
37.871,-0.596,0.797,-0.109
37.881,-0.598,0.797,-0.105
37.891,-0.592,0.795,-0.107
37.901,-0.592,0.793,-0.107
37.911,-0.594,0.797,-0.102
37.921,-0.598,0.801,-0.109
37.931,-0.602,0.795,-0.107
37.941,-0.602,0.795,-0.105
37.951,-0.600,0.805,-0.111
37.961,-0.604,0.799,-0.113
37.971,-0.604,0.799,-0.113
37.980,-0.604,0.799,-0.113
37.990,-0.607,0.805,-0.109
38.000,-0.609,0.805,-0.109
38.010,-0.607,0.805,-0.109
38.020,-0.607,0.799,-0.109
38.030,-0.605,0.803,-0.111
38.040,-0.604,0.795,-0.113
38.050,-0.604,0.791,-0.113
38.060,-0.605,0.791,-0.111
38.070,-0.604,0.795,-0.111
38.080,-0.602,0.791,-0.111
38.090,-0.598,0.795,-0.109
38.100,-0.596,0.795,-0.107
38.110,-0.598,0.795,-0.111
38.120,-0.602,0.797,-0.109
38.129,-0.598,0.801,-0.109
38.139,-0.594,0.797,-0.111
38.149,-0.602,0.799,-0.111
38.159,-0.602,0.797,-0.111
38.169,-0.602,0.801,-0.111
38.179,-0.604,0.801,-0.113
38.189,-0.598,0.803,-0.109
38.199,-0.600,0.803,-0.109
38.209,-0.598,0.803,-0.109
38.219,-0.598,0.801,-0.109
38.229,-0.598,0.801,-0.107
38.239,-0.598,0.795,-0.105
38.249,-0.596,0.801,-0.109
38.259,-0.598,0.793,-0.109
38.268,-0.600,0.793,-0.111
38.278,-0.600,0.797,-0.107
38.288,-0.598,0.801,-0.109
38.298,-0.600,0.799,-0.109
38.308,-0.600,0.797,-0.111
38.318,-0.604,0.807,-0.109
38.328,-0.607,0.807,-0.107
38.338,-0.605,0.803,-0.109
38.348,-0.607,0.799,-0.111
38.358,-0.607,0.795,-0.107
38.368,-0.609,0.795,-0.111
38.378,-0.604,0.795,-0.107
38.388,-0.604,0.795,-0.107
38.398,-0.602,0.793,-0.107
38.408,-0.602,0.789,-0.109
38.417,-0.600,0.793,-0.107
38.427,-0.600,0.795,-0.109
38.437,-0.602,0.801,-0.111
38.447,-0.602,0.803,-0.107
38.457,-0.602,0.803,-0.115
38.467,-0.604,0.803,-0.107
38.477,-0.602,0.803,-0.113
38.487,-0.602,0.805,-0.113
38.497,-0.604,0.799,-0.113
38.507,-0.600,0.801,-0.109
38.517,-0.600,0.801,-0.111
38.527,-0.600,0.795,-0.115
38.537,-0.602,0.795,-0.109
38.547,-0.602,0.797,-0.113
38.556,-0.594,0.803,-0.109
38.566,-0.596,0.799,-0.109
38.576,-0.598,0.803,-0.109
38.586,-0.598,0.797,-0.111
38.596,-0.598,0.797,-0.111
38.606,-0.602,0.799,-0.109
38.616,-0.607,0.797,-0.111
38.626,-0.605,0.795,-0.109
38.636,-0.605,0.799,-0.113
38.646,-0.605,0.801,-0.113
38.656,-0.602,0.803,-0.111
38.666,-0.604,0.801,-0.111
38.676,-0.602,0.799,-0.109
38.686,-0.598,0.801,-0.107
38.696,-0.594,0.797,-0.109
38.705,-0.600,0.801,-0.111
38.715,-0.598,0.799,-0.109
38.725,-0.598,0.799,-0.109
38.735,-0.600,0.795,-0.111
38.745,-0.594,0.793,-0.107
38.755,-0.600,0.793,-0.107
38.765,-0.602,0.791,-0.109
38.775,-0.604,0.795,-0.109
38.785,-0.604,0.791,-0.109
38.795,-0.602,0.801,-0.109
38.805,-0.605,0.795,-0.113
38.815,-0.600,0.797,-0.115
38.825,-0.598,0.799,-0.111
38.835,-0.602,0.803,-0.111
38.844,-0.607,0.807,-0.109
38.854,-0.609,0.807,-0.113
38.864,-0.611,0.803,-0.109
38.874,-0.607,0.803,-0.113
38.884,-0.607,0.801,-0.117
38.894,-0.605,0.795,-0.113
38.904,-0.605,0.789,-0.113
38.914,-0.604,0.793,-0.111
38.924,-0.602,0.795,-0.111
38.934,-0.600,0.797,-0.105
38.944,-0.600,0.797,-0.107
38.954,-0.598,0.795,-0.109
38.964,-0.596,0.797,-0.109
38.974,-0.602,0.793,-0.107
38.984,-0.604,0.793,-0.109
38.993,-0.602,0.795,-0.111
39.003,-0.602,0.795,-0.107
39.013,-0.604,0.797,-0.107
39.023,-0.600,0.801,-0.109
39.033,-0.602,0.799,-0.109
39.043,-0.602,0.801,-0.109
39.053,-0.602,0.803,-0.109
39.063,-0.600,0.799,-0.107
39.073,-0.600,0.797,-0.111
39.083,-0.602,0.797,-0.111
39.093,-0.600,0.801,-0.109
39.103,-0.600,0.793,-0.105
39.113,-0.602,0.791,-0.113
39.123,-0.600,0.797,-0.107
39.132,-0.602,0.801,-0.107
39.142,-0.604,0.799,-0.109
39.152,-0.605,0.801,-0.111
39.162,-0.607,0.807,-0.111
39.172,-0.609,0.805,-0.109
39.182,-0.609,0.799,-0.111
39.192,-0.609,0.795,-0.109
39.202,-0.607,0.791,-0.111
39.212,-0.609,0.795,-0.109
39.222,-0.605,0.791,-0.111
39.232,-0.604,0.791,-0.111
39.242,-0.604,0.793,-0.107
39.252,-0.602,0.793,-0.109
39.262,-0.607,0.793,-0.111
39.272,-0.605,0.793,-0.109
39.281,-0.600,0.795,-0.113
39.291,-0.605,0.795,-0.109
39.301,-0.604,0.797,-0.111
39.311,-0.605,0.797,-0.113
39.321,-0.604,0.801,-0.113
39.331,-0.605,0.799,-0.111
39.341,-0.602,0.803,-0.111
39.351,-0.600,0.801,-0.113
39.361,-0.600,0.801,-0.111
39.371,-0.600,0.795,-0.111
39.381,-0.600,0.793,-0.107
39.391,-0.604,0.793,-0.111
39.401,-0.600,0.795,-0.111
39.411,-0.602,0.799,-0.109
39.420,-0.602,0.799,-0.111
39.430,-0.604,0.801,-0.111
39.440,-0.602,0.799,-0.109
39.450,-0.602,0.797,-0.111
39.460,-0.602,0.797,-0.109
39.470,-0.602,0.797,-0.107
39.480,-0.598,0.795,-0.111
39.490,-0.604,0.797,-0.111
39.500,-0.602,0.797,-0.111
39.510,-0.602,0.797,-0.109
39.520,-0.604,0.803,-0.107
39.530,-0.604,0.797,-0.109
39.540,-0.604,0.797,-0.113
39.550,-0.605,0.797,-0.113
39.560,-0.604,0.797,-0.109
39.569,-0.605,0.795,-0.111
39.579,-0.604,0.797,-0.113
39.589,-0.604,0.799,-0.111
39.599,-0.605,0.799,-0.113
39.609,-0.607,0.795,-0.109
39.619,-0.607,0.797,-0.111
39.629,-0.605,0.797,-0.111
39.639,-0.605,0.797,-0.105
39.649,-0.605,0.797,-0.105
39.659,-0.604,0.793,-0.107
39.669,-0.604,0.795,-0.104
39.679,-0.604,0.795,-0.105
39.689,-0.602,0.797,-0.105
39.699,-0.600,0.795,-0.104
39.708,-0.602,0.795,-0.105
39.718,-0.605,0.793,-0.105
39.728,-0.604,0.799,-0.111
39.738,-0.605,0.801,-0.105
39.748,-0.609,0.801,-0.107
39.758,-0.609,0.799,-0.109
39.768,-0.609,0.801,-0.109
39.778,-0.611,0.793,-0.115
39.788,-0.611,0.793,-0.111
39.798,-0.611,0.789,-0.111
39.808,-0.607,0.793,-0.111
39.818,-0.604,0.793,-0.111
39.828,-0.604,0.793,-0.107
39.838,-0.602,0.799,-0.109
39.848,-0.598,0.797,-0.105
39.857,-0.600,0.799,-0.107
39.867,-0.598,0.797,-0.107
39.877,-0.598,0.797,-0.109
39.887,-0.596,0.799,-0.111
39.897,-0.598,0.795,-0.109
39.907,-0.602,0.795,-0.107
39.917,-0.602,0.797,-0.109
39.927,-0.605,0.799,-0.111
39.937,-0.605,0.801,-0.105
39.947,-0.607,0.801,-0.107
39.957,-0.604,0.801,-0.107
39.967,-0.602,0.799,-0.107
39.977,-0.602,0.797,-0.109
39.987,-0.600,0.801,-0.107
39.996,-0.600,0.793,-0.107
40.006,-0.600,0.795,-0.109
40.016,-0.600,0.797,-0.105
40.026,-0.604,0.801,-0.107
40.036,-0.604,0.799,-0.109
40.046,-0.605,0.801,-0.109
40.056,-0.607,0.799,-0.111
40.066,-0.611,0.799,-0.107
40.076,-0.609,0.797,-0.111
40.086,-0.611,0.797,-0.111
40.096,-0.609,0.793,-0.109
40.106,-0.609,0.795,-0.109
40.116,-0.604,0.795,-0.109
40.126,-0.600,0.797,-0.109
40.136,-0.602,0.797,-0.109
40.145,-0.602,0.793,-0.111
40.155,-0.604,0.793,-0.113
40.165,-0.605,0.793,-0.111
40.175,-0.605,0.795,-0.113
40.185,-0.607,0.797,-0.113
40.195,-0.609,0.799,-0.113
40.205,-0.605,0.803,-0.115
40.215,-0.605,0.799,-0.111
40.225,-0.604,0.801,-0.109
40.235,-0.604,0.803,-0.109
40.245,-0.602,0.795,-0.109
40.255,-0.598,0.793,-0.111
40.265,-0.596,0.795,-0.107
40.275,-0.602,0.795,-0.109
40.284,-0.602,0.799,-0.105
40.294,-0.602,0.797,-0.107
40.304,-0.602,0.797,-0.107
40.314,-0.607,0.795,-0.105
40.324,-0.605,0.797,-0.109
40.334,-0.607,0.797,-0.109
40.344,-0.607,0.797,-0.109
40.354,-0.605,0.797,-0.107
40.364,-0.604,0.799,-0.105
40.374,-0.605,0.801,-0.105
40.384,-0.604,0.797,-0.107
40.394,-0.602,0.797,-0.107
40.404,-0.602,0.793,-0.111
40.414,-0.600,0.797,-0.107
40.424,-0.607,0.793,-0.105
40.433,-0.607,0.799,-0.109
40.443,-0.607,0.801,-0.109
40.453,-0.607,0.797,-0.113
40.463,-0.605,0.795,-0.105
40.473,-0.605,0.797,-0.109
40.483,-0.605,0.795,-0.109
40.493,-0.607,0.797,-0.109
40.503,-0.605,0.797,-0.113
40.513,-0.604,0.799,-0.111
40.523,-0.604,0.801,-0.109
40.533,-0.605,0.795,-0.109
40.543,-0.604,0.799,-0.107
40.553,-0.605,0.801,-0.109
40.563,-0.604,0.795,-0.107
40.572,-0.602,0.791,-0.107
40.582,-0.602,0.793,-0.109
40.592,-0.605,0.791,-0.111
40.602,-0.604,0.791,-0.105
40.612,-0.605,0.793,-0.105
40.622,-0.607,0.791,-0.107
40.632,-0.607,0.789,-0.109
40.642,-0.604,0.799,-0.109
40.652,-0.605,0.803,-0.109
40.662,-0.605,0.801,-0.111
40.672,-0.609,0.799,-0.111
40.682,-0.607,0.799,-0.115
40.692,-0.609,0.799,-0.111
40.702,-0.613,0.791,-0.111
40.712,-0.613,0.793,-0.111
40.721,-0.609,0.793,-0.113
40.731,-0.604,0.795,-0.111
40.741,-0.605,0.795,-0.105
40.751,-0.607,0.799,-0.107
40.761,-0.607,0.799,-0.107
40.771,-0.609,0.797,-0.109
40.781,-0.613,0.799,-0.107
40.791,-0.611,0.799,-0.107
40.801,-0.615,0.801,-0.107
40.811,-0.611,0.787,-0.113
40.821,-0.607,0.791,-0.105
40.831,-0.600,0.797,-0.107
40.841,-0.596,0.797,-0.107
40.851,-0.596,0.793,-0.109
40.860,-0.598,0.789,-0.105
40.870,-0.598,0.797,-0.105
40.880,-0.596,0.793,-0.102
40.890,-0.596,0.795,-0.102
40.900,-0.598,0.795,-0.102
40.910,-0.602,0.799,-0.102
40.920,-0.600,0.793,-0.104
40.930,-0.607,0.795,-0.105
40.940,-0.609,0.797,-0.107
40.950,-0.611,0.803,-0.107
40.960,-0.611,0.801,-0.104
40.970,-0.615,0.801,-0.107
40.980,-0.615,0.797,-0.107
40.990,-0.609,0.801,-0.105
41.000,-0.611,0.793,-0.107
41.009,-0.613,0.789,-0.109
41.019,-0.609,0.791,-0.109
41.029,-0.611,0.791,-0.104
41.039,-0.611,0.791,-0.104
41.049,-0.611,0.789,-0.107
41.059,-0.607,0.789,-0.107
41.069,-0.607,0.789,-0.111
41.079,-0.605,0.789,-0.109
41.089,-0.605,0.791,-0.107
41.099,-0.605,0.797,-0.107
41.109,-0.605,0.795,-0.109
41.119,-0.609,0.797,-0.111
41.129,-0.609,0.799,-0.109
41.139,-0.611,0.799,-0.113
41.148,-0.613,0.795,-0.111
41.158,-0.607,0.799,-0.111
41.168,-0.609,0.795,-0.109
41.178,-0.604,0.795,-0.109
41.188,-0.600,0.793,-0.111
41.198,-0.602,0.793,-0.107
41.208,-0.604,0.795,-0.107
41.218,-0.607,0.793,-0.109
41.228,-0.607,0.793,-0.109
41.238,-0.605,0.797,-0.105
41.248,-0.604,0.797,-0.105
41.258,-0.605,0.797,-0.107
41.268,-0.609,0.793,-0.105
41.278,-0.609,0.795,-0.105
41.288,-0.611,0.789,-0.104
41.297,-0.607,0.795,-0.105
41.307,-0.607,0.795,-0.105
41.317,-0.609,0.797,-0.105
41.327,-0.607,0.793,-0.102
41.337,-0.602,0.795,-0.104
41.347,-0.604,0.793,-0.102
41.357,-0.600,0.791,-0.102
41.367,-0.600,0.795,-0.100
41.377,-0.602,0.799,-0.104
41.387,-0.605,0.795,-0.102
41.397,-0.607,0.795,-0.105
41.407,-0.607,0.799,-0.104
41.417,-0.607,0.799,-0.102
41.427,-0.611,0.797,-0.104
41.436,-0.602,0.797,-0.105
41.446,-0.600,0.795,-0.105
41.456,-0.611,0.791,-0.104
41.466,-0.609,0.795,-0.105
41.476,-0.609,0.791,-0.104
41.486,-0.607,0.793,-0.104
41.496,-0.604,0.791,-0.102
41.506,-0.604,0.795,-0.098
41.516,-0.604,0.797,-0.098
41.526,-0.602,0.797,-0.102
41.536,-0.602,0.797,-0.104
41.546,-0.602,0.797,-0.102
41.556,-0.600,0.799,-0.105
41.566,-0.605,0.797,-0.107
41.576,-0.607,0.799,-0.105
41.585,-0.607,0.803,-0.104
41.595,-0.609,0.803,-0.107
41.605,-0.609,0.799,-0.107
41.615,-0.611,0.797,-0.107
41.625,-0.613,0.797,-0.107
41.635,-0.609,0.793,-0.105
41.645,-0.609,0.793,-0.105
41.655,-0.605,0.791,-0.107
41.665,-0.607,0.793,-0.105
41.675,-0.605,0.793,-0.104
41.685,-0.605,0.789,-0.105
41.695,-0.602,0.791,-0.105
41.705,-0.604,0.795,-0.102
41.715,-0.605,0.795,-0.104
41.724,-0.605,0.795,-0.107
41.734,-0.605,0.791,-0.105
41.744,-0.604,0.795,-0.107
41.754,-0.607,0.797,-0.105
41.764,-0.611,0.793,-0.111
41.774,-0.607,0.795,-0.107
41.784,-0.611,0.793,-0.111
41.794,-0.611,0.795,-0.111
41.804,-0.605,0.801,-0.107
41.814,-0.607,0.797,-0.105
41.824,-0.605,0.797,-0.104
41.834,-0.602,0.797,-0.105
41.844,-0.600,0.797,-0.104
41.854,-0.598,0.787,-0.100
41.864,-0.600,0.787,-0.104
41.873,-0.604,0.791,-0.109
41.883,-0.607,0.795,-0.104
41.893,-0.609,0.801,-0.107
41.903,-0.613,0.799,-0.107
41.913,-0.613,0.805,-0.107
41.923,-0.613,0.803,-0.105
41.933,-0.619,0.795,-0.109
41.943,-0.615,0.793,-0.105
41.953,-0.615,0.791,-0.105
41.963,-0.609,0.793,-0.105
41.973,-0.609,0.791,-0.107
41.983,-0.605,0.789,-0.104
41.993,-0.607,0.789,-0.104
42.003,-0.605,0.791,-0.104
42.012,-0.604,0.793,-0.104
42.022,-0.607,0.787,-0.105
42.032,-0.607,0.793,-0.105
42.042,-0.609,0.793,-0.107
42.052,-0.611,0.793,-0.107
42.062,-0.611,0.795,-0.104
42.072,-0.607,0.797,-0.109
42.082,-0.609,0.793,-0.107
42.092,-0.605,0.795,-0.109
42.102,-0.607,0.795,-0.104
42.112,-0.607,0.791,-0.107
42.122,-0.607,0.793,-0.104
42.132,-0.609,0.793,-0.104
42.142,-0.609,0.795,-0.104
42.151,-0.609,0.797,-0.105
42.161,-0.605,0.801,-0.105
42.171,-0.604,0.797,-0.107
42.181,-0.604,0.797,-0.105
42.191,-0.607,0.797,-0.105
42.201,-0.605,0.793,-0.107
42.211,-0.605,0.795,-0.104
42.221,-0.609,0.793,-0.105
42.231,-0.611,0.793,-0.104
42.241,-0.611,0.793,-0.104
42.251,-0.611,0.793,-0.107
42.261,-0.607,0.791,-0.107
42.271,-0.607,0.793,-0.104
42.281,-0.607,0.795,-0.105
42.291,-0.607,0.797,-0.105
42.300,-0.604,0.799,-0.105
42.310,-0.604,0.797,-0.104
42.320,-0.605,0.795,-0.105
42.330,-0.609,0.793,-0.107
42.340,-0.611,0.791,-0.107
42.350,-0.615,0.793,-0.107
42.360,-0.613,0.793,-0.109
42.370,-0.613,0.795,-0.107
42.380,-0.611,0.795,-0.105
42.390,-0.611,0.799,-0.105
42.400,-0.609,0.797,-0.105
42.410,-0.607,0.799,-0.104
42.420,-0.605,0.791,-0.104
42.430,-0.605,0.789,-0.102
42.439,-0.609,0.787,-0.104
42.449,-0.609,0.787,-0.104
42.459,-0.609,0.789,-0.104
42.469,-0.611,0.791,-0.100
42.479,-0.613,0.793,-0.105
42.489,-0.613,0.791,-0.107
42.499,-0.609,0.787,-0.105
42.509,-0.611,0.791,-0.105
42.519,-0.611,0.795,-0.105
42.529,-0.615,0.799,-0.109
42.539,-0.611,0.799,-0.107
42.549,-0.615,0.795,-0.105
42.559,-0.615,0.793,-0.111
42.569,-0.615,0.791,-0.109
42.579,-0.613,0.789,-0.109
42.588,-0.611,0.789,-0.109
42.598,-0.607,0.787,-0.105
42.608,-0.611,0.793,-0.109
42.618,-0.607,0.795,-0.104
42.628,-0.611,0.793,-0.107
42.638,-0.611,0.795,-0.105
42.648,-0.607,0.795,-0.107
42.658,-0.605,0.793,-0.107
42.668,-0.604,0.795,-0.107
42.678,-0.607,0.791,-0.105
42.688,-0.604,0.795,-0.107
42.698,-0.604,0.795,-0.102
42.708,-0.605,0.797,-0.107
42.718,-0.607,0.795,-0.107
42.727,-0.609,0.795,-0.104
42.737,-0.607,0.795,-0.105
42.747,-0.611,0.793,-0.105
42.757,-0.607,0.795,-0.105
42.767,-0.607,0.795,-0.105
42.777,-0.607,0.793,-0.107
42.787,-0.607,0.787,-0.105
42.797,-0.613,0.791,-0.109
42.807,-0.613,0.787,-0.105
42.817,-0.613,0.795,-0.104
42.827,-0.611,0.799,-0.107
42.837,-0.609,0.797,-0.104
42.847,-0.609,0.799,-0.107
42.857,-0.609,0.795,-0.104
42.867,-0.607,0.793,-0.104
42.876,-0.611,0.791,-0.107
42.886,-0.615,0.789,-0.105
42.896,-0.615,0.787,-0.107
42.906,-0.613,0.789,-0.107
42.916,-0.615,0.789,-0.107
42.926,-0.613,0.791,-0.107
42.936,-0.611,0.791,-0.109
42.946,-0.615,0.793,-0.105
42.956,-0.609,0.793,-0.107
42.966,-0.609,0.795,-0.105
42.976,-0.611,0.795,-0.107
42.986,-0.609,0.797,-0.107
42.996,-0.609,0.795,-0.107
43.006,-0.611,0.795,-0.105
43.015,-0.609,0.793,-0.107
43.025,-0.609,0.793,-0.104
43.035,-0.611,0.795,-0.104
43.045,-0.615,0.791,-0.105
43.055,-0.607,0.795,-0.105
43.065,-0.605,0.793,-0.105
43.075,-0.613,0.793,-0.105
43.085,-0.605,0.793,-0.105
43.095,-0.605,0.795,-0.104
43.105,-0.607,0.793,-0.105
43.115,-0.607,0.795,-0.107
43.125,-0.609,0.793,-0.105
43.135,-0.615,0.795,-0.107
43.145,-0.617,0.793,-0.111
43.155,-0.613,0.795,-0.107
43.164,-0.611,0.795,-0.107
43.174,-0.609,0.797,-0.107
43.184,-0.605,0.795,-0.105
43.194,-0.604,0.793,-0.107
43.204,-0.604,0.793,-0.104
43.214,-0.604,0.797,-0.104
43.224,-0.607,0.791,-0.107
43.234,-0.605,0.795,-0.109
43.244,-0.607,0.795,-0.107
43.254,-0.611,0.797,-0.105
43.264,-0.613,0.795,-0.104
43.274,-0.613,0.793,-0.105
43.284,-0.613,0.795,-0.107
43.294,-0.613,0.793,-0.111
43.303,-0.611,0.793,-0.107
43.313,-0.609,0.795,-0.109
43.323,-0.609,0.795,-0.107
43.333,-0.607,0.795,-0.109
43.343,-0.609,0.793,-0.105
43.353,-0.607,0.795,-0.105
43.363,-0.605,0.791,-0.104
43.373,-0.604,0.791,-0.100
43.383,-0.605,0.791,-0.104
43.393,-0.604,0.791,-0.105
43.403,-0.609,0.785,-0.104
43.413,-0.607,0.789,-0.105
43.423,-0.605,0.795,-0.107
43.433,-0.613,0.795,-0.107
43.443,-0.609,0.795,-0.109
43.452,-0.611,0.801,-0.109
43.462,-0.615,0.801,-0.109
43.472,-0.611,0.803,-0.107
43.482,-0.611,0.799,-0.105
43.492,-0.611,0.797,-0.107
43.502,-0.611,0.795,-0.104
43.512,-0.611,0.791,-0.104
43.522,-0.615,0.787,-0.111
43.532,-0.609,0.787,-0.105
43.542,-0.607,0.789,-0.104
43.552,-0.607,0.791,-0.104
43.562,-0.604,0.795,-0.104
43.572,-0.605,0.793,-0.104
43.582,-0.605,0.795,-0.105
43.591,-0.609,0.795,-0.104
43.601,-0.607,0.795,-0.104
43.611,-0.607,0.791,-0.104
43.621,-0.609,0.795,-0.104
43.631,-0.609,0.793,-0.104
43.641,-0.607,0.791,-0.104
43.651,-0.609,0.793,-0.104
43.661,-0.611,0.795,-0.105
43.671,-0.615,0.795,-0.109
43.681,-0.609,0.799,-0.105
43.691,-0.607,0.791,-0.105
43.701,-0.604,0.791,-0.104
43.711,-0.605,0.793,-0.104
43.721,-0.604,0.795,-0.102
43.731,-0.605,0.789,-0.102
43.740,-0.609,0.793,-0.102
43.750,-0.611,0.793,-0.104
43.760,-0.615,0.795,-0.102
43.770,-0.613,0.799,-0.104
43.780,-0.613,0.799,-0.102
43.790,-0.613,0.805,-0.104
43.800,-0.613,0.799,-0.104
43.810,-0.609,0.795,-0.105
43.820,-0.609,0.789,-0.102
43.830,-0.604,0.791,-0.104
43.840,-0.607,0.791,-0.104
43.850,-0.602,0.793,-0.102
43.860,-0.604,0.795,-0.104
43.870,-0.602,0.793,-0.105
43.879,-0.607,0.791,-0.104
43.889,-0.602,0.793,-0.104
43.899,-0.602,0.795,-0.104
43.909,-0.600,0.799,-0.105
43.919,-0.604,0.799,-0.107
43.929,-0.609,0.799,-0.109
43.939,-0.607,0.799,-0.111
43.949,-0.611,0.797,-0.111
43.959,-0.611,0.799,-0.111
43.969,-0.607,0.801,-0.111
43.979,-0.607,0.799,-0.111
43.989,-0.607,0.799,-0.113
43.999,-0.607,0.799,-0.113
44.009,-0.602,0.803,-0.105
44.019,-0.605,0.801,-0.111
44.028,-0.607,0.797,-0.109
44.038,-0.605,0.799,-0.109
44.048,-0.607,0.799,-0.105
44.058,-0.604,0.799,-0.107
44.068,-0.613,0.797,-0.105
44.078,-0.605,0.797,-0.105
44.088,-0.604,0.797,-0.104
44.098,-0.607,0.791,-0.107
44.108,-0.604,0.793,-0.104
44.118,-0.602,0.793,-0.104
44.128,-0.602,0.789,-0.102
44.138,-0.600,0.791,-0.105
44.148,-0.602,0.793,-0.104
44.158,-0.605,0.791,-0.104
44.167,-0.607,0.797,-0.104
44.177,-0.609,0.797,-0.107
44.187,-0.607,0.799,-0.105
44.197,-0.605,0.795,-0.104
44.207,-0.604,0.797,-0.107
44.217,-0.605,0.797,-0.105
44.227,-0.600,0.799,-0.102
44.237,-0.600,0.801,-0.102
44.247,-0.600,0.797,-0.100
44.257,-0.596,0.793,-0.105
44.267,-0.594,0.789,-0.102
44.277,-0.596,0.799,-0.100
44.287,-0.600,0.801,-0.105
44.297,-0.604,0.799,-0.105
44.307,-0.607,0.793,-0.107
44.316,-0.607,0.801,-0.104
44.326,-0.611,0.805,-0.111
44.336,-0.607,0.805,-0.109
44.346,-0.607,0.801,-0.107
44.356,-0.607,0.805,-0.105
44.366,-0.607,0.805,-0.105
44.376,-0.605,0.803,-0.105
44.386,-0.607,0.801,-0.105
44.396,-0.607,0.793,-0.107
44.406,-0.609,0.795,-0.104
44.416,-0.611,0.791,-0.109
44.426,-0.607,0.791,-0.104
44.436,-0.605,0.791,-0.104
44.446,-0.602,0.797,-0.104
44.455,-0.602,0.795,-0.104
44.465,-0.602,0.797,-0.102
44.475,-0.600,0.799,-0.104
44.485,-0.602,0.797,-0.104
44.495,-0.605,0.797,-0.102
44.505,-0.605,0.797,-0.104
44.515,-0.607,0.791,-0.109
44.525,-0.607,0.795,-0.104
44.535,-0.605,0.795,-0.105
44.545,-0.605,0.793,-0.107
44.555,-0.607,0.797,-0.111
44.565,-0.605,0.799,-0.105
44.575,-0.607,0.801,-0.107
44.585,-0.604,0.805,-0.104
44.595,-0.600,0.797,-0.104
44.604,-0.607,0.799,-0.100
44.614,-0.604,0.795,-0.104
44.624,-0.604,0.785,-0.102
44.634,-0.604,0.787,-0.107
44.644,-0.604,0.793,-0.105
44.654,-0.604,0.799,-0.105
44.664,-0.607,0.803,-0.105
44.674,-0.605,0.807,-0.107
44.684,-0.607,0.809,-0.104
44.694,-0.609,0.807,-0.107
44.704,-0.607,0.799,-0.107
44.714,-0.607,0.797,-0.107
44.724,-0.605,0.797,-0.109
44.734,-0.607,0.789,-0.102
44.743,-0.609,0.789,-0.105
44.753,-0.607,0.789,-0.105
44.763,-0.607,0.787,-0.104
44.773,-0.605,0.789,-0.105
44.783,-0.604,0.789,-0.104
44.793,-0.605,0.795,-0.104
44.803,-0.605,0.797,-0.107
44.813,-0.611,0.795,-0.107
44.823,-0.607,0.801,-0.107
44.833,-0.607,0.795,-0.107
44.843,-0.611,0.795,-0.107
44.853,-0.607,0.797,-0.105
44.863,-0.607,0.801,-0.107
44.873,-0.604,0.795,-0.104
44.883,-0.609,0.795,-0.104
44.892,-0.607,0.797,-0.105
44.902,-0.602,0.795,-0.107
44.912,-0.605,0.797,-0.107
44.922,-0.607,0.795,-0.104
44.932,-0.607,0.797,-0.109
44.942,-0.609,0.797,-0.105
44.952,-0.607,0.795,-0.105
44.962,-0.607,0.795,-0.107
44.972,-0.609,0.797,-0.107
44.982,-0.605,0.797,-0.107
44.992,-0.607,0.793,-0.105
45.002,-0.607,0.795,-0.107
45.012,-0.604,0.797,-0.105
45.022,-0.604,0.799,-0.105
45.031,-0.605,0.797,-0.105
45.041,-0.605,0.797,-0.105
45.051,-0.605,0.799,-0.105
45.061,-0.604,0.797,-0.104
45.071,-0.604,0.793,-0.105
45.081,-0.605,0.797,-0.105
45.091,-0.605,0.795,-0.105
45.101,-0.604,0.793,-0.102
45.111,-0.602,0.793,-0.102
45.121,-0.600,0.795,-0.104
45.131,-0.600,0.795,-0.100
45.141,-0.598,0.795,-0.104
45.151,-0.602,0.791,-0.104
45.161,-0.604,0.791,-0.098
45.171,-0.602,0.797,-0.102
45.180,-0.607,0.797,-0.107
45.190,-0.609,0.797,-0.107
45.200,-0.605,0.801,-0.107
45.210,-0.609,0.805,-0.109
45.220,-0.611,0.803,-0.105
45.230,-0.613,0.803,-0.107
45.240,-0.613,0.799,-0.107
45.250,-0.613,0.799,-0.107
45.260,-0.615,0.795,-0.105
45.270,-0.613,0.787,-0.107
45.280,-0.611,0.787,-0.107
45.290,-0.611,0.791,-0.107
45.300,-0.604,0.791,-0.105
45.310,-0.607,0.795,-0.104
45.319,-0.605,0.795,-0.104
45.329,-0.604,0.793,-0.105
45.339,-0.604,0.795,-0.105
45.349,-0.607,0.795,-0.109
45.359,-0.607,0.795,-0.105
45.369,-0.605,0.791,-0.105
45.379,-0.604,0.795,-0.105
45.389,-0.607,0.797,-0.105
45.399,-0.609,0.797,-0.104
45.409,-0.605,0.795,-0.107
45.419,-0.607,0.799,-0.105
45.429,-0.609,0.801,-0.105
45.439,-0.598,0.799,-0.104
45.449,-0.600,0.797,-0.104
45.459,-0.598,0.795,-0.102
45.468,-0.600,0.793,-0.098
45.478,-0.602,0.795,-0.104
45.488,-0.604,0.791,-0.104
45.498,-0.605,0.793,-0.105
45.508,-0.607,0.799,-0.104
45.518,-0.609,0.801,-0.107
45.528,-0.609,0.803,-0.107
45.538,-0.613,0.799,-0.107
45.548,-0.609,0.797,-0.107
45.558,-0.609,0.799,-0.104
45.568,-0.609,0.793,-0.109
45.578,-0.607,0.793,-0.107
45.588,-0.607,0.797,-0.102
45.598,-0.609,0.793,-0.102
45.607,-0.607,0.789,-0.107
45.617,-0.605,0.791,-0.104
45.627,-0.607,0.791,-0.104
45.637,-0.604,0.791,-0.105
45.647,-0.607,0.791,-0.105
45.657,-0.607,0.791,-0.107
45.667,-0.607,0.795,-0.105
45.677,-0.607,0.797,-0.107
45.687,-0.611,0.799,-0.109
45.697,-0.609,0.801,-0.105
45.707,-0.602,0.803,-0.107
45.717,-0.602,0.801,-0.105
45.727,-0.602,0.797,-0.104
45.737,-0.604,0.795,-0.104
45.747,-0.604,0.793,-0.104
45.756,-0.604,0.793,-0.104
45.766,-0.605,0.793,-0.107
45.776,-0.607,0.797,-0.105
45.786,-0.604,0.797,-0.104
45.796,-0.607,0.795,-0.105
45.806,-0.604,0.797,-0.107
45.816,-0.604,0.797,-0.105
45.826,-0.605,0.801,-0.107
45.836,-0.605,0.797,-0.105
45.846,-0.604,0.793,-0.105
45.856,-0.607,0.793,-0.107
45.866,-0.607,0.793,-0.104
45.876,-0.609,0.795,-0.107
45.886,-0.609,0.797,-0.107
45.895,-0.611,0.797,-0.105
45.905,-0.605,0.799,-0.107
45.915,-0.607,0.797,-0.107
45.925,-0.604,0.797,-0.107
45.935,-0.607,0.797,-0.105
45.945,-0.605,0.795,-0.107
45.955,-0.609,0.795,-0.105
45.965,-0.611,0.789,-0.109
45.975,-0.609,0.793,-0.107
45.985,-0.611,0.797,-0.105
45.995,-0.613,0.795,-0.107
46.005,-0.611,0.797,-0.102
46.015,-0.598,0.795,-0.096
46.025,-0.604,0.795,-0.102
46.035,-0.605,0.793,-0.104
46.044,-0.604,0.793,-0.100
46.054,-0.602,0.793,-0.096
46.064,-0.605,0.793,-0.104
46.074,-0.609,0.791,-0.109
46.084,-0.611,0.795,-0.105
46.094,-0.611,0.801,-0.105
46.104,-0.611,0.801,-0.104
46.114,-0.615,0.799,-0.109
46.124,-0.613,0.801,-0.109
46.134,-0.615,0.799,-0.109
46.144,-0.613,0.797,-0.109
46.154,-0.617,0.797,-0.111
46.164,-0.615,0.791,-0.107
46.174,-0.609,0.791,-0.107
46.183,-0.605,0.793,-0.105
46.193,-0.609,0.791,-0.104
46.203,-0.607,0.791,-0.105
46.213,-0.604,0.795,-0.105
46.223,-0.605,0.795,-0.105
46.233,-0.605,0.795,-0.105
46.243,-0.604,0.797,-0.107
46.253,-0.604,0.793,-0.105
46.263,-0.604,0.797,-0.105
46.273,-0.602,0.795,-0.105
46.283,-0.602,0.793,-0.107
46.293,-0.604,0.795,-0.105
46.303,-0.609,0.797,-0.107
46.313,-0.609,0.799,-0.107
46.323,-0.605,0.799,-0.104
46.332,-0.607,0.797,-0.105
46.342,-0.609,0.793,-0.109
46.352,-0.607,0.797,-0.105
46.362,-0.604,0.795,-0.105
46.372,-0.605,0.795,-0.105
46.382,-0.605,0.795,-0.107
46.392,-0.607,0.803,-0.104
46.402,-0.609,0.803,-0.102
46.412,-0.609,0.799,-0.107
46.422,-0.609,0.799,-0.102
46.432,-0.607,0.801,-0.109
46.442,-0.613,0.797,-0.104
46.452,-0.611,0.793,-0.107
46.462,-0.611,0.789,-0.107
46.471,-0.609,0.795,-0.102
46.481,-0.609,0.787,-0.104
46.491,-0.609,0.787,-0.105
46.501,-0.604,0.789,-0.104
46.511,-0.604,0.791,-0.104
46.521,-0.602,0.791,-0.105
46.531,-0.602,0.795,-0.105
46.541,-0.605,0.795,-0.102
46.551,-0.607,0.793,-0.107
46.561,-0.605,0.801,-0.107
46.571,-0.609,0.795,-0.109
46.581,-0.613,0.791,-0.109
46.591,-0.609,0.795,-0.109
46.601,-0.607,0.797,-0.107
46.611,-0.607,0.797,-0.105
46.620,-0.613,0.793,-0.109
46.630,-0.607,0.795,-0.109
46.640,-0.609,0.797,-0.104
46.650,-0.609,0.797,-0.109
46.660,-0.607,0.793,-0.107
46.670,-0.605,0.793,-0.107
46.680,-0.609,0.795,-0.107
46.690,-0.611,0.795,-0.109
46.700,-0.607,0.795,-0.105
46.710,-0.605,0.795,-0.107
46.720,-0.607,0.793,-0.107
46.730,-0.605,0.797,-0.109
46.740,-0.604,0.793,-0.105
46.750,-0.604,0.793,-0.105
46.759,-0.604,0.795,-0.104
46.769,-0.605,0.797,-0.102
46.779,-0.604,0.799,-0.107
46.789,-0.602,0.795,-0.107
46.799,-0.607,0.797,-0.107
46.809,-0.609,0.795,-0.107
46.819,-0.607,0.799,-0.105
46.829,-0.611,0.797,-0.109
46.839,-0.609,0.795,-0.109
46.849,-0.611,0.793,-0.107
46.859,-0.607,0.791,-0.111
46.869,-0.607,0.793,-0.107
46.879,-0.604,0.793,-0.105
46.889,-0.600,0.793,-0.105
46.898,-0.594,0.791,-0.104
46.908,-0.596,0.791,-0.100
46.918,-0.594,0.799,-0.100
46.928,-0.596,0.795,-0.105
46.938,-0.604,0.791,-0.107
46.948,-0.607,0.789,-0.107
46.958,-0.607,0.795,-0.109
46.968,-0.611,0.797,-0.113
46.978,-0.613,0.801,-0.113
46.988,-0.613,0.799,-0.109
46.998,-0.613,0.799,-0.107
47.008,-0.609,0.801,-0.109
47.018,-0.611,0.797,-0.104
47.028,-0.604,0.797,-0.105
47.038,-0.607,0.793,-0.105
47.047,-0.607,0.791,-0.107
47.057,-0.604,0.791,-0.105
47.067,-0.605,0.789,-0.107
47.077,-0.604,0.789,-0.105
47.087,-0.605,0.793,-0.107
47.097,-0.607,0.797,-0.105
47.107,-0.609,0.791,-0.104
47.117,-0.607,0.797,-0.105
47.127,-0.611,0.793,-0.105
47.137,-0.611,0.793,-0.105
47.147,-0.609,0.795,-0.109
47.157,-0.609,0.793,-0.107
47.167,-0.607,0.795,-0.105
47.177,-0.607,0.795,-0.107
47.186,-0.602,0.801,-0.104
47.196,-0.598,0.803,-0.109
47.206,-0.605,0.803,-0.104
47.216,-0.613,0.795,-0.105
47.226,-0.605,0.799,-0.104
47.236,-0.605,0.797,-0.105
47.246,-0.607,0.793,-0.104
47.256,-0.604,0.791,-0.105
47.266,-0.605,0.789,-0.105
47.276,-0.609,0.791,-0.107
47.286,-0.605,0.797,-0.109
47.296,-0.609,0.799,-0.105
47.306,-0.607,0.799,-0.107
47.316,-0.604,0.801,-0.104
47.326,-0.607,0.799,-0.105
47.335,-0.607,0.799,-0.104
47.345,-0.609,0.799,-0.104
47.355,-0.607,0.793,-0.105
47.365,-0.609,0.791,-0.105
47.375,-0.611,0.787,-0.105
47.385,-0.609,0.787,-0.105
47.395,-0.609,0.785,-0.105
47.405,-0.605,0.789,-0.109
47.415,-0.604,0.789,-0.105
47.425,-0.604,0.793,-0.107
47.435,-0.605,0.797,-0.105
47.445,-0.605,0.797,-0.105
47.455,-0.605,0.797,-0.105
47.465,-0.609,0.801,-0.107
47.474,-0.607,0.799,-0.107
47.484,-0.609,0.797,-0.109
47.494,-0.609,0.793,-0.109
47.504,-0.609,0.793,-0.109
47.514,-0.607,0.793,-0.107
47.524,-0.607,0.793,-0.111
47.534,-0.607,0.793,-0.107
47.544,-0.605,0.797,-0.111
47.554,-0.607,0.799,-0.105
47.564,-0.607,0.795,-0.107
47.574,-0.604,0.801,-0.107
47.584,-0.611,0.797,-0.107
47.594,-0.611,0.795,-0.111
47.604,-0.611,0.795,-0.105
47.614,-0.613,0.789,-0.109
47.623,-0.611,0.793,-0.107
47.633,-0.607,0.789,-0.107
47.643,-0.613,0.791,-0.105
47.653,-0.605,0.793,-0.111
47.663,-0.604,0.797,-0.107
47.673,-0.607,0.797,-0.105
47.683,-0.605,0.797,-0.107
47.693,-0.609,0.797,-0.104
47.703,-0.611,0.793,-0.105
47.713,-0.611,0.793,-0.107
47.723,-0.611,0.793,-0.105
47.733,-0.609,0.791,-0.107
47.743,-0.607,0.787,-0.107
47.753,-0.609,0.797,-0.107
47.762,-0.605,0.795,-0.107
47.772,-0.609,0.795,-0.107
47.782,-0.604,0.797,-0.105
47.792,-0.600,0.793,-0.104
47.802,-0.602,0.797,-0.102
47.812,-0.600,0.795,-0.102
47.822,-0.602,0.791,-0.102
47.832,-0.607,0.789,-0.104
47.842,-0.605,0.791,-0.105
47.852,-0.600,0.793,-0.104
47.862,-0.609,0.793,-0.107
47.872,-0.611,0.795,-0.107
47.882,-0.611,0.797,-0.105
47.892,-0.613,0.803,-0.105
47.902,-0.611,0.801,-0.105
47.911,-0.613,0.801,-0.104
47.921,-0.617,0.793,-0.104
47.931,-0.611,0.791,-0.107
47.941,-0.611,0.791,-0.107
47.951,-0.611,0.791,-0.107
47.961,-0.607,0.787,-0.107
47.971,-0.607,0.789,-0.105
47.981,-0.607,0.795,-0.104
47.991,-0.605,0.791,-0.102
48.001,-0.604,0.793,-0.105
48.011,-0.604,0.795,-0.104
48.021,-0.613,0.797,-0.105
48.031,-0.613,0.791,-0.109
48.041,-0.609,0.793,-0.105
48.050,-0.609,0.795,-0.105
48.060,-0.607,0.793,-0.105
48.070,-0.607,0.797,-0.105
48.080,-0.609,0.797,-0.104
48.090,-0.609,0.797,-0.105
48.100,-0.607,0.799,-0.107
48.110,-0.609,0.795,-0.105
48.120,-0.605,0.795,-0.104
48.130,-0.602,0.793,-0.104
48.140,-0.604,0.793,-0.104
48.150,-0.605,0.795,-0.104
48.160,-0.605,0.793,-0.104
48.170,-0.605,0.793,-0.107
48.180,-0.609,0.797,-0.107
48.190,-0.609,0.799,-0.105
48.199,-0.609,0.795,-0.107
48.209,-0.607,0.799,-0.107
48.219,-0.613,0.801,-0.107
48.229,-0.613,0.797,-0.105
48.239,-0.613,0.795,-0.107
48.249,-0.611,0.793,-0.109
48.259,-0.609,0.789,-0.107
48.269,-0.609,0.793,-0.104
48.279,-0.609,0.787,-0.104
48.289,-0.605,0.787,-0.104
48.299,-0.609,0.789,-0.105
48.309,-0.611,0.789,-0.105
48.319,-0.607,0.791,-0.105
48.329,-0.605,0.793,-0.109
48.338,-0.607,0.795,-0.109
48.348,-0.609,0.797,-0.109
48.358,-0.607,0.797,-0.107
48.368,-0.609,0.797,-0.107
48.378,-0.607,0.799,-0.107
48.388,-0.607,0.797,-0.107
48.398,-0.607,0.793,-0.104
48.408,-0.609,0.795,-0.107
48.418,-0.607,0.793,-0.105
48.428,-0.605,0.793,-0.105
48.438,-0.605,0.793,-0.104
48.448,-0.607,0.791,-0.107
48.458,-0.609,0.793,-0.107
48.468,-0.609,0.795,-0.105
48.478,-0.611,0.795,-0.105
48.487,-0.615,0.795,-0.107
48.497,-0.615,0.793,-0.107
48.507,-0.609,0.793,-0.105
48.517,-0.609,0.795,-0.104
48.527,-0.607,0.795,-0.104
48.537,-0.609,0.795,-0.107
48.547,-0.605,0.795,-0.105
48.557,-0.605,0.795,-0.105
48.567,-0.604,0.793,-0.105
48.577,-0.598,0.791,-0.107
48.587,-0.602,0.789,-0.105
48.597,-0.604,0.791,-0.105
48.607,-0.605,0.795,-0.105
48.617,-0.605,0.801,-0.102
48.626,-0.609,0.799,-0.105
48.636,-0.609,0.797,-0.105
48.646,-0.611,0.795,-0.109
48.656,-0.617,0.793,-0.107
48.666,-0.615,0.795,-0.111
48.676,-0.611,0.793,-0.111
48.686,-0.613,0.789,-0.111
48.696,-0.613,0.795,-0.109
48.706,-0.613,0.793,-0.105
48.716,-0.611,0.797,-0.105
48.726,-0.609,0.799,-0.105
48.736,-0.605,0.799,-0.102
48.746,-0.604,0.793,-0.102
48.756,-0.602,0.791,-0.102
48.766,-0.605,0.793,-0.104
48.775,-0.604,0.789,-0.102
48.785,-0.607,0.791,-0.105
48.795,-0.611,0.787,-0.105
48.805,-0.611,0.787,-0.105
48.815,-0.611,0.793,-0.109
48.825,-0.613,0.797,-0.107
48.835,-0.615,0.799,-0.107
48.845,-0.611,0.799,-0.104
48.855,-0.617,0.799,-0.107
48.865,-0.615,0.797,-0.109
48.875,-0.615,0.793,-0.113
48.885,-0.611,0.791,-0.109
48.895,-0.611,0.791,-0.109
48.905,-0.611,0.789,-0.107
48.914,-0.607,0.791,-0.105
48.924,-0.605,0.793,-0.104
48.934,-0.605,0.793,-0.105
48.944,-0.605,0.797,-0.105
48.954,-0.607,0.793,-0.105
48.964,-0.605,0.793,-0.102
48.974,-0.607,0.791,-0.107
48.984,-0.607,0.791,-0.105
48.994,-0.607,0.791,-0.104
49.004,-0.605,0.791,-0.105
49.014,-0.607,0.795,-0.105
49.024,-0.607,0.795,-0.107
49.034,-0.611,0.793,-0.107
49.044,-0.605,0.795,-0.104
49.054,-0.607,0.795,-0.104
49.063,-0.607,0.793,-0.105
49.073,-0.607,0.793,-0.104
49.083,-0.605,0.795,-0.105
49.093,-0.605,0.791,-0.105
49.103,-0.611,0.793,-0.109
49.113,-0.607,0.793,-0.105
49.123,-0.609,0.793,-0.105
49.133,-0.609,0.795,-0.104
49.143,-0.609,0.801,-0.104
49.153,-0.613,0.797,-0.107
49.163,-0.609,0.797,-0.105
49.173,-0.611,0.797,-0.105
49.183,-0.611,0.795,-0.105
49.193,-0.609,0.793,-0.111
49.202,-0.609,0.789,-0.105
49.212,-0.607,0.793,-0.104
49.222,-0.609,0.789,-0.105
49.232,-0.609,0.787,-0.107
49.242,-0.607,0.787,-0.107
49.252,-0.611,0.787,-0.107
49.262,-0.615,0.789,-0.109
49.272,-0.611,0.791,-0.107
49.282,-0.609,0.795,-0.107
49.292,-0.611,0.799,-0.107
49.302,-0.607,0.797,-0.107
49.312,-0.609,0.801,-0.105
49.322,-0.611,0.801,-0.107
49.332,-0.609,0.799,-0.107
49.342,-0.605,0.795,-0.107
49.351,-0.605,0.795,-0.105
49.361,-0.607,0.793,-0.105
49.371,-0.609,0.793,-0.104
49.381,-0.609,0.789,-0.107
49.391,-0.615,0.789,-0.105
49.401,-0.613,0.791,-0.104
49.411,-0.615,0.791,-0.107
49.421,-0.611,0.795,-0.107
49.431,-0.611,0.795,-0.105
49.441,-0.611,0.795,-0.107
49.451,-0.609,0.793,-0.104
49.461,-0.611,0.791,-0.107
49.471,-0.609,0.793,-0.107
49.481,-0.611,0.789,-0.107
49.490,-0.611,0.793,-0.107
49.500,-0.609,0.791,-0.105
49.510,-0.613,0.795,-0.107
49.520,-0.611,0.795,-0.107
49.530,-0.609,0.795,-0.104
49.540,-0.605,0.791,-0.105
49.550,-0.607,0.795,-0.107
49.560,-0.609,0.795,-0.104
49.570,-0.607,0.793,-0.105
49.580,-0.605,0.799,-0.105
49.590,-0.607,0.795,-0.107
49.600,-0.609,0.795,-0.105
49.610,-0.613,0.793,-0.109
49.620,-0.613,0.791,-0.107
49.630,-0.613,0.791,-0.109
49.639,-0.619,0.789,-0.109
49.649,-0.615,0.791,-0.111
49.659,-0.615,0.793,-0.107
49.669,-0.611,0.793,-0.107
49.679,-0.611,0.795,-0.107
49.689,-0.607,0.797,-0.107
49.699,-0.607,0.795,-0.105
49.709,-0.604,0.791,-0.100
49.719,-0.602,0.795,-0.102
49.729,-0.604,0.789,-0.107
49.739,-0.605,0.789,-0.105
49.749,-0.609,0.789,-0.107
49.759,-0.609,0.791,-0.105
49.769,-0.617,0.787,-0.105
49.778,-0.615,0.795,-0.111
49.788,-0.613,0.801,-0.105
49.798,-0.613,0.803,-0.109
49.808,-0.613,0.801,-0.105
49.818,-0.613,0.797,-0.105
49.828,-0.609,0.795,-0.105
49.838,-0.611,0.795,-0.107
49.848,-0.609,0.789,-0.105
49.858,-0.611,0.785,-0.105
49.868,-0.611,0.787,-0.104
49.878,-0.609,0.791,-0.107
49.888,-0.607,0.795,-0.104
49.898,-0.607,0.793,-0.105
49.908,-0.611,0.793,-0.102
49.918,-0.611,0.793,-0.105
49.927,-0.609,0.795,-0.104
49.937,-0.607,0.793,-0.104
49.947,-0.607,0.793,-0.104
49.957,-0.605,0.793,-0.105
49.967,-0.609,0.793,-0.105
49.977,-0.611,0.791,-0.107
49.987,-0.609,0.797,-0.104
49.997,-0.611,0.795,-0.109
50.007,-0.609,0.797,-0.107
50.017,-0.609,0.795,-0.105
50.027,-0.607,0.791,-0.104
50.037,-0.607,0.791,-0.107
50.047,-0.604,0.791,-0.104
50.057,-0.605,0.793,-0.107
50.066,-0.611,0.789,-0.105
50.076,-0.607,0.793,-0.105
50.086,-0.609,0.799,-0.104
50.096,-0.611,0.799,-0.105
50.106,-0.609,0.797,-0.104
50.116,-0.609,0.799,-0.104
50.126,-0.609,0.799,-0.102
50.136,-0.607,0.795,-0.105
50.146,-0.611,0.793,-0.107
50.156,-0.611,0.787,-0.105
50.166,-0.613,0.787,-0.104
50.176,-0.611,0.785,-0.105
50.186,-0.609,0.789,-0.102
50.196,-0.609,0.793,-0.105
50.206,-0.605,0.789,-0.104
50.215,-0.605,0.791,-0.102
50.225,-0.609,0.795,-0.104
50.235,-0.609,0.793,-0.105
50.245,-0.613,0.795,-0.107
50.255,-0.611,0.795,-0.111
50.265,-0.609,0.797,-0.109
50.275,-0.613,0.797,-0.107
50.285,-0.615,0.797,-0.109
50.295,-0.609,0.795,-0.111
50.305,-0.609,0.795,-0.109
50.315,-0.605,0.793,-0.107
50.325,-0.609,0.793,-0.107
50.335,-0.609,0.797,-0.109
50.345,-0.609,0.797,-0.105
50.354,-0.611,0.797,-0.107
50.364,-0.613,0.795,-0.107
50.374,-0.609,0.801,-0.107
50.384,-0.611,0.793,-0.104
50.394,-0.609,0.795,-0.107
50.404,-0.605,0.795,-0.107
50.414,-0.611,0.793,-0.109
50.424,-0.609,0.793,-0.105
50.434,-0.611,0.789,-0.102
50.444,-0.605,0.793,-0.104
50.454,-0.605,0.791,-0.107
50.464,-0.604,0.795,-0.102
50.474,-0.609,0.791,-0.104
50.484,-0.604,0.795,-0.104
50.494,-0.605,0.795,-0.105
50.503,-0.607,0.795,-0.105
50.513,-0.607,0.795,-0.104
50.523,-0.609,0.797,-0.104
50.533,-0.609,0.793,-0.107
50.543,-0.611,0.791,-0.105
50.553,-0.611,0.795,-0.107
50.563,-0.609,0.793,-0.107
50.573,-0.609,0.793,-0.107
50.583,-0.607,0.789,-0.107
50.593,-0.607,0.791,-0.104
50.603,-0.605,0.791,-0.104
50.613,-0.604,0.787,-0.100
50.623,-0.604,0.793,-0.102
50.633,-0.598,0.799,-0.100
50.642,-0.604,0.795,-0.104
50.652,-0.605,0.791,-0.104
50.662,-0.607,0.791,-0.105
50.672,-0.611,0.795,-0.107
50.682,-0.611,0.793,-0.109
50.692,-0.613,0.791,-0.109
50.702,-0.615,0.799,-0.111
50.712,-0.613,0.803,-0.107
50.722,-0.617,0.801,-0.107
50.732,-0.613,0.799,-0.107
50.742,-0.611,0.795,-0.107
50.752,-0.611,0.789,-0.105
50.762,-0.607,0.789,-0.105
50.772,-0.609,0.789,-0.104
50.782,-0.609,0.785,-0.105
50.791,-0.605,0.791,-0.104
50.801,-0.607,0.793,-0.102
50.811,-0.611,0.789,-0.105
50.821,-0.605,0.795,-0.104
50.831,-0.607,0.797,-0.102
50.841,-0.611,0.795,-0.104
50.851,-0.613,0.797,-0.105
50.861,-0.609,0.795,-0.107
50.871,-0.609,0.795,-0.107
50.881,-0.609,0.797,-0.105
50.891,-0.607,0.797,-0.104
50.901,-0.609,0.797,-0.104
50.911,-0.611,0.797,-0.105
50.921,-0.609,0.797,-0.107
50.930,-0.607,0.799,-0.107
50.940,-0.605,0.795,-0.104
50.950,-0.605,0.789,-0.104
50.960,-0.607,0.791,-0.104
50.970,-0.605,0.787,-0.104
50.980,-0.607,0.783,-0.104
50.990,-0.609,0.789,-0.105
51.000,-0.609,0.799,-0.104
51.010,-0.611,0.801,-0.105
51.020,-0.607,0.801,-0.105
51.030,-0.611,0.805,-0.105
51.040,-0.615,0.805,-0.107
51.050,-0.607,0.797,-0.105
51.060,-0.609,0.795,-0.107
51.070,-0.609,0.789,-0.107
51.079,-0.611,0.787,-0.105
51.089,-0.611,0.787,-0.104
51.099,-0.605,0.787,-0.104
51.109,-0.609,0.787,-0.102
51.119,-0.605,0.791,-0.104
51.129,-0.605,0.795,-0.105
51.139,-0.605,0.797,-0.104
51.149,-0.607,0.793,-0.109
51.159,-0.613,0.795,-0.107
51.169,-0.613,0.795,-0.105
51.179,-0.611,0.799,-0.107
51.189,-0.611,0.797,-0.105
51.199,-0.611,0.797,-0.109
51.209,-0.613,0.793,-0.105
51.218,-0.611,0.795,-0.105
51.228,-0.609,0.793,-0.105
51.238,-0.607,0.795,-0.107
51.248,-0.607,0.795,-0.105
51.258,-0.604,0.795,-0.105
51.268,-0.605,0.795,-0.104
51.278,-0.607,0.799,-0.109
51.288,-0.607,0.795,-0.107
51.298,-0.611,0.795,-0.105
51.308,-0.611,0.793,-0.105
51.318,-0.611,0.795,-0.107
51.328,-0.609,0.793,-0.107
51.338,-0.604,0.791,-0.109
51.348,-0.611,0.793,-0.107
51.358,-0.607,0.797,-0.105
51.367,-0.609,0.795,-0.107
51.377,-0.605,0.799,-0.105
51.387,-0.607,0.795,-0.105
51.397,-0.607,0.795,-0.107
51.407,-0.605,0.793,-0.105
51.417,-0.609,0.797,-0.105
51.427,-0.609,0.793,-0.105
51.437,-0.609,0.791,-0.105
51.447,-0.611,0.797,-0.105
51.457,-0.609,0.793,-0.109
51.467,-0.609,0.795,-0.105
51.477,-0.607,0.797,-0.105
51.487,-0.605,0.793,-0.102
51.497,-0.604,0.791,-0.102
51.506,-0.600,0.793,-0.098
51.516,-0.605,0.791,-0.107
51.526,-0.604,0.787,-0.105
51.536,-0.607,0.793,-0.104
51.546,-0.611,0.793,-0.104
51.556,-0.615,0.793,-0.107
51.566,-0.613,0.795,-0.107
51.576,-0.617,0.799,-0.107
51.586,-0.613,0.803,-0.109
51.596,-0.611,0.803,-0.109
51.606,-0.613,0.801,-0.105
51.616,-0.607,0.799,-0.105
51.626,-0.611,0.791,-0.105
51.636,-0.613,0.789,-0.105
51.645,-0.613,0.787,-0.107
51.655,-0.613,0.787,-0.107
51.665,-0.613,0.785,-0.105
51.675,-0.611,0.793,-0.107
51.685,-0.605,0.793,-0.105
51.695,-0.609,0.791,-0.105
51.705,-0.605,0.793,-0.105
51.715,-0.609,0.793,-0.104
51.725,-0.605,0.797,-0.105
51.735,-0.607,0.795,-0.105
51.745,-0.605,0.795,-0.104
51.755,-0.611,0.793,-0.109
51.765,-0.605,0.789,-0.107
51.775,-0.605,0.795,-0.107
51.785,-0.609,0.795,-0.107
51.794,-0.607,0.797,-0.105
51.804,-0.609,0.799,-0.107
51.814,-0.609,0.799,-0.104
51.824,-0.605,0.795,-0.105
51.834,-0.607,0.795,-0.107
51.844,-0.604,0.795,-0.104
51.854,-0.607,0.793,-0.102
51.864,-0.607,0.791,-0.105
51.874,-0.607,0.793,-0.104
51.884,-0.609,0.795,-0.104
51.894,-0.613,0.795,-0.105
51.904,-0.613,0.797,-0.105
51.914,-0.613,0.795,-0.104
51.924,-0.613,0.797,-0.105
51.933,-0.613,0.797,-0.107
51.943,-0.613,0.793,-0.107
51.953,-0.607,0.793,-0.105
51.963,-0.607,0.789,-0.105
51.973,-0.607,0.791,-0.105
51.983,-0.607,0.791,-0.102
51.993,-0.607,0.793,-0.105
52.003,-0.607,0.793,-0.107
52.013,-0.607,0.795,-0.105
52.023,-0.605,0.791,-0.107
52.033,-0.611,0.793,-0.107
52.043,-0.613,0.793,-0.109
52.053,-0.607,0.801,-0.105
52.063,-0.609,0.795,-0.107
52.073,-0.609,0.797,-0.107
52.082,-0.609,0.795,-0.107
52.092,-0.607,0.795,-0.104
52.102,-0.607,0.793,-0.104
52.112,-0.605,0.791,-0.109
52.122,-0.605,0.793,-0.104
52.132,-0.609,0.791,-0.105
52.142,-0.611,0.795,-0.107
52.152,-0.607,0.795,-0.102
52.162,-0.607,0.799,-0.102
52.172,-0.607,0.797,-0.104
52.182,-0.605,0.797,-0.104
52.192,-0.611,0.793,-0.107
52.202,-0.611,0.793,-0.107
52.212,-0.607,0.793,-0.104
52.221,-0.611,0.793,-0.105
52.231,-0.609,0.793,-0.104
52.241,-0.611,0.795,-0.105
52.251,-0.611,0.795,-0.105
52.261,-0.611,0.797,-0.107
52.271,-0.609,0.795,-0.105
52.281,-0.611,0.791,-0.105
52.291,-0.609,0.795,-0.105
52.301,-0.609,0.791,-0.105
52.311,-0.613,0.791,-0.107
52.321,-0.613,0.793,-0.109
52.331,-0.609,0.795,-0.105
52.341,-0.611,0.795,-0.109
52.351,-0.611,0.795,-0.105
52.361,-0.607,0.797,-0.102
52.370,-0.604,0.793,-0.102
52.380,-0.604,0.787,-0.102
52.390,-0.605,0.787,-0.100
52.400,-0.609,0.787,-0.105
52.410,-0.609,0.793,-0.100
52.420,-0.611,0.793,-0.104
52.430,-0.611,0.793,-0.107
52.440,-0.611,0.795,-0.105
52.450,-0.613,0.799,-0.105
52.460,-0.613,0.801,-0.102
52.470,-0.615,0.803,-0.107
52.480,-0.613,0.799,-0.111
52.490,-0.613,0.795,-0.109
52.500,-0.613,0.793,-0.111
52.509,-0.615,0.791,-0.107
52.519,-0.611,0.789,-0.104
52.529,-0.611,0.789,-0.107
52.539,-0.607,0.791,-0.107
52.549,-0.605,0.791,-0.105
52.559,-0.611,0.789,-0.104
52.569,-0.611,0.789,-0.105
52.579,-0.611,0.795,-0.104
52.589,-0.611,0.793,-0.107
52.599,-0.611,0.793,-0.107
52.609,-0.609,0.791,-0.105
52.619,-0.609,0.795,-0.104
52.629,-0.607,0.793,-0.105
52.639,-0.607,0.795,-0.105
52.649,-0.604,0.795,-0.105
52.658,-0.607,0.797,-0.107
52.668,-0.605,0.797,-0.105
52.678,-0.604,0.795,-0.109
52.688,-0.605,0.793,-0.105
52.698,-0.609,0.793,-0.102
52.708,-0.609,0.793,-0.105
52.718,-0.609,0.787,-0.105
52.728,-0.611,0.791,-0.104
52.738,-0.613,0.791,-0.105
52.748,-0.613,0.799,-0.105
52.758,-0.609,0.799,-0.104
52.768,-0.611,0.801,-0.107
52.778,-0.611,0.797,-0.102
52.788,-0.611,0.797,-0.104
52.797,-0.611,0.797,-0.104
52.807,-0.613,0.791,-0.107
52.817,-0.611,0.791,-0.104
52.827,-0.615,0.789,-0.104
52.837,-0.613,0.789,-0.104
52.847,-0.613,0.791,-0.104
52.857,-0.611,0.789,-0.105
52.867,-0.609,0.789,-0.105
52.877,-0.605,0.791,-0.105
52.887,-0.607,0.793,-0.105
52.897,-0.609,0.791,-0.102
52.907,-0.611,0.793,-0.105
52.917,-0.611,0.795,-0.109
52.927,-0.611,0.797,-0.107
52.937,-0.609,0.797,-0.107
52.946,-0.609,0.799,-0.109
52.956,-0.607,0.801,-0.105
52.966,-0.607,0.795,-0.107
52.976,-0.605,0.793,-0.105
52.986,-0.609,0.793,-0.105
52.996,-0.607,0.793,-0.105
53.006,-0.607,0.793,-0.105
53.016,-0.613,0.793,-0.105
53.026,-0.609,0.793,-0.107
53.036,-0.609,0.793,-0.105
53.046,-0.611,0.795,-0.105
53.056,-0.611,0.789,-0.104
53.066,-0.611,0.795,-0.109
53.076,-0.609,0.795,-0.104
53.085,-0.611,0.797,-0.105
53.095,-0.609,0.795,-0.107
53.105,-0.609,0.793,-0.105
53.115,-0.609,0.793,-0.107
53.125,-0.609,0.793,-0.105
53.135,-0.609,0.795,-0.105
53.145,-0.609,0.793,-0.107
53.155,-0.609,0.795,-0.104
53.165,-0.609,0.793,-0.104
53.175,-0.615,0.793,-0.107
53.185,-0.611,0.797,-0.105
53.195,-0.615,0.793,-0.107
53.205,-0.613,0.791,-0.107
53.215,-0.613,0.789,-0.107
53.225,-0.613,0.793,-0.105
53.234,-0.611,0.795,-0.104
53.244,-0.613,0.795,-0.107
53.254,-0.611,0.793,-0.105
53.264,-0.609,0.793,-0.104
53.274,-0.604,0.793,-0.098
53.284,-0.604,0.789,-0.104
53.294,-0.605,0.785,-0.102
53.304,-0.607,0.791,-0.104
53.314,-0.609,0.789,-0.104
53.324,-0.613,0.791,-0.105
53.334,-0.613,0.789,-0.105
53.344,-0.615,0.793,-0.105
53.354,-0.617,0.801,-0.104
53.364,-0.617,0.803,-0.105
53.373,-0.617,0.797,-0.107
53.383,-0.617,0.799,-0.109
53.393,-0.615,0.791,-0.109
53.403,-0.617,0.789,-0.109
53.413,-0.619,0.787,-0.107
53.423,-0.619,0.789,-0.107
53.433,-0.613,0.789,-0.105
53.443,-0.609,0.793,-0.104
53.453,-0.607,0.791,-0.102
53.463,-0.605,0.793,-0.102
53.473,-0.609,0.793,-0.104
53.483,-0.609,0.793,-0.105
53.493,-0.607,0.791,-0.107
53.503,-0.609,0.789,-0.102
53.513,-0.611,0.795,-0.107
53.522,-0.611,0.795,-0.105
53.532,-0.609,0.793,-0.105
53.542,-0.609,0.799,-0.105
53.552,-0.607,0.795,-0.109
53.562,-0.609,0.799,-0.105
53.572,-0.611,0.795,-0.104
53.582,-0.607,0.793,-0.105
53.592,-0.605,0.791,-0.105
53.602,-0.605,0.793,-0.104
53.612,-0.605,0.795,-0.105
53.622,-0.602,0.795,-0.105
53.632,-0.607,0.793,-0.105
53.642,-0.611,0.795,-0.104
53.652,-0.607,0.797,-0.105
53.661,-0.609,0.799,-0.107
53.671,-0.613,0.799,-0.105
53.681,-0.613,0.799,-0.104
53.691,-0.615,0.795,-0.105
53.701,-0.613,0.797,-0.105
53.711,-0.615,0.795,-0.107
53.721,-0.615,0.789,-0.104
53.731,-0.615,0.787,-0.105
53.741,-0.617,0.791,-0.105
53.751,-0.615,0.785,-0.107
53.761,-0.611,0.785,-0.105
53.771,-0.609,0.789,-0.105
53.781,-0.607,0.793,-0.104
53.791,-0.609,0.793,-0.105
53.801,-0.607,0.795,-0.107
53.810,-0.607,0.797,-0.104
53.820,-0.609,0.801,-0.107
53.830,-0.611,0.797,-0.109
53.840,-0.609,0.793,-0.107
53.850,-0.609,0.793,-0.107
53.860,-0.607,0.793,-0.107
53.870,-0.609,0.795,-0.107
53.880,-0.609,0.793,-0.107
53.890,-0.609,0.791,-0.107
53.900,-0.609,0.793,-0.105
53.910,-0.609,0.793,-0.105
53.920,-0.607,0.795,-0.107
53.930,-0.611,0.799,-0.105
53.940,-0.607,0.793,-0.104
53.949,-0.611,0.793,-0.105
53.959,-0.611,0.795,-0.107
53.969,-0.613,0.793,-0.107
53.979,-0.611,0.795,-0.105
53.989,-0.611,0.793,-0.107
53.999,-0.611,0.791,-0.105
54.009,-0.609,0.793,-0.104
54.019,-0.611,0.791,-0.105
54.029,-0.607,0.791,-0.107
54.039,-0.609,0.799,-0.105
54.049,-0.611,0.795,-0.109
54.059,-0.613,0.795,-0.105
54.069,-0.609,0.795,-0.104
54.079,-0.613,0.795,-0.105
54.089,-0.613,0.795,-0.104
54.098,-0.611,0.793,-0.107
54.108,-0.611,0.791,-0.107
54.118,-0.609,0.795,-0.105
54.128,-0.609,0.793,-0.104
54.138,-0.607,0.791,-0.104
54.148,-0.605,0.789,-0.102
54.158,-0.604,0.787,-0.100
54.168,-0.604,0.795,-0.102
54.178,-0.604,0.791,-0.102
54.188,-0.607,0.789,-0.104
54.198,-0.611,0.789,-0.104
54.208,-0.613,0.797,-0.107
54.218,-0.617,0.799,-0.107
54.228,-0.621,0.795,-0.111
54.237,-0.619,0.797,-0.107
54.247,-0.617,0.797,-0.105
54.257,-0.615,0.801,-0.105
54.267,-0.613,0.795,-0.104
54.277,-0.613,0.791,-0.107
54.287,-0.613,0.791,-0.105
54.297,-0.611,0.785,-0.105
54.307,-0.609,0.791,-0.105
54.317,-0.609,0.787,-0.104
54.327,-0.607,0.785,-0.102
54.337,-0.605,0.789,-0.102
54.347,-0.604,0.789,-0.102
54.357,-0.605,0.793,-0.104
54.367,-0.605,0.793,-0.102
54.377,-0.605,0.797,-0.104
54.386,-0.611,0.793,-0.105
54.396,-0.605,0.797,-0.107
54.406,-0.607,0.795,-0.107
54.416,-0.609,0.797,-0.104
54.426,-0.607,0.795,-0.107
54.436,-0.607,0.795,-0.105
54.446,-0.611,0.795,-0.109
54.456,-0.609,0.795,-0.107
54.466,-0.611,0.799,-0.109
54.476,-0.607,0.795,-0.102
54.486,-0.611,0.789,-0.104
54.496,-0.607,0.791,-0.104
54.506,-0.607,0.791,-0.104
54.516,-0.607,0.787,-0.105
54.525,-0.609,0.789,-0.105
54.535,-0.609,0.797,-0.107
54.545,-0.611,0.797,-0.105
54.555,-0.613,0.803,-0.105
54.565,-0.615,0.801,-0.105
54.575,-0.615,0.801,-0.105
54.585,-0.613,0.797,-0.105
54.595,-0.615,0.791,-0.105
54.605,-0.613,0.789,-0.107
54.615,-0.611,0.789,-0.105
54.625,-0.611,0.789,-0.104
54.635,-0.609,0.789,-0.102
54.645,-0.607,0.791,-0.104
54.655,-0.607,0.787,-0.104
54.665,-0.607,0.791,-0.102
54.674,-0.607,0.791,-0.105
54.684,-0.609,0.793,-0.105
54.694,-0.607,0.795,-0.107
54.704,-0.611,0.795,-0.109
54.714,-0.607,0.797,-0.109
54.724,-0.609,0.797,-0.107
54.734,-0.607,0.797,-0.113
54.744,-0.609,0.801,-0.107
54.754,-0.605,0.797,-0.107
54.764,-0.605,0.793,-0.105
54.774,-0.605,0.795,-0.109
54.784,-0.609,0.797,-0.107
54.794,-0.605,0.795,-0.104
54.804,-0.607,0.795,-0.107
54.813,-0.605,0.795,-0.107
54.823,-0.605,0.793,-0.107
54.833,-0.607,0.795,-0.105
54.843,-0.613,0.793,-0.105
54.853,-0.609,0.789,-0.107
54.863,-0.609,0.793,-0.107
54.873,-0.609,0.793,-0.107
54.883,-0.613,0.797,-0.105
54.893,-0.611,0.795,-0.104
54.903,-0.611,0.795,-0.107
54.913,-0.611,0.797,-0.105
54.923,-0.613,0.795,-0.104
54.933,-0.609,0.791,-0.105
54.943,-0.611,0.793,-0.109
54.953,-0.609,0.795,-0.105
54.962,-0.607,0.793,-0.104
54.972,-0.605,0.795,-0.107
54.982,-0.609,0.793,-0.105
54.992,-0.607,0.795,-0.104
55.002,-0.609,0.793,-0.104
55.012,-0.605,0.791,-0.105
55.022,-0.605,0.793,-0.100
55.032,-0.605,0.791,-0.100
55.042,-0.607,0.793,-0.104
55.052,-0.604,0.793,-0.104
55.062,-0.607,0.793,-0.100
55.072,-0.605,0.797,-0.105
55.082,-0.613,0.793,-0.109
55.092,-0.613,0.793,-0.105
55.101,-0.611,0.801,-0.107
55.111,-0.615,0.799,-0.105
55.121,-0.617,0.797,-0.107
55.131,-0.617,0.797,-0.113
55.141,-0.617,0.793,-0.109
55.151,-0.615,0.793,-0.105
55.161,-0.615,0.791,-0.109
55.171,-0.611,0.791,-0.109
55.181,-0.609,0.789,-0.107
55.191,-0.605,0.791,-0.107
55.201,-0.605,0.793,-0.105
55.211,-0.605,0.789,-0.105
55.221,-0.605,0.793,-0.109
55.231,-0.607,0.791,-0.107
55.241,-0.607,0.791,-0.105
55.250,-0.607,0.795,-0.107
55.260,-0.609,0.795,-0.109
55.270,-0.609,0.795,-0.105
55.280,-0.607,0.797,-0.105
55.290,-0.607,0.797,-0.107
55.300,-0.605,0.797,-0.109
55.310,-0.605,0.797,-0.107
55.320,-0.607,0.797,-0.107
55.330,-0.605,0.795,-0.105
55.340,-0.604,0.793,-0.107
55.350,-0.607,0.791,-0.105
55.360,-0.607,0.793,-0.104
55.370,-0.605,0.791,-0.105
55.380,-0.607,0.787,-0.105
55.389,-0.605,0.793,-0.107
55.399,-0.609,0.795,-0.107
55.409,-0.611,0.801,-0.104
55.419,-0.613,0.799,-0.104
55.429,-0.613,0.797,-0.105
55.439,-0.615,0.799,-0.105
55.449,-0.613,0.797,-0.105
55.459,-0.613,0.793,-0.102
55.469,-0.611,0.793,-0.105
55.479,-0.615,0.787,-0.102
55.489,-0.615,0.789,-0.105
55.499,-0.609,0.789,-0.107
55.509,-0.611,0.787,-0.104
55.519,-0.613,0.787,-0.107
55.529,-0.609,0.791,-0.105
55.538,-0.607,0.791,-0.104
55.548,-0.607,0.793,-0.104
55.558,-0.607,0.795,-0.109
55.568,-0.605,0.799,-0.107
55.578,-0.609,0.797,-0.107
55.588,-0.611,0.799,-0.107
55.598,-0.609,0.801,-0.105
55.608,-0.609,0.795,-0.107
55.618,-0.611,0.795,-0.109
55.628,-0.609,0.793,-0.104
55.638,-0.607,0.797,-0.107
55.648,-0.613,0.795,-0.105
55.658,-0.607,0.793,-0.100
55.668,-0.607,0.793,-0.105
55.677,-0.607,0.793,-0.105
55.687,-0.605,0.797,-0.104
55.697,-0.607,0.793,-0.100
55.707,-0.607,0.795,-0.102
55.717,-0.611,0.795,-0.104
55.727,-0.611,0.793,-0.104
55.737,-0.611,0.795,-0.105
55.747,-0.613,0.791,-0.105
55.757,-0.609,0.791,-0.105
55.767,-0.609,0.793,-0.105
55.777,-0.607,0.795,-0.102
55.787,-0.609,0.795,-0.102
55.797,-0.607,0.793,-0.105
55.807,-0.607,0.795,-0.105
55.817,-0.609,0.795,-0.105
55.826,-0.615,0.795,-0.105
55.836,-0.611,0.791,-0.109
55.846,-0.609,0.795,-0.111
55.856,-0.611,0.793,-0.109
55.866,-0.611,0.795,-0.109
55.876,-0.613,0.793,-0.107
55.886,-0.611,0.797,-0.105
55.896,-0.609,0.797,-0.105
55.906,-0.609,0.795,-0.104
55.916,-0.607,0.797,-0.102
55.926,-0.602,0.791,-0.098
55.936,-0.605,0.787,-0.104
55.946,-0.605,0.789,-0.105
55.956,-0.607,0.793,-0.105
55.965,-0.611,0.793,-0.105
55.975,-0.609,0.793,-0.105
55.985,-0.613,0.795,-0.109
55.995,-0.609,0.797,-0.105
56.005,-0.611,0.797,-0.107
56.015,-0.615,0.801,-0.105
56.025,-0.615,0.795,-0.111
56.035,-0.619,0.791,-0.107
56.045,-0.617,0.787,-0.107
56.055,-0.617,0.789,-0.107
56.065,-0.615,0.791,-0.107
56.075,-0.615,0.789,-0.107
56.085,-0.609,0.789,-0.107
56.095,-0.607,0.785,-0.105
56.105,-0.607,0.793,-0.104
56.114,-0.611,0.793,-0.105
56.124,-0.609,0.791,-0.107
56.134,-0.607,0.795,-0.107
56.144,-0.611,0.793,-0.105
56.154,-0.611,0.795,-0.105
56.164,-0.605,0.793,-0.104
56.174,-0.607,0.793,-0.104
56.184,-0.607,0.791,-0.104
56.194,-0.605,0.793,-0.104
56.204,-0.607,0.789,-0.107
56.214,-0.609,0.791,-0.105
56.224,-0.613,0.795,-0.105
56.234,-0.611,0.793,-0.104
56.244,-0.611,0.793,-0.107
56.253,-0.611,0.795,-0.104
56.263,-0.607,0.791,-0.104
56.273,-0.604,0.793,-0.107
56.283,-0.609,0.795,-0.105
56.293,-0.609,0.799,-0.104
56.303,-0.611,0.797,-0.107
56.313,-0.607,0.793,-0.105
56.323,-0.609,0.793,-0.107
56.333,-0.617,0.795,-0.104
56.343,-0.615,0.793,-0.107
56.353,-0.615,0.791,-0.105
56.363,-0.619,0.791,-0.105
56.373,-0.615,0.791,-0.107
56.383,-0.611,0.787,-0.107
56.393,-0.613,0.791,-0.102
56.402,-0.607,0.789,-0.104
56.412,-0.607,0.787,-0.104
56.422,-0.609,0.795,-0.105
56.432,-0.607,0.793,-0.104
56.442,-0.607,0.797,-0.105
56.452,-0.609,0.795,-0.105
56.462,-0.611,0.793,-0.111
56.472,-0.615,0.795,-0.109
56.482,-0.611,0.797,-0.111
56.492,-0.607,0.795,-0.109
56.502,-0.611,0.793,-0.109
56.512,-0.611,0.791,-0.107
56.522,-0.611,0.793,-0.109
56.532,-0.609,0.797,-0.105
56.541,-0.607,0.795,-0.107
56.551,-0.607,0.793,-0.107
56.561,-0.607,0.797,-0.104
56.571,-0.607,0.793,-0.105
56.581,-0.609,0.789,-0.105
56.591,-0.609,0.789,-0.105
56.601,-0.611,0.793,-0.105
56.611,-0.611,0.795,-0.107
56.621,-0.613,0.795,-0.107
56.631,-0.615,0.797,-0.109
56.641,-0.609,0.801,-0.107
56.651,-0.609,0.795,-0.107
56.661,-0.609,0.795,-0.109
56.671,-0.611,0.793,-0.105
56.680,-0.607,0.791,-0.105
56.690,-0.607,0.789,-0.104
56.700,-0.604,0.795,-0.102
56.710,-0.607,0.793,-0.104
56.720,-0.609,0.795,-0.105
56.730,-0.609,0.795,-0.104
56.740,-0.613,0.791,-0.104
56.750,-0.613,0.793,-0.105
56.760,-0.613,0.791,-0.109
56.770,-0.615,0.791,-0.104
56.780,-0.617,0.793,-0.104
56.790,-0.615,0.793,-0.105
56.800,-0.615,0.795,-0.107
56.810,-0.615,0.791,-0.105
56.820,-0.615,0.797,-0.104
56.829,-0.615,0.795,-0.105
56.839,-0.611,0.789,-0.102
56.849,-0.611,0.791,-0.100
56.859,-0.609,0.791,-0.100
56.869,-0.611,0.787,-0.102
56.879,-0.615,0.787,-0.102
56.889,-0.611,0.787,-0.102
56.899,-0.611,0.789,-0.105
56.909,-0.613,0.791,-0.104
56.919,-0.611,0.793,-0.105
56.929,-0.613,0.795,-0.104
56.939,-0.613,0.799,-0.105
56.949,-0.617,0.801,-0.105
56.959,-0.615,0.797,-0.105
56.968,-0.617,0.795,-0.109
56.978,-0.617,0.789,-0.109
56.988,-0.613,0.791,-0.109
56.998,-0.609,0.787,-0.105
57.008,-0.611,0.791,-0.109
57.018,-0.607,0.791,-0.105
57.028,-0.607,0.795,-0.107
57.038,-0.609,0.795,-0.105
57.048,-0.605,0.795,-0.104
57.058,-0.607,0.795,-0.104
57.068,-0.609,0.791,-0.104
57.078,-0.611,0.793,-0.105
57.088,-0.611,0.791,-0.105
57.098,-0.613,0.791,-0.105
57.108,-0.609,0.795,-0.102
57.117,-0.607,0.797,-0.107
57.127,-0.611,0.795,-0.105
57.137,-0.609,0.795,-0.105
57.147,-0.611,0.797,-0.105
57.157,-0.615,0.795,-0.104
57.167,-0.609,0.791,-0.107
57.177,-0.609,0.789,-0.105
57.187,-0.607,0.791,-0.107
57.197,-0.611,0.791,-0.107
57.207,-0.611,0.791,-0.109
57.217,-0.615,0.793,-0.107
57.227,-0.617,0.793,-0.107
57.237,-0.611,0.799,-0.109
57.247,-0.613,0.799,-0.107
57.256,-0.611,0.797,-0.105
57.266,-0.615,0.797,-0.107
57.276,-0.613,0.793,-0.107
57.286,-0.611,0.795,-0.104
57.296,-0.611,0.795,-0.107
57.306,-0.615,0.787,-0.107
57.316,-0.617,0.789,-0.105
57.326,-0.613,0.791,-0.104
57.336,-0.611,0.787,-0.102
57.346,-0.609,0.789,-0.105
57.356,-0.613,0.787,-0.104
57.366,-0.609,0.789,-0.107
57.376,-0.611,0.793,-0.107
57.386,-0.611,0.795,-0.105
57.396,-0.615,0.793,-0.109
57.405,-0.611,0.793,-0.109
57.415,-0.611,0.795,-0.107
57.425,-0.613,0.793,-0.109
57.435,-0.613,0.791,-0.111
57.445,-0.611,0.789,-0.109
57.455,-0.613,0.791,-0.105
57.465,-0.607,0.797,-0.105
57.475,-0.611,0.795,-0.105
57.485,-0.605,0.795,-0.107
57.495,-0.605,0.797,-0.105
57.505,-0.611,0.797,-0.104
57.515,-0.607,0.795,-0.104
57.525,-0.607,0.795,-0.107
57.535,-0.613,0.791,-0.105
57.544,-0.611,0.795,-0.107
57.554,-0.615,0.791,-0.104
57.564,-0.613,0.795,-0.104
57.574,-0.615,0.795,-0.105
57.584,-0.609,0.795,-0.105
57.594,-0.611,0.791,-0.107
57.604,-0.609,0.789,-0.104
57.614,-0.609,0.789,-0.107
57.624,-0.605,0.789,-0.104
57.634,-0.607,0.791,-0.107
57.644,-0.607,0.793,-0.105
57.654,-0.615,0.793,-0.107
57.664,-0.611,0.793,-0.105
57.674,-0.621,0.795,-0.107
57.684,-0.623,0.803,-0.105
57.693,-0.621,0.801,-0.107
57.703,-0.619,0.795,-0.107
57.713,-0.615,0.787,-0.105
57.723,-0.615,0.785,-0.109
57.733,-0.617,0.781,-0.104
57.743,-0.615,0.783,-0.105
57.753,-0.611,0.787,-0.102
57.763,-0.607,0.785,-0.098
57.773,-0.605,0.791,-0.098
57.783,-0.605,0.789,-0.100
57.793,-0.609,0.785,-0.102
57.803,-0.611,0.781,-0.104
57.813,-0.613,0.791,-0.105
57.823,-0.621,0.793,-0.109
57.832,-0.619,0.793,-0.109
57.842,-0.617,0.799,-0.107
57.852,-0.619,0.801,-0.107
57.862,-0.617,0.803,-0.105
57.872,-0.613,0.801,-0.105
57.882,-0.615,0.797,-0.107
57.892,-0.613,0.791,-0.105
57.902,-0.611,0.791,-0.105
57.912,-0.611,0.785,-0.105
57.922,-0.613,0.781,-0.104
57.932,-0.607,0.783,-0.107
57.942,-0.611,0.785,-0.105
57.952,-0.609,0.791,-0.102
57.962,-0.609,0.791,-0.104
57.972,-0.607,0.795,-0.104
57.981,-0.607,0.799,-0.100
57.991,-0.609,0.797,-0.100
58.001,-0.609,0.793,-0.104
58.011,-0.611,0.793,-0.104
58.021,-0.611,0.793,-0.102
58.031,-0.613,0.793,-0.102
58.041,-0.613,0.793,-0.107
58.051,-0.613,0.797,-0.105
58.061,-0.615,0.797,-0.102
58.071,-0.615,0.787,-0.102
58.081,-0.611,0.781,-0.104
58.091,-0.611,0.779,-0.104
58.101,-0.615,0.787,-0.100
58.111,-0.615,0.795,-0.102
58.120,-0.619,0.797,-0.105
58.130,-0.617,0.789,-0.102
58.140,-0.619,0.791,-0.104
58.150,-0.617,0.791,-0.100
58.160,-0.617,0.789,-0.100
58.170,-0.613,0.791,-0.102
58.180,-0.613,0.797,-0.104
58.190,-0.617,0.795,-0.104
58.200,-0.617,0.795,-0.104
58.210,-0.619,0.793,-0.105
58.220,-0.617,0.787,-0.105
58.230,-0.617,0.783,-0.104
58.240,-0.615,0.785,-0.102
58.250,-0.615,0.785,-0.102
58.260,-0.611,0.781,-0.102
58.269,-0.611,0.785,-0.104
58.279,-0.611,0.789,-0.102
58.289,-0.615,0.787,-0.104
58.299,-0.613,0.793,-0.107
58.309,-0.617,0.793,-0.107
58.319,-0.619,0.797,-0.107
58.329,-0.619,0.793,-0.107
58.339,-0.619,0.791,-0.105
58.349,-0.615,0.791,-0.109
58.359,-0.615,0.789,-0.107
58.369,-0.615,0.791,-0.107
58.379,-0.613,0.789,-0.105
58.389,-0.617,0.795,-0.109
58.399,-0.615,0.795,-0.109
58.408,-0.619,0.793,-0.107
58.418,-0.621,0.793,-0.105
58.428,-0.619,0.789,-0.109
58.438,-0.619,0.789,-0.107
58.448,-0.617,0.789,-0.104
58.458,-0.617,0.791,-0.105
58.468,-0.617,0.789,-0.105
58.478,-0.617,0.787,-0.105
58.488,-0.613,0.785,-0.104
58.498,-0.615,0.787,-0.105
58.508,-0.615,0.787,-0.105
58.518,-0.619,0.789,-0.104
58.528,-0.615,0.787,-0.105
58.538,-0.623,0.785,-0.105
58.548,-0.621,0.783,-0.109
58.557,-0.623,0.783,-0.107
58.567,-0.623,0.785,-0.109
58.577,-0.623,0.779,-0.107
58.587,-0.625,0.783,-0.107
58.597,-0.619,0.789,-0.105
58.607,-0.617,0.789,-0.109
58.617,-0.611,0.795,-0.105
58.627,-0.615,0.793,-0.105
58.637,-0.613,0.789,-0.102
58.647,-0.613,0.793,-0.102
58.657,-0.617,0.789,-0.102
58.667,-0.617,0.785,-0.102
58.677,-0.619,0.779,-0.105
58.687,-0.615,0.789,-0.104
58.696,-0.621,0.783,-0.105
58.706,-0.627,0.779,-0.111
58.716,-0.625,0.785,-0.109
58.726,-0.623,0.787,-0.105
58.736,-0.625,0.795,-0.104
58.746,-0.621,0.793,-0.107
58.756,-0.625,0.793,-0.104
58.766,-0.623,0.787,-0.105
58.776,-0.621,0.787,-0.102
58.786,-0.619,0.781,-0.104
58.796,-0.623,0.783,-0.105
58.806,-0.619,0.783,-0.104
58.816,-0.621,0.785,-0.102
58.826,-0.617,0.787,-0.104
58.836,-0.615,0.785,-0.098
58.845,-0.611,0.789,-0.098
58.855,-0.617,0.791,-0.100
58.865,-0.619,0.789,-0.102
58.875,-0.617,0.787,-0.104
58.885,-0.621,0.783,-0.102
58.895,-0.619,0.785,-0.102
58.905,-0.621,0.785,-0.107
58.915,-0.623,0.787,-0.104
58.925,-0.621,0.791,-0.104
58.935,-0.623,0.789,-0.104
58.945,-0.623,0.791,-0.104
58.955,-0.619,0.791,-0.104
58.965,-0.617,0.789,-0.102
58.975,-0.615,0.783,-0.102
58.984,-0.617,0.785,-0.102
58.994,-0.617,0.781,-0.105
59.004,-0.619,0.783,-0.104
59.014,-0.623,0.783,-0.107
59.024,-0.625,0.789,-0.104
59.034,-0.623,0.791,-0.104
59.044,-0.621,0.793,-0.102
59.054,-0.623,0.797,-0.102
59.064,-0.621,0.789,-0.104
59.074,-0.621,0.789,-0.105
59.084,-0.621,0.785,-0.105
59.094,-0.623,0.779,-0.104
59.104,-0.623,0.779,-0.104
59.114,-0.623,0.783,-0.102
59.124,-0.623,0.787,-0.105
59.133,-0.621,0.787,-0.104
59.143,-0.621,0.785,-0.104
59.153,-0.617,0.781,-0.102
59.163,-0.619,0.783,-0.104
59.173,-0.617,0.783,-0.104
59.183,-0.617,0.785,-0.104
59.193,-0.621,0.789,-0.104
59.203,-0.619,0.791,-0.107
59.213,-0.617,0.793,-0.107
59.223,-0.621,0.795,-0.105
59.233,-0.621,0.789,-0.104
59.243,-0.625,0.787,-0.104
59.253,-0.625,0.785,-0.107
59.263,-0.619,0.785,-0.104
59.272,-0.623,0.781,-0.105
59.282,-0.617,0.783,-0.107
59.292,-0.621,0.785,-0.104
59.302,-0.617,0.789,-0.104
59.312,-0.615,0.791,-0.102
59.322,-0.617,0.791,-0.105
59.332,-0.617,0.789,-0.105
59.342,-0.615,0.787,-0.104
59.352,-0.619,0.789,-0.104
