df_hash,22ZHK4.MYBFT3
device,HZ2X61
project_hash,29R7
project_name,istanbul_aydin_university
person_hash,29R7.F30J
person_label,V40
date_time_start,2025-10-27_13-34-00.815000_+03
date_time_start_unix,1761557640.815
date_time_end,2025-10-27_13-42-19.414000_+03
length_difference_noticed,no

time,acc_x,acc_y,acc_z
5.325,-0.311,0.984,0.027
5.335,-0.314,0.984,0.025
5.345,-0.316,0.986,0.025
5.355,-0.314,0.982,0.031
5.365,-0.312,0.986,0.023
5.375,-0.314,0.982,0.023
5.385,-0.314,0.977,0.025
5.395,-0.314,0.977,0.023
5.405,-0.314,0.975,0.025
5.415,-0.318,0.975,0.027
5.425,-0.322,0.975,0.025
5.435,-0.322,0.979,0.027
5.444,-0.322,0.977,0.029
5.454,-0.322,0.979,0.033
5.464,-0.324,0.977,0.033
5.474,-0.324,0.980,0.031
5.484,-0.322,0.977,0.031
5.494,-0.320,0.979,0.037
5.504,-0.316,0.979,0.033
5.514,-0.316,0.975,0.035
5.524,-0.318,0.975,0.031
5.534,-0.320,0.977,0.033
5.544,-0.320,0.980,0.031
5.554,-0.322,0.979,0.031
5.564,-0.322,0.980,0.033
5.573,-0.314,0.980,0.035
5.583,-0.320,0.982,0.031
5.593,-0.314,0.980,0.033
5.603,-0.316,0.980,0.031
5.613,-0.316,0.980,0.031
5.623,-0.314,0.980,0.033
5.633,-0.314,0.980,0.031
5.643,-0.316,0.982,0.031
5.653,-0.312,0.979,0.031
5.663,-0.312,0.982,0.031
5.673,-0.312,0.986,0.033
5.683,-0.307,0.986,0.031
5.693,-0.305,0.984,0.033
5.703,-0.307,0.982,0.035
5.712,-0.307,0.980,0.031
5.722,-0.309,0.982,0.029
5.732,-0.309,0.984,0.031
5.742,-0.311,0.980,0.031
5.752,-0.312,0.982,0.031
5.762,-0.314,0.982,0.029
5.772,-0.316,0.982,0.031
5.782,-0.314,0.979,0.029
5.792,-0.314,0.977,0.031
5.802,-0.318,0.977,0.031
5.812,-0.314,0.979,0.033
5.822,-0.314,0.979,0.033
5.832,-0.314,0.979,0.033
5.841,-0.318,0.979,0.029
5.851,-0.320,0.975,0.035
5.861,-0.318,0.977,0.031
5.871,-0.318,0.975,0.033
5.881,-0.318,0.975,0.031
5.891,-0.316,0.977,0.035
5.901,-0.316,0.980,0.033
5.911,-0.316,0.977,0.033
5.921,-0.314,0.980,0.031
5.931,-0.314,0.982,0.033
5.941,-0.318,0.984,0.031
5.951,-0.314,0.980,0.031
5.961,-0.314,0.982,0.029
5.970,-0.316,0.982,0.033
5.980,-0.316,0.982,0.031
5.990,-0.314,0.975,0.027
6.000,-0.318,0.977,0.027
6.010,-0.322,0.979,0.029
6.020,-0.318,0.982,0.025
6.030,-0.320,0.986,0.027
6.040,-0.322,0.982,0.029
6.050,-0.318,0.984,0.029
6.060,-0.318,0.982,0.029
6.070,-0.316,0.980,0.033
6.080,-0.316,0.980,0.031
6.090,-0.312,0.982,0.033
6.100,-0.309,0.980,0.035
6.109,-0.311,0.982,0.035
6.119,-0.312,0.980,0.033
6.129,-0.314,0.980,0.039
6.139,-0.312,0.980,0.035
6.149,-0.314,0.977,0.035
6.159,-0.316,0.979,0.035
6.169,-0.318,0.977,0.031
6.179,-0.314,0.979,0.033
6.189,-0.318,0.979,0.033
6.199,-0.318,0.979,0.031
6.209,-0.320,0.980,0.033
6.219,-0.324,0.975,0.031
6.229,-0.322,0.980,0.033
6.238,-0.322,0.982,0.033
6.248,-0.320,0.977,0.031
6.258,-0.320,0.980,0.033
6.268,-0.322,0.980,0.031
6.278,-0.322,0.980,0.031
6.288,-0.326,0.982,0.031
6.298,-0.320,0.982,0.033
6.308,-0.320,0.980,0.033
6.318,-0.318,0.982,0.031
6.328,-0.316,0.977,0.033
6.338,-0.316,0.975,0.035
6.348,-0.316,0.971,0.035
6.358,-0.320,0.975,0.035
6.367,-0.320,0.979,0.035
6.377,-0.320,0.979,0.033
6.387,-0.320,0.979,0.033
6.397,-0.322,0.980,0.033
6.407,-0.326,0.980,0.031
6.417,-0.324,0.979,0.033
6.427,-0.324,0.979,0.033
6.437,-0.322,0.979,0.033
6.447,-0.322,0.979,0.031
6.457,-0.322,0.979,0.029
6.467,-0.324,0.977,0.029
6.477,-0.324,0.980,0.031
6.487,-0.322,0.980,0.029
6.497,-0.322,0.982,0.029
6.506,-0.320,0.984,0.035
6.516,-0.318,0.982,0.033
6.526,-0.316,0.977,0.035
6.536,-0.314,0.973,0.031
6.546,-0.316,0.973,0.033
6.556,-0.316,0.977,0.035
6.566,-0.320,0.980,0.031
6.576,-0.316,0.980,0.033
6.586,-0.316,0.980,0.033
6.596,-0.316,0.980,0.035
6.606,-0.320,0.980,0.035
6.616,-0.320,0.979,0.035
6.626,-0.316,0.977,0.031
6.635,-0.316,0.975,0.035
6.645,-0.316,0.979,0.039
6.655,-0.316,0.979,0.033
6.665,-0.316,0.980,0.031
6.675,-0.316,0.982,0.033
6.685,-0.318,0.979,0.033
6.695,-0.316,0.980,0.033
6.705,-0.320,0.982,0.033
6.715,-0.318,0.980,0.031
6.725,-0.322,0.980,0.033
6.735,-0.322,0.980,0.029
6.745,-0.320,0.979,0.031
6.755,-0.318,0.980,0.029
6.764,-0.320,0.979,0.029
6.774,-0.320,0.979,0.029
6.784,-0.324,0.980,0.031
6.794,-0.320,0.980,0.029
6.804,-0.318,0.982,0.029
6.814,-0.320,0.977,0.029
6.824,-0.322,0.980,0.027
6.834,-0.320,0.975,0.029
6.844,-0.320,0.977,0.027
6.854,-0.322,0.979,0.031
6.864,-0.322,0.980,0.033
6.874,-0.322,0.982,0.031
6.884,-0.320,0.980,0.025
6.894,-0.322,0.979,0.031
6.903,-0.324,0.979,0.033
6.913,-0.320,0.979,0.031
6.923,-0.322,0.977,0.027
6.933,-0.318,0.977,0.027
6.943,-0.318,0.975,0.031
6.953,-0.318,0.975,0.033
6.963,-0.318,0.979,0.029
6.973,-0.320,0.975,0.029
6.983,-0.320,0.977,0.029
6.993,-0.320,0.984,0.029
7.003,-0.322,0.982,0.031
7.013,-0.324,0.980,0.027
7.023,-0.318,0.979,0.027
7.032,-0.320,0.982,0.027
7.042,-0.324,0.986,0.029
7.052,-0.326,0.980,0.027
7.062,-0.324,0.982,0.027
7.072,-0.324,0.979,0.027
7.082,-0.326,0.982,0.027
7.092,-0.324,0.982,0.027
7.102,-0.324,0.982,0.027
7.112,-0.324,0.977,0.027
7.122,-0.320,0.977,0.029
7.132,-0.320,0.977,0.029
7.142,-0.320,0.979,0.031
7.152,-0.318,0.975,0.029
7.162,-0.318,0.975,0.031
7.171,-0.320,0.979,0.031
7.181,-0.322,0.979,0.029
7.191,-0.324,0.979,0.031
7.201,-0.324,0.980,0.033
7.211,-0.326,0.982,0.027
7.221,-0.326,0.980,0.033
7.231,-0.326,0.982,0.031
7.241,-0.324,0.980,0.031
7.251,-0.324,0.977,0.027
7.261,-0.324,0.977,0.029
7.271,-0.324,0.979,0.029
7.281,-0.326,0.982,0.031
7.291,-0.322,0.977,0.033
7.300,-0.318,0.982,0.033
7.310,-0.318,0.984,0.035
7.320,-0.318,0.979,0.033
7.330,-0.316,0.973,0.029
7.340,-0.318,0.973,0.025
7.350,-0.316,0.973,0.031
7.360,-0.318,0.980,0.033
7.370,-0.322,0.982,0.029
7.380,-0.320,0.982,0.031
7.390,-0.318,0.984,0.033
7.400,-0.320,0.984,0.031
7.410,-0.318,0.980,0.031
7.420,-0.318,0.982,0.031
7.429,-0.318,0.979,0.029
7.439,-0.314,0.979,0.029
7.449,-0.318,0.977,0.033
7.459,-0.316,0.979,0.031
7.469,-0.314,0.979,0.033
7.479,-0.316,0.977,0.033
7.489,-0.318,0.979,0.029
7.499,-0.320,0.980,0.029
7.509,-0.320,0.979,0.027
7.519,-0.320,0.982,0.029
7.529,-0.318,0.977,0.027
7.539,-0.324,0.979,0.027
7.549,-0.322,0.980,0.023
7.559,-0.322,0.979,0.027
7.568,-0.324,0.979,0.025
7.578,-0.322,0.979,0.023
7.588,-0.324,0.975,0.027
7.598,-0.320,0.977,0.027
7.608,-0.322,0.979,0.025
7.618,-0.320,0.980,0.027
7.628,-0.322,0.977,0.029
7.638,-0.318,0.975,0.029
7.648,-0.316,0.975,0.029
7.658,-0.320,0.975,0.027
7.668,-0.320,0.973,0.025
7.678,-0.318,0.977,0.023
7.688,-0.320,0.980,0.023
7.697,-0.322,0.984,0.023
7.707,-0.322,0.982,0.023
7.717,-0.320,0.984,0.025
7.727,-0.322,0.984,0.025
7.737,-0.320,0.982,0.027
7.747,-0.318,0.982,0.025
7.757,-0.318,0.977,0.027
7.767,-0.318,0.980,0.029
7.777,-0.318,0.979,0.027
7.787,-0.320,0.977,0.023
7.797,-0.324,0.982,0.031
7.807,-0.324,0.982,0.029
7.817,-0.324,0.979,0.029
7.826,-0.326,0.979,0.029
7.836,-0.322,0.973,0.027
7.846,-0.326,0.977,0.029
7.856,-0.328,0.975,0.029
7.866,-0.328,0.975,0.027
7.876,-0.330,0.977,0.031
7.886,-0.330,0.975,0.029
7.896,-0.330,0.979,0.031
7.906,-0.332,0.982,0.029
7.916,-0.328,0.980,0.031
7.926,-0.328,0.979,0.031
7.936,-0.324,0.977,0.029
7.946,-0.326,0.973,0.029
7.956,-0.324,0.969,0.031
7.965,-0.322,0.975,0.029
7.975,-0.328,0.975,0.031
7.985,-0.326,0.980,0.031
7.995,-0.328,0.977,0.029
8.005,-0.328,0.979,0.035
8.015,-0.330,0.977,0.027
8.025,-0.332,0.977,0.029
8.035,-0.330,0.977,0.031
8.045,-0.328,0.977,0.029
8.055,-0.330,0.977,0.031
8.065,-0.330,0.977,0.031
8.075,-0.330,0.979,0.031
8.085,-0.326,0.977,0.031
8.094,-0.330,0.975,0.031
8.104,-0.328,0.980,0.031
8.114,-0.328,0.977,0.029
8.124,-0.322,0.980,0.029
8.134,-0.326,0.984,0.033
8.144,-0.320,0.977,0.033
8.154,-0.320,0.973,0.031
8.164,-0.320,0.971,0.029
8.174,-0.322,0.979,0.031
8.184,-0.320,0.982,0.031
8.194,-0.320,0.982,0.029
8.204,-0.320,0.982,0.029
8.214,-0.320,0.984,0.029
8.223,-0.320,0.982,0.031
8.233,-0.316,0.979,0.031
8.243,-0.320,0.977,0.029
8.253,-0.318,0.975,0.031
8.263,-0.322,0.975,0.027
8.273,-0.318,0.979,0.025
8.283,-0.322,0.975,0.027
8.293,-0.318,0.977,0.027
8.303,-0.322,0.977,0.025
8.313,-0.322,0.979,0.031
8.323,-0.322,0.979,0.031
8.333,-0.322,0.979,0.029
8.343,-0.322,0.979,0.027
8.353,-0.322,0.977,0.029
8.362,-0.320,0.979,0.029
8.372,-0.320,0.977,0.027
8.382,-0.322,0.977,0.025
8.392,-0.322,0.977,0.027
8.402,-0.324,0.980,0.027
8.412,-0.320,0.977,0.031
8.422,-0.322,0.979,0.029
8.432,-0.326,0.979,0.027
8.442,-0.328,0.980,0.023
8.452,-0.326,0.980,0.025
8.462,-0.326,0.980,0.023
8.472,-0.326,0.979,0.021
8.482,-0.328,0.979,0.025
8.491,-0.324,0.980,0.025
8.501,-0.322,0.979,0.023
8.511,-0.320,0.979,0.027
8.521,-0.322,0.979,0.027
8.531,-0.320,0.979,0.029
8.541,-0.320,0.977,0.029
8.551,-0.318,0.979,0.027
8.561,-0.322,0.980,0.027
8.571,-0.322,0.980,0.027
8.581,-0.324,0.979,0.029
8.591,-0.320,0.979,0.025
8.601,-0.320,0.979,0.025
8.611,-0.322,0.977,0.029
8.620,-0.322,0.984,0.023
8.630,-0.320,0.982,0.027
8.640,-0.320,0.979,0.025
8.650,-0.320,0.975,0.025
8.660,-0.324,0.973,0.020
8.670,-0.324,0.971,0.020
8.680,-0.326,0.979,0.020
8.690,-0.326,0.984,0.021
8.700,-0.324,0.982,0.020
8.710,-0.322,0.984,0.023
8.720,-0.318,0.986,0.023
8.730,-0.316,0.984,0.020
8.740,-0.314,0.988,0.025
8.750,-0.314,0.979,0.021
8.759,-0.316,0.979,0.023
8.769,-0.318,0.980,0.027
8.779,-0.320,0.979,0.029
8.789,-0.318,0.979,0.027
8.799,-0.316,0.977,0.031
8.809,-0.320,0.979,0.025
8.819,-0.320,0.977,0.027
8.829,-0.324,0.975,0.027
8.839,-0.322,0.973,0.025
8.849,-0.322,0.977,0.025
8.859,-0.324,0.977,0.027
8.869,-0.322,0.977,0.027
8.879,-0.324,0.982,0.027
8.888,-0.320,0.980,0.025
8.898,-0.318,0.979,0.029
8.908,-0.322,0.982,0.027
8.918,-0.320,0.984,0.029
8.928,-0.316,0.984,0.027
8.938,-0.314,0.982,0.027
8.948,-0.314,0.986,0.033
8.958,-0.309,0.982,0.031
8.968,-0.307,0.980,0.035
8.978,-0.312,0.984,0.033
8.988,-0.316,0.980,0.033
8.998,-0.318,0.979,0.031
9.008,-0.320,0.979,0.031
9.017,-0.312,0.979,0.031
9.027,-0.309,0.979,0.033
9.037,-0.311,0.980,0.031
9.047,-0.312,0.979,0.031
9.057,-0.316,0.979,0.029
9.067,-0.316,0.980,0.029
9.077,-0.318,0.982,0.027
9.087,-0.318,0.982,0.025
9.097,-0.324,0.982,0.025
9.107,-0.318,0.982,0.029
9.117,-0.320,0.982,0.027
9.127,-0.318,0.984,0.029
9.137,-0.314,0.979,0.029
9.147,-0.309,0.980,0.031
9.156,-0.307,0.979,0.033
9.166,-0.305,0.977,0.033
9.176,-0.303,0.980,0.035
9.186,-0.301,0.979,0.035
9.196,-0.305,0.977,0.039
9.206,-0.305,0.977,0.031
9.216,-0.307,0.980,0.033
9.226,-0.312,0.979,0.031
9.236,-0.314,0.979,0.033
9.246,-0.316,0.979,0.029
9.256,-0.320,0.979,0.029
9.266,-0.320,0.982,0.029
9.276,-0.318,0.979,0.035
9.285,-0.316,0.980,0.035
9.295,-0.316,0.980,0.033
9.305,-0.316,0.979,0.033
9.315,-0.316,0.982,0.035
9.325,-0.316,0.979,0.035
9.335,-0.318,0.979,0.035
9.345,-0.318,0.980,0.035
9.355,-0.318,0.979,0.031
9.365,-0.320,0.982,0.029
9.375,-0.320,0.980,0.033
9.385,-0.320,0.982,0.033
9.395,-0.316,0.982,0.031
9.405,-0.314,0.982,0.031
9.414,-0.314,0.979,0.031
9.424,-0.314,0.982,0.033
9.434,-0.311,0.982,0.033
9.444,-0.312,0.982,0.033
9.454,-0.311,0.982,0.035
9.464,-0.311,0.984,0.033
9.474,-0.314,0.982,0.031
9.484,-0.316,0.982,0.031
9.494,-0.316,0.982,0.031
9.504,-0.320,0.982,0.033
9.514,-0.322,0.979,0.033
9.524,-0.324,0.982,0.033
9.534,-0.324,0.984,0.031
9.544,-0.326,0.979,0.031
9.553,-0.324,0.973,0.027
9.563,-0.328,0.969,0.023
9.573,-0.332,0.973,0.023
9.583,-0.338,0.994,0.033
9.593,-0.346,1.023,0.039
9.603,-0.348,1.004,0.031
9.613,-0.338,0.975,0.021
9.623,-0.326,0.957,0.018
9.633,-0.318,0.955,0.016
9.643,-0.312,0.969,0.023
9.653,-0.314,0.982,0.029
9.663,-0.303,0.990,0.033
9.673,-0.291,0.990,0.035
9.682,-0.287,0.996,0.033
9.692,-0.289,1.000,0.035
9.702,-0.283,1.000,0.035
9.712,-0.279,0.998,0.035
9.722,-0.275,0.988,0.033
9.732,-0.266,0.979,0.029
9.742,-0.271,0.979,0.031
9.752,-0.275,0.980,0.027
9.762,-0.279,0.979,0.029
9.772,-0.283,0.980,0.027
9.782,-0.289,0.986,0.025
9.792,-0.291,0.982,0.021
9.802,-0.287,0.984,0.021
9.812,-0.291,0.984,0.021
9.821,-0.291,0.982,0.021
9.831,-0.289,0.982,0.023
9.841,-0.281,0.984,0.021
9.851,-0.277,0.990,0.023
9.861,-0.275,1.000,0.031
9.871,-0.275,1.004,0.033
9.881,-0.273,1.004,0.035
9.891,-0.273,1.004,0.035
9.901,-0.266,1.000,0.037
9.911,-0.266,0.998,0.037
9.921,-0.262,0.992,0.037
9.931,-0.258,0.986,0.039
9.941,-0.262,0.990,0.043
9.950,-0.258,0.984,0.043
9.960,-0.258,0.984,0.047
9.970,-0.262,0.975,0.041
9.980,-0.262,0.971,0.041
9.990,-0.264,0.971,0.037
10.000,-0.266,0.973,0.037
10.010,-0.270,0.975,0.037
10.020,-0.277,0.977,0.035
10.030,-0.279,0.975,0.033
10.040,-0.283,0.977,0.031
10.050,-0.289,0.980,0.031
10.060,-0.291,0.980,0.033
10.070,-0.295,0.979,0.033
10.079,-0.301,0.982,0.029
10.089,-0.312,0.992,0.029
10.099,-0.312,0.986,0.027
10.109,-0.305,0.988,0.025
10.119,-0.312,0.984,0.025
10.129,-0.309,0.986,0.021
10.139,-0.309,0.992,0.021
10.149,-0.311,0.992,0.023
10.159,-0.305,0.994,0.023
10.169,-0.305,0.994,0.025
10.179,-0.307,0.998,0.027
10.189,-0.309,0.996,0.027
10.199,-0.305,0.992,0.029
10.209,-0.301,0.992,0.027
10.218,-0.297,0.994,0.031
10.228,-0.291,0.992,0.033
10.238,-0.291,0.990,0.033
10.248,-0.285,0.986,0.033
10.258,-0.285,0.980,0.033
10.268,-0.281,0.980,0.029
10.278,-0.279,0.986,0.033
10.288,-0.279,0.992,0.035
10.298,-0.279,0.994,0.033
10.308,-0.279,0.992,0.033
10.318,-0.277,0.988,0.029
10.328,-0.279,0.992,0.031
10.338,-0.281,0.990,0.029
10.347,-0.281,0.992,0.025
10.357,-0.283,0.990,0.029
10.367,-0.283,0.996,0.031
10.377,-0.285,0.996,0.033
10.387,-0.285,0.996,0.031
10.397,-0.283,0.992,0.037
10.407,-0.279,0.992,0.035
10.417,-0.283,0.992,0.037
10.427,-0.279,0.988,0.041
10.437,-0.279,0.990,0.041
10.447,-0.277,0.988,0.045
10.457,-0.281,0.990,0.045
10.467,-0.283,0.986,0.049
10.476,-0.283,0.986,0.045
10.486,-0.289,0.984,0.047
10.496,-0.289,0.988,0.047
10.506,-0.289,0.984,0.053
10.516,-0.291,0.986,0.051
10.526,-0.291,0.986,0.051
10.536,-0.293,0.982,0.051
10.546,-0.291,0.977,0.047
10.556,-0.293,0.979,0.053
10.566,-0.291,0.979,0.049
10.576,-0.293,0.984,0.049
10.586,-0.301,0.988,0.049
10.596,-0.299,0.986,0.047
10.606,-0.297,0.990,0.047
10.615,-0.303,0.992,0.041
10.625,-0.301,0.992,0.047
10.635,-0.291,0.992,0.047
10.645,-0.293,0.994,0.039
10.655,-0.295,0.996,0.041
10.665,-0.289,0.992,0.045
10.675,-0.283,0.990,0.041
10.685,-0.283,0.986,0.043
10.695,-0.281,0.990,0.043
10.705,-0.283,0.980,0.041
10.715,-0.283,0.979,0.043
10.725,-0.285,0.980,0.041
10.735,-0.285,0.980,0.043
10.744,-0.285,0.986,0.043
10.754,-0.287,0.984,0.041
10.764,-0.287,0.984,0.039
10.774,-0.291,0.984,0.039
10.784,-0.293,0.986,0.037
10.794,-0.293,0.990,0.039
10.804,-0.295,0.988,0.039
10.814,-0.297,0.988,0.039
10.824,-0.297,0.986,0.037
10.834,-0.295,0.986,0.035
10.844,-0.293,0.986,0.037
10.854,-0.293,0.988,0.035
10.864,-0.293,0.986,0.037
10.873,-0.291,0.984,0.031
10.883,-0.291,0.988,0.035
10.893,-0.295,0.996,0.043
10.903,-0.295,0.994,0.037
10.913,-0.295,0.994,0.037
10.923,-0.297,0.992,0.037
10.933,-0.295,0.990,0.039
10.943,-0.295,0.988,0.039
10.953,-0.293,0.988,0.037
10.963,-0.293,0.982,0.041
10.973,-0.293,0.982,0.039
10.983,-0.297,0.980,0.039
10.993,-0.299,0.986,0.037
11.003,-0.299,0.984,0.039
11.012,-0.299,0.988,0.035
11.022,-0.301,0.984,0.043
11.032,-0.299,0.984,0.039
11.042,-0.299,0.984,0.039
11.052,-0.299,0.982,0.039
11.062,-0.299,0.982,0.035
11.072,-0.301,0.986,0.035
11.082,-0.297,0.982,0.041
11.092,-0.297,0.984,0.037
11.102,-0.297,0.986,0.037
11.112,-0.297,0.986,0.037
11.122,-0.299,0.986,0.037
11.132,-0.295,0.988,0.035
11.141,-0.295,0.986,0.037
11.151,-0.291,0.988,0.041
11.161,-0.291,0.988,0.039
11.171,-0.287,0.990,0.041
11.181,-0.287,0.988,0.041
11.191,-0.285,0.988,0.039
11.201,-0.285,0.986,0.037
11.211,-0.289,0.986,0.037
11.221,-0.289,0.986,0.039
11.231,-0.295,0.984,0.037
11.241,-0.295,0.988,0.039
11.251,-0.297,0.986,0.035
11.261,-0.295,0.982,0.037
11.270,-0.301,0.986,0.035
11.280,-0.305,0.988,0.035
11.290,-0.305,0.990,0.037
11.300,-0.301,0.990,0.035
11.310,-0.303,0.988,0.037
11.320,-0.303,0.986,0.039
11.330,-0.299,0.988,0.037
11.340,-0.301,0.984,0.039
11.350,-0.297,0.984,0.039
11.360,-0.291,0.984,0.037
11.370,-0.293,0.984,0.043
11.380,-0.293,0.980,0.039
11.390,-0.295,0.982,0.039
11.400,-0.293,0.982,0.037
11.409,-0.295,0.990,0.039
11.419,-0.299,0.988,0.037
11.429,-0.295,0.988,0.039
11.439,-0.297,0.988,0.037
11.449,-0.301,0.994,0.039
11.459,-0.301,0.990,0.037
11.469,-0.303,0.986,0.037
11.479,-0.303,0.992,0.039
11.489,-0.301,0.988,0.037
11.499,-0.297,0.984,0.037
11.509,-0.299,0.986,0.037
11.519,-0.299,0.984,0.039
11.529,-0.299,0.986,0.035
11.538,-0.299,0.982,0.037
11.548,-0.297,0.982,0.039
11.558,-0.301,0.984,0.039
11.568,-0.299,0.988,0.039
11.578,-0.301,0.988,0.039
11.588,-0.297,0.986,0.037
11.598,-0.297,0.988,0.041
11.608,-0.295,0.986,0.037
11.618,-0.299,0.990,0.039
11.628,-0.299,0.988,0.043
11.638,-0.297,0.986,0.039
11.648,-0.295,0.988,0.041
11.658,-0.299,0.986,0.041
11.667,-0.299,0.980,0.037
11.677,-0.297,0.986,0.039
11.687,-0.299,0.984,0.039
11.697,-0.297,0.988,0.039
11.707,-0.299,0.986,0.039
11.717,-0.297,0.984,0.043
11.727,-0.299,0.988,0.041
11.737,-0.301,0.988,0.041
11.747,-0.299,0.984,0.037
11.757,-0.301,0.984,0.041
11.767,-0.299,0.984,0.037
11.777,-0.297,0.984,0.041
11.787,-0.299,0.986,0.041
11.797,-0.293,0.986,0.043
11.806,-0.289,0.986,0.043
11.816,-0.293,0.986,0.041
11.826,-0.295,0.984,0.041
11.836,-0.295,0.984,0.041
11.846,-0.295,0.982,0.043
11.856,-0.297,0.988,0.043
11.866,-0.297,0.986,0.037
11.876,-0.301,0.988,0.041
11.886,-0.301,0.980,0.039
11.896,-0.303,0.982,0.037
11.906,-0.301,0.984,0.041
11.916,-0.303,0.986,0.039
11.926,-0.307,0.988,0.039
11.935,-0.307,0.984,0.045
11.945,-0.305,0.986,0.045
11.955,-0.305,0.988,0.045
11.965,-0.301,0.986,0.045
11.975,-0.301,0.986,0.047
11.985,-0.305,0.982,0.043
11.995,-0.299,0.982,0.043
12.005,-0.297,0.980,0.045
12.015,-0.297,0.982,0.047
12.025,-0.297,0.984,0.045
12.035,-0.301,0.982,0.045
12.045,-0.303,0.982,0.043
12.055,-0.301,0.984,0.041
12.064,-0.301,0.986,0.039
12.074,-0.305,0.982,0.039
12.084,-0.307,0.984,0.039
12.094,-0.307,0.984,0.041
12.104,-0.307,0.988,0.039
12.114,-0.309,0.986,0.041
12.124,-0.305,0.984,0.039
12.134,-0.307,0.980,0.041
12.144,-0.309,0.984,0.035
12.154,-0.303,0.984,0.043
12.164,-0.297,0.984,0.041
12.174,-0.299,0.984,0.039
12.184,-0.297,0.980,0.039
12.194,-0.297,0.980,0.039
12.203,-0.295,0.984,0.039
12.213,-0.301,0.984,0.037
12.223,-0.299,0.986,0.037
12.233,-0.303,0.986,0.035
12.243,-0.307,0.988,0.039
12.253,-0.309,0.990,0.041
12.263,-0.307,0.990,0.039
12.273,-0.311,0.986,0.039
12.283,-0.307,0.984,0.037
12.293,-0.303,0.980,0.037
12.303,-0.307,0.979,0.035
12.313,-0.307,0.979,0.031
12.323,-0.305,0.980,0.035
12.332,-0.309,0.980,0.037
12.342,-0.314,0.984,0.039
12.352,-0.314,0.982,0.031
12.362,-0.312,0.980,0.035
12.372,-0.312,0.980,0.037
12.382,-0.314,0.980,0.031
12.392,-0.316,0.982,0.037
12.402,-0.312,0.982,0.035
12.412,-0.312,0.986,0.039
12.422,-0.311,0.986,0.041
12.432,-0.312,0.984,0.039
12.442,-0.309,0.982,0.039
12.452,-0.305,0.982,0.041
12.461,-0.305,0.988,0.041
12.471,-0.305,0.988,0.043
12.481,-0.303,0.984,0.041
12.491,-0.301,0.980,0.039
12.501,-0.303,0.984,0.039
12.511,-0.303,0.986,0.039
12.521,-0.305,0.986,0.039
12.531,-0.307,0.988,0.041
12.541,-0.305,0.986,0.041
12.551,-0.301,0.988,0.041
12.561,-0.303,0.984,0.041
12.571,-0.301,0.984,0.041
12.581,-0.303,0.982,0.043
12.591,-0.303,0.980,0.045
12.600,-0.303,0.980,0.045
12.610,-0.309,0.984,0.043
12.620,-0.303,0.982,0.047
12.630,-0.305,0.984,0.045
12.640,-0.303,0.984,0.043
12.650,-0.305,0.984,0.041
12.660,-0.303,0.980,0.043
12.670,-0.305,0.984,0.043
12.680,-0.303,0.984,0.043
12.690,-0.303,0.982,0.041
12.700,-0.307,0.984,0.043
12.710,-0.307,0.980,0.041
12.720,-0.305,0.982,0.041
12.729,-0.301,0.986,0.039
12.739,-0.303,0.986,0.037
12.749,-0.301,0.986,0.043
12.759,-0.303,0.984,0.041
12.769,-0.301,0.984,0.041
12.779,-0.305,0.986,0.041
12.789,-0.303,0.986,0.039
12.799,-0.303,0.986,0.041
12.809,-0.301,0.986,0.041
12.819,-0.301,0.986,0.043
12.829,-0.303,0.984,0.043
12.839,-0.301,0.986,0.041
12.849,-0.299,0.982,0.039
12.859,-0.303,0.980,0.039
12.868,-0.307,0.979,0.037
12.878,-0.305,0.986,0.039
12.888,-0.305,0.984,0.035
12.898,-0.305,0.988,0.037
12.908,-0.307,0.986,0.041
12.918,-0.309,0.984,0.039
12.928,-0.307,0.982,0.039
12.938,-0.305,0.988,0.039
12.948,-0.305,0.986,0.039
12.958,-0.303,0.986,0.037
12.968,-0.301,0.982,0.043
12.978,-0.301,0.980,0.041
12.988,-0.303,0.980,0.039
12.997,-0.305,0.982,0.041
13.007,-0.305,0.984,0.041
13.017,-0.305,0.984,0.041
13.027,-0.311,0.984,0.041
13.037,-0.309,0.986,0.039
13.047,-0.309,0.986,0.039
13.057,-0.309,0.984,0.039
13.067,-0.309,0.984,0.039
13.077,-0.312,0.982,0.041
13.087,-0.309,0.980,0.041
13.097,-0.312,0.982,0.039
13.107,-0.307,0.982,0.039
13.117,-0.307,0.980,0.039
13.126,-0.307,0.980,0.037
13.136,-0.311,0.982,0.037
13.146,-0.312,0.982,0.039
13.156,-0.309,0.982,0.039
13.166,-0.311,0.984,0.041
13.176,-0.314,0.988,0.037
13.186,-0.311,0.984,0.039
13.196,-0.309,0.982,0.039
13.206,-0.312,0.982,0.039
13.216,-0.311,0.982,0.037
13.226,-0.312,0.984,0.037
13.236,-0.312,0.982,0.035
13.246,-0.309,0.984,0.041
13.256,-0.311,0.988,0.041
13.265,-0.309,0.982,0.039
13.275,-0.305,0.986,0.041
13.285,-0.307,0.982,0.039
13.295,-0.307,0.980,0.041
13.305,-0.311,0.984,0.039
13.315,-0.307,0.986,0.039
13.325,-0.307,0.984,0.043
13.335,-0.311,0.986,0.041
13.345,-0.307,0.984,0.043
13.355,-0.305,0.980,0.043
13.365,-0.311,0.979,0.039
13.375,-0.307,0.979,0.037
13.385,-0.309,0.982,0.043
13.394,-0.311,0.980,0.043
13.404,-0.311,0.984,0.043
13.414,-0.309,0.984,0.043
13.424,-0.309,0.980,0.041
13.434,-0.309,0.984,0.041
13.444,-0.312,0.982,0.045
13.454,-0.312,0.982,0.047
13.464,-0.311,0.984,0.047
13.474,-0.311,0.982,0.045
13.484,-0.312,0.984,0.043
13.494,-0.311,0.980,0.045
13.504,-0.314,0.980,0.043
13.514,-0.316,0.977,0.043
13.523,-0.318,0.982,0.045
13.533,-0.320,0.980,0.041
13.543,-0.318,0.984,0.041
13.553,-0.316,0.984,0.041
13.563,-0.312,0.984,0.043
13.573,-0.316,0.986,0.043
13.583,-0.311,0.980,0.039
13.593,-0.314,0.982,0.041
13.603,-0.311,0.984,0.041
13.613,-0.312,0.980,0.039
13.623,-0.312,0.982,0.045
13.633,-0.311,0.984,0.039
13.643,-0.311,0.982,0.043
13.653,-0.309,0.980,0.043
13.662,-0.312,0.980,0.043
13.672,-0.314,0.979,0.043
13.682,-0.316,0.980,0.043
13.692,-0.316,0.980,0.045
13.702,-0.316,0.975,0.041
13.712,-0.314,0.980,0.041
13.722,-0.314,0.980,0.039
13.732,-0.316,0.980,0.041
13.742,-0.318,0.980,0.037
13.752,-0.318,0.980,0.041
13.762,-0.316,0.982,0.041
13.772,-0.312,0.988,0.041
13.782,-0.312,0.986,0.043
13.791,-0.311,0.984,0.039
13.801,-0.309,0.980,0.043
13.811,-0.311,0.982,0.037
13.821,-0.307,0.982,0.039
13.831,-0.314,0.984,0.041
13.841,-0.314,0.984,0.041
13.851,-0.316,0.980,0.037
13.861,-0.314,0.984,0.041
13.871,-0.318,0.986,0.037
13.881,-0.316,0.986,0.037
13.891,-0.314,0.984,0.039
13.901,-0.316,0.982,0.041
13.911,-0.318,0.980,0.043
13.920,-0.314,0.979,0.043
13.930,-0.314,0.979,0.041
13.940,-0.314,0.975,0.041
13.950,-0.314,0.980,0.043
13.960,-0.316,0.980,0.039
13.970,-0.316,0.980,0.043
13.980,-0.316,0.982,0.041
13.990,-0.316,0.986,0.039
14.000,-0.318,0.984,0.039
14.010,-0.318,0.982,0.037
14.020,-0.318,0.982,0.039
14.030,-0.316,0.979,0.039
14.040,-0.320,0.982,0.039
14.050,-0.320,0.982,0.039
14.059,-0.316,0.984,0.041
14.069,-0.314,0.982,0.039
14.079,-0.311,0.984,0.041
14.089,-0.311,0.984,0.041
14.099,-0.307,0.980,0.043
14.109,-0.307,0.982,0.041
14.119,-0.307,0.979,0.039
14.129,-0.312,0.982,0.043
14.139,-0.312,0.982,0.043
14.149,-0.316,0.982,0.043
14.159,-0.314,0.982,0.045
14.169,-0.316,0.982,0.041
14.179,-0.316,0.986,0.047
14.188,-0.314,0.980,0.041
14.198,-0.316,0.980,0.045
14.208,-0.318,0.980,0.043
14.218,-0.314,0.980,0.041
14.228,-0.316,0.979,0.045
14.238,-0.316,0.979,0.045
14.248,-0.316,0.979,0.045
14.258,-0.312,0.977,0.043
14.268,-0.316,0.979,0.045
14.278,-0.320,0.980,0.043
14.288,-0.320,0.980,0.045
14.298,-0.320,0.982,0.043
14.308,-0.320,0.982,0.043
14.317,-0.320,0.982,0.043
14.327,-0.320,0.980,0.041
14.337,-0.320,0.982,0.041
14.347,-0.316,0.979,0.045
14.357,-0.318,0.979,0.043
14.367,-0.318,0.984,0.043
14.377,-0.318,0.982,0.043
14.387,-0.318,0.980,0.039
14.397,-0.318,0.980,0.043
14.407,-0.316,0.982,0.041
14.417,-0.316,0.984,0.043
14.427,-0.316,0.982,0.039
14.437,-0.318,0.979,0.041
14.447,-0.316,0.982,0.041
14.456,-0.316,0.980,0.041
14.466,-0.316,0.984,0.041
14.476,-0.318,0.980,0.041
14.486,-0.316,0.980,0.043
14.496,-0.318,0.980,0.041
14.506,-0.314,0.980,0.037
14.516,-0.316,0.982,0.041
14.526,-0.316,0.980,0.041
14.536,-0.318,0.979,0.039
14.546,-0.316,0.977,0.041
14.556,-0.318,0.980,0.041
14.566,-0.318,0.980,0.039
14.576,-0.318,0.984,0.039
14.585,-0.322,0.982,0.041
14.595,-0.320,0.982,0.043
14.605,-0.320,0.982,0.039
14.615,-0.318,0.973,0.039
14.625,-0.318,0.980,0.039
14.635,-0.320,0.980,0.041
14.645,-0.322,0.980,0.037
14.655,-0.324,0.984,0.039
14.665,-0.322,0.982,0.039
14.675,-0.320,0.984,0.045
14.685,-0.322,0.984,0.043
14.695,-0.320,0.979,0.039
14.705,-0.318,0.979,0.041
14.714,-0.318,0.979,0.043
14.724,-0.318,0.980,0.043
14.734,-0.318,0.977,0.041
14.744,-0.318,0.977,0.043
14.754,-0.322,0.979,0.043
14.764,-0.320,0.979,0.041
14.774,-0.320,0.982,0.043
14.784,-0.322,0.980,0.041
14.794,-0.322,0.980,0.041
14.804,-0.324,0.982,0.041
14.814,-0.324,0.982,0.039
14.824,-0.320,0.980,0.041
14.834,-0.322,0.979,0.043
14.844,-0.320,0.980,0.041
14.853,-0.322,0.980,0.043
14.863,-0.322,0.980,0.039
14.873,-0.318,0.977,0.039
14.883,-0.318,0.986,0.045
14.893,-0.318,0.980,0.045
14.903,-0.316,0.982,0.043
14.913,-0.316,0.979,0.041
14.923,-0.318,0.979,0.043
14.933,-0.314,0.980,0.045
14.943,-0.316,0.980,0.045
14.953,-0.318,0.984,0.041
14.963,-0.320,0.982,0.043
14.973,-0.318,0.982,0.043
14.982,-0.320,0.980,0.047
14.992,-0.318,0.982,0.045
15.002,-0.320,0.979,0.045
15.012,-0.320,0.977,0.043
15.022,-0.318,0.977,0.045
15.032,-0.318,0.977,0.045
15.042,-0.318,0.979,0.045
15.052,-0.316,0.980,0.045
15.062,-0.320,0.980,0.045
15.072,-0.320,0.979,0.043
15.082,-0.324,0.977,0.045
15.092,-0.322,0.982,0.043
15.102,-0.322,0.979,0.043
15.111,-0.322,0.980,0.041
15.121,-0.322,0.979,0.041
15.131,-0.322,0.979,0.043
15.141,-0.324,0.982,0.041
15.151,-0.322,0.980,0.039
15.161,-0.324,0.982,0.037
15.171,-0.324,0.980,0.041
15.181,-0.320,0.979,0.041
15.191,-0.322,0.982,0.041
15.201,-0.320,0.980,0.041
15.211,-0.322,0.977,0.041
15.221,-0.322,0.979,0.039
15.231,-0.322,0.979,0.039
15.241,-0.324,0.977,0.041
15.250,-0.322,0.979,0.041
15.260,-0.320,0.980,0.039
15.270,-0.322,0.979,0.039
15.280,-0.322,0.980,0.039
15.290,-0.326,0.980,0.037
15.300,-0.322,0.979,0.035
15.310,-0.322,0.984,0.039
15.320,-0.318,0.982,0.039
15.330,-0.318,0.980,0.037
15.340,-0.314,0.979,0.039
15.350,-0.318,0.975,0.039
15.360,-0.314,0.984,0.041
15.370,-0.316,0.982,0.037
15.379,-0.316,0.980,0.039
15.389,-0.318,0.982,0.037
15.399,-0.318,0.980,0.039
15.409,-0.320,0.982,0.039
15.419,-0.318,0.982,0.041
15.429,-0.320,0.982,0.041
15.439,-0.316,0.980,0.039
15.449,-0.318,0.979,0.039
15.459,-0.318,0.979,0.041
15.469,-0.318,0.977,0.039
15.479,-0.316,0.977,0.041
15.489,-0.320,0.979,0.037
15.499,-0.316,0.979,0.041
15.509,-0.318,0.979,0.043
15.518,-0.320,0.980,0.041
15.528,-0.318,0.982,0.039
15.538,-0.320,0.982,0.041
15.548,-0.320,0.982,0.035
15.558,-0.320,0.980,0.041
15.568,-0.318,0.980,0.043
15.578,-0.318,0.984,0.041
15.588,-0.318,0.982,0.039
15.598,-0.322,0.982,0.033
15.608,-0.316,0.979,0.037
15.618,-0.316,0.979,0.039
15.628,-0.316,0.980,0.041
15.638,-0.314,0.979,0.041
15.647,-0.314,0.979,0.037
15.657,-0.320,0.977,0.037
15.667,-0.314,0.980,0.039
15.677,-0.320,0.982,0.037
15.687,-0.318,0.984,0.039
15.697,-0.318,0.979,0.035
15.707,-0.320,0.982,0.035
15.717,-0.320,0.980,0.043
15.727,-0.318,0.980,0.035
15.737,-0.318,0.982,0.037
15.747,-0.316,0.980,0.041
15.757,-0.320,0.977,0.039
15.767,-0.320,0.979,0.037
15.776,-0.320,0.977,0.037
15.786,-0.318,0.977,0.039
15.796,-0.318,0.979,0.039
15.806,-0.320,0.980,0.037
15.816,-0.320,0.982,0.033
15.826,-0.322,0.980,0.037
15.836,-0.322,0.979,0.035
15.846,-0.320,0.980,0.037
15.856,-0.322,0.979,0.033
15.866,-0.322,0.979,0.035
15.876,-0.322,0.982,0.033
15.886,-0.320,0.982,0.035
15.896,-0.322,0.979,0.035
15.906,-0.318,0.984,0.037
15.915,-0.318,0.979,0.037
15.925,-0.322,0.982,0.037
15.935,-0.320,0.982,0.035
15.945,-0.320,0.980,0.037
15.955,-0.322,0.979,0.039
15.965,-0.322,0.980,0.041
15.975,-0.320,0.977,0.033
15.985,-0.322,0.980,0.033
15.995,-0.324,0.980,0.033
16.005,-0.324,0.979,0.037
16.015,-0.326,0.980,0.037
16.025,-0.320,0.979,0.039
16.035,-0.322,0.977,0.037
16.044,-0.322,0.979,0.037
16.054,-0.324,0.979,0.039
16.064,-0.324,0.977,0.035
16.074,-0.322,0.980,0.037
16.084,-0.322,0.984,0.037
16.094,-0.322,0.982,0.037
16.104,-0.318,0.977,0.041
16.114,-0.316,0.977,0.039
16.124,-0.318,0.975,0.045
16.134,-0.318,0.979,0.039
16.144,-0.322,0.979,0.037
16.154,-0.326,0.979,0.039
16.164,-0.326,0.984,0.043
16.173,-0.326,0.984,0.039
16.183,-0.326,0.982,0.039
16.193,-0.324,0.982,0.039
16.203,-0.322,0.980,0.041
16.213,-0.324,0.979,0.043
16.223,-0.326,0.975,0.039
16.233,-0.322,0.973,0.039
16.243,-0.324,0.977,0.041
16.253,-0.326,0.977,0.041
16.263,-0.324,0.979,0.043
16.273,-0.324,0.979,0.043
16.283,-0.326,0.982,0.041
16.293,-0.324,0.984,0.041
16.303,-0.324,0.980,0.039
16.312,-0.324,0.980,0.039
16.322,-0.322,0.980,0.041
16.332,-0.324,0.980,0.043
16.342,-0.326,0.979,0.039
16.352,-0.324,0.975,0.041
16.362,-0.324,0.979,0.045
16.372,-0.326,0.979,0.043
16.382,-0.324,0.979,0.041
16.392,-0.324,0.979,0.041
16.402,-0.324,0.979,0.041
16.412,-0.322,0.979,0.041
16.422,-0.320,0.977,0.041
16.432,-0.326,0.979,0.041
16.441,-0.324,0.980,0.045
16.451,-0.326,0.977,0.041
16.461,-0.320,0.984,0.043
16.471,-0.322,0.982,0.043
16.481,-0.322,0.980,0.039
16.491,-0.324,0.980,0.043
16.501,-0.324,0.979,0.041
16.511,-0.324,0.975,0.043
16.521,-0.324,0.973,0.041
16.531,-0.322,0.975,0.041
16.541,-0.326,0.973,0.041
16.551,-0.324,0.977,0.039
16.561,-0.328,0.977,0.039
16.570,-0.328,0.980,0.039
16.580,-0.330,0.979,0.043
16.590,-0.328,0.979,0.041
16.600,-0.328,0.977,0.041
16.610,-0.324,0.979,0.039
16.620,-0.330,0.977,0.041
16.630,-0.328,0.977,0.037
16.640,-0.328,0.977,0.041
16.650,-0.328,0.977,0.039
16.660,-0.328,0.982,0.037
16.670,-0.330,0.979,0.035
16.680,-0.326,0.980,0.041
16.690,-0.326,0.984,0.037
16.700,-0.326,0.982,0.037
16.709,-0.324,0.977,0.041
16.719,-0.324,0.980,0.041
16.729,-0.324,0.980,0.045
16.739,-0.322,0.982,0.041
16.749,-0.324,0.979,0.045
16.759,-0.324,0.975,0.041
16.769,-0.324,0.979,0.041
16.779,-0.326,0.977,0.041
16.789,-0.328,0.977,0.041
16.799,-0.324,0.980,0.039
16.809,-0.328,0.979,0.041
16.819,-0.326,0.980,0.041
16.829,-0.328,0.977,0.045
16.838,-0.324,0.979,0.041
16.848,-0.324,0.982,0.043
16.858,-0.326,0.975,0.043
16.868,-0.326,0.979,0.043
16.878,-0.322,0.982,0.043
16.888,-0.324,0.979,0.045
16.898,-0.322,0.979,0.043
16.908,-0.322,0.979,0.045
16.918,-0.324,0.980,0.043
16.928,-0.320,0.982,0.043
16.938,-0.326,0.980,0.045
16.948,-0.326,0.979,0.043
16.958,-0.328,0.982,0.045
16.967,-0.328,0.984,0.043
16.977,-0.330,0.982,0.043
16.987,-0.326,0.984,0.041
16.997,-0.328,0.984,0.043
17.007,-0.328,0.977,0.045
17.017,-0.326,0.980,0.043
17.027,-0.328,0.977,0.043
17.037,-0.324,0.975,0.043
17.047,-0.326,0.975,0.047
17.057,-0.328,0.977,0.043
17.067,-0.326,0.977,0.045
17.077,-0.330,0.977,0.043
17.087,-0.324,0.977,0.045
17.097,-0.330,0.977,0.045
17.106,-0.334,0.979,0.041
17.116,-0.328,0.977,0.047
17.126,-0.330,0.979,0.041
17.136,-0.328,0.980,0.045
17.146,-0.330,0.979,0.043
17.156,-0.330,0.980,0.041
17.166,-0.322,0.979,0.045
17.176,-0.328,0.979,0.043
17.186,-0.322,0.977,0.045
17.196,-0.322,0.977,0.043
17.206,-0.320,0.980,0.045
17.216,-0.318,0.979,0.041
17.226,-0.322,0.979,0.043
17.235,-0.322,0.980,0.047
17.245,-0.322,0.982,0.043
17.255,-0.322,0.982,0.043
17.265,-0.320,0.982,0.043
17.275,-0.320,0.982,0.043
17.285,-0.322,0.977,0.039
17.295,-0.324,0.979,0.043
17.305,-0.322,0.979,0.045
17.315,-0.320,0.980,0.041
17.325,-0.322,0.977,0.043
17.335,-0.322,0.980,0.041
17.345,-0.324,0.977,0.041
17.355,-0.324,0.977,0.041
17.364,-0.324,0.980,0.039
17.374,-0.328,0.980,0.045
17.384,-0.326,0.979,0.041
17.394,-0.324,0.982,0.041
17.404,-0.322,0.977,0.041
17.414,-0.328,0.977,0.041
17.424,-0.328,0.977,0.039
17.434,-0.328,0.979,0.041
17.444,-0.328,0.977,0.039
17.454,-0.326,0.979,0.041
17.464,-0.326,0.980,0.039
17.474,-0.328,0.979,0.041
17.484,-0.330,0.980,0.041
17.494,-0.328,0.980,0.041
17.503,-0.326,0.977,0.039
17.513,-0.330,0.979,0.041
17.523,-0.326,0.980,0.045
17.533,-0.328,0.980,0.041
17.543,-0.328,0.980,0.041
17.553,-0.328,0.979,0.043
17.563,-0.330,0.975,0.041
17.573,-0.332,0.979,0.043
17.583,-0.330,0.980,0.045
17.593,-0.332,0.979,0.043
17.603,-0.330,0.979,0.045
17.613,-0.332,0.979,0.041
17.623,-0.336,0.982,0.047
17.632,-0.336,0.986,0.041
17.642,-0.344,0.988,0.045
17.652,-0.344,0.982,0.045
17.662,-0.342,0.979,0.041
17.672,-0.338,0.977,0.049
17.682,-0.336,0.975,0.043
17.692,-0.332,0.973,0.047
17.702,-0.326,0.973,0.047
17.712,-0.322,0.973,0.047
17.722,-0.324,0.971,0.045
17.732,-0.322,0.973,0.045
17.742,-0.320,0.973,0.047
17.752,-0.324,0.973,0.049
17.761,-0.318,0.975,0.045
17.771,-0.314,0.973,0.047
17.781,-0.318,0.977,0.045
17.791,-0.316,0.980,0.045
17.801,-0.318,0.980,0.043
17.811,-0.322,0.979,0.043
17.821,-0.320,0.984,0.041
17.831,-0.322,0.988,0.045
17.841,-0.320,0.988,0.043
17.851,-0.320,0.984,0.043
17.861,-0.318,0.984,0.043
17.871,-0.318,0.980,0.043
17.881,-0.318,0.979,0.041
17.891,-0.312,0.979,0.045
17.900,-0.312,0.979,0.043
17.910,-0.314,0.979,0.047
17.920,-0.312,0.980,0.045
17.930,-0.314,0.980,0.045
17.940,-0.314,0.979,0.043
17.950,-0.318,0.977,0.043
17.960,-0.314,0.980,0.045
17.970,-0.316,0.980,0.045
17.980,-0.318,0.982,0.045
17.990,-0.318,0.979,0.045
18.000,-0.320,0.980,0.041
18.010,-0.318,0.980,0.043
18.020,-0.322,0.979,0.043
18.029,-0.324,0.982,0.041
18.039,-0.322,0.980,0.041
18.049,-0.320,0.980,0.041
18.059,-0.318,0.984,0.045
18.069,-0.318,0.982,0.039
18.079,-0.312,0.979,0.041
18.089,-0.314,0.979,0.041
18.099,-0.318,0.977,0.043
18.109,-0.318,0.982,0.043
18.119,-0.318,0.980,0.039
18.129,-0.318,0.984,0.043
18.139,-0.318,0.986,0.043
18.149,-0.316,0.984,0.043
18.158,-0.316,0.984,0.041
18.168,-0.318,0.980,0.039
18.178,-0.316,0.979,0.039
18.188,-0.316,0.980,0.037
18.198,-0.316,0.980,0.039
18.208,-0.320,0.980,0.039
18.218,-0.320,0.982,0.037
18.228,-0.314,0.980,0.041
18.238,-0.316,0.982,0.039
18.248,-0.318,0.980,0.041
18.258,-0.314,0.984,0.041
18.268,-0.314,0.979,0.041
18.278,-0.318,0.980,0.039
18.288,-0.316,0.977,0.039
18.297,-0.320,0.980,0.043
18.307,-0.320,0.982,0.039
18.317,-0.320,0.982,0.041
18.327,-0.322,0.982,0.035
18.337,-0.318,0.979,0.039
18.347,-0.320,0.984,0.039
18.357,-0.318,0.980,0.041
18.367,-0.318,0.982,0.041
18.377,-0.316,0.982,0.041
18.387,-0.316,0.980,0.039
18.397,-0.314,0.980,0.039
18.407,-0.318,0.979,0.039
18.417,-0.316,0.982,0.041
18.426,-0.316,0.982,0.043
18.436,-0.318,0.984,0.043
18.446,-0.316,0.984,0.037
18.456,-0.320,0.984,0.041
18.466,-0.320,0.980,0.043
18.476,-0.320,0.979,0.039
18.486,-0.320,0.979,0.039
18.496,-0.322,0.982,0.039
18.506,-0.320,0.982,0.041
18.516,-0.320,0.982,0.037
18.526,-0.322,0.980,0.043
18.536,-0.320,0.979,0.041
18.546,-0.318,0.984,0.039
18.556,-0.316,0.980,0.041
18.565,-0.316,0.980,0.039
18.575,-0.318,0.980,0.039
18.585,-0.316,0.979,0.037
18.595,-0.316,0.979,0.039
18.605,-0.316,0.979,0.037
18.615,-0.316,0.977,0.039
18.625,-0.314,0.984,0.039
18.635,-0.314,0.984,0.039
18.645,-0.316,0.980,0.041
18.655,-0.312,0.980,0.037
18.665,-0.312,0.982,0.033
18.675,-0.314,0.984,0.035
18.685,-0.314,0.986,0.041
18.694,-0.312,0.982,0.039
18.704,-0.312,0.984,0.037
18.714,-0.316,0.980,0.039
18.724,-0.314,0.986,0.039
18.734,-0.314,0.984,0.041
18.744,-0.314,0.984,0.039
18.754,-0.318,0.984,0.037
18.764,-0.320,0.980,0.037
18.774,-0.318,0.979,0.041
18.784,-0.318,0.977,0.037
18.794,-0.318,0.977,0.037
18.804,-0.316,0.979,0.039
18.814,-0.316,0.979,0.039
18.823,-0.314,0.979,0.041
18.833,-0.312,0.979,0.041
18.843,-0.311,0.980,0.039
18.853,-0.307,0.980,0.037
18.863,-0.307,0.980,0.039
18.873,-0.314,0.982,0.039
18.883,-0.312,0.982,0.039
18.893,-0.311,0.982,0.043
18.903,-0.309,0.984,0.037
18.913,-0.311,0.982,0.037
18.923,-0.311,0.979,0.039
18.933,-0.307,0.986,0.039
18.943,-0.312,0.986,0.033
18.953,-0.312,0.984,0.035
18.962,-0.314,0.984,0.037
18.972,-0.311,0.979,0.035
18.982,-0.311,0.984,0.037
18.992,-0.316,0.988,0.035
19.002,-0.314,0.990,0.037
19.012,-0.314,0.988,0.035
19.022,-0.311,0.986,0.037
19.032,-0.307,0.984,0.035
19.042,-0.311,0.984,0.033
19.052,-0.311,0.979,0.033
19.062,-0.311,0.977,0.039
19.072,-0.312,0.979,0.037
19.082,-0.312,0.979,0.035
19.091,-0.311,0.982,0.037
19.101,-0.312,0.980,0.037
19.111,-0.312,0.982,0.035
19.121,-0.314,0.979,0.033
19.131,-0.314,0.980,0.035
19.141,-0.314,0.979,0.037
19.151,-0.316,0.977,0.031
19.161,-0.314,0.979,0.035
19.171,-0.314,0.982,0.037
19.181,-0.314,0.982,0.033
19.191,-0.312,0.984,0.035
19.201,-0.309,0.984,0.035
19.211,-0.309,0.986,0.035
19.220,-0.307,0.984,0.031
19.230,-0.311,0.984,0.031
19.240,-0.309,0.984,0.033
19.250,-0.312,0.984,0.033
19.260,-0.309,0.982,0.031
19.270,-0.309,0.984,0.033
19.280,-0.309,0.984,0.031
19.290,-0.307,0.982,0.029
19.300,-0.305,0.984,0.031
19.310,-0.307,0.982,0.027
19.320,-0.303,0.984,0.029
19.330,-0.307,0.984,0.031
19.340,-0.307,0.986,0.029
19.350,-0.305,0.988,0.031
19.359,-0.301,0.988,0.033
19.369,-0.303,0.986,0.031
19.379,-0.299,0.988,0.031
19.389,-0.301,0.988,0.029
19.399,-0.299,0.986,0.029
19.409,-0.301,0.988,0.033
19.419,-0.299,0.984,0.029
19.429,-0.299,0.980,0.031
19.439,-0.299,0.988,0.029
19.449,-0.299,0.990,0.031
19.459,-0.297,0.990,0.031
19.469,-0.301,0.984,0.029
19.479,-0.295,0.979,0.029
19.488,-0.299,0.984,0.033
19.498,-0.301,0.986,0.035
19.508,-0.301,0.984,0.033
19.518,-0.301,0.980,0.029
19.528,-0.299,0.984,0.029
19.538,-0.301,0.988,0.031
19.548,-0.303,0.988,0.031
19.558,-0.303,0.990,0.031
19.568,-0.299,0.988,0.033
19.578,-0.299,0.984,0.033
19.588,-0.301,0.984,0.029
19.598,-0.297,0.982,0.029
19.608,-0.301,0.982,0.029
19.617,-0.299,0.982,0.029
19.627,-0.299,0.984,0.035
19.637,-0.301,0.986,0.033
19.647,-0.303,0.984,0.031
19.657,-0.301,0.984,0.031
19.667,-0.299,0.982,0.031
19.677,-0.303,0.984,0.025
19.687,-0.303,0.984,0.027
19.697,-0.297,0.988,0.027
19.707,-0.301,0.986,0.031
19.717,-0.299,0.984,0.027
19.727,-0.297,0.986,0.027
19.737,-0.295,0.982,0.027
19.747,-0.293,0.984,0.031
19.756,-0.295,0.986,0.029
19.766,-0.293,0.988,0.033
19.776,-0.293,0.984,0.031
19.786,-0.293,0.980,0.033
19.796,-0.293,0.986,0.031
19.806,-0.293,0.984,0.029
19.816,-0.295,0.990,0.031
19.826,-0.295,0.988,0.029
19.836,-0.295,0.992,0.029
19.846,-0.297,0.990,0.031
19.856,-0.297,0.988,0.033
19.866,-0.301,0.982,0.029
19.876,-0.299,0.984,0.031
19.885,-0.299,0.986,0.027
19.895,-0.301,0.984,0.027
19.905,-0.303,0.982,0.027
19.915,-0.301,0.986,0.027
19.925,-0.303,0.988,0.027
19.935,-0.303,0.986,0.029
19.945,-0.305,0.984,0.027
19.955,-0.307,0.986,0.029
19.965,-0.309,0.986,0.027
19.975,-0.309,0.986,0.025
19.985,-0.312,0.986,0.027
19.995,-0.312,0.980,0.023
20.005,-0.312,0.982,0.025
20.014,-0.312,0.982,0.025
20.024,-0.312,0.984,0.023
20.034,-0.312,0.982,0.025
20.044,-0.312,0.982,0.025
20.054,-0.314,0.984,0.027
20.064,-0.314,0.982,0.029
20.074,-0.314,0.986,0.029
20.084,-0.312,0.984,0.029
20.094,-0.311,0.986,0.031
20.104,-0.312,0.986,0.029
20.114,-0.312,0.980,0.029
20.124,-0.311,0.982,0.031
20.134,-0.311,0.980,0.033
20.144,-0.312,0.980,0.031
20.153,-0.311,0.982,0.031
20.163,-0.312,0.982,0.031
20.173,-0.314,0.984,0.027
20.183,-0.314,0.986,0.035
20.193,-0.316,0.982,0.033
20.203,-0.314,0.980,0.033
20.213,-0.312,0.984,0.033
20.223,-0.312,0.982,0.035
20.233,-0.311,0.980,0.031
20.243,-0.309,0.980,0.033
20.253,-0.309,0.980,0.035
20.263,-0.309,0.979,0.033
20.273,-0.311,0.979,0.037
20.282,-0.309,0.982,0.035
20.292,-0.307,0.984,0.035
20.302,-0.307,0.984,0.035
20.312,-0.305,0.984,0.037
20.322,-0.305,0.982,0.033
20.332,-0.305,0.984,0.037
20.342,-0.309,0.984,0.035
20.352,-0.309,0.982,0.039
20.362,-0.311,0.984,0.035
20.372,-0.312,0.982,0.037
20.382,-0.312,0.986,0.039
20.392,-0.312,0.986,0.037
20.402,-0.314,0.984,0.039
20.411,-0.314,0.982,0.041
20.421,-0.316,0.982,0.039
20.431,-0.311,0.979,0.037
20.441,-0.311,0.975,0.043
20.451,-0.312,0.979,0.037
20.461,-0.314,0.980,0.041
20.471,-0.314,0.977,0.039
20.481,-0.312,0.977,0.037
20.491,-0.316,0.982,0.037
20.501,-0.316,0.982,0.039
20.511,-0.314,0.982,0.039
20.521,-0.316,0.980,0.039
20.531,-0.318,0.980,0.041
20.541,-0.316,0.980,0.037
20.550,-0.316,0.982,0.041
20.560,-0.314,0.982,0.039
20.570,-0.311,0.984,0.037
20.580,-0.312,0.984,0.037
20.590,-0.314,0.982,0.039
20.600,-0.309,0.982,0.041
20.610,-0.312,0.984,0.039
20.620,-0.309,0.982,0.041
20.630,-0.311,0.979,0.037
20.640,-0.309,0.980,0.035
20.650,-0.309,0.982,0.033
20.660,-0.311,0.982,0.035
20.670,-0.312,0.986,0.031
20.679,-0.309,0.986,0.033
20.689,-0.309,0.984,0.033
20.699,-0.311,0.988,0.031
20.709,-0.311,0.988,0.031
20.719,-0.312,0.982,0.031
20.729,-0.311,0.984,0.031
20.739,-0.311,0.980,0.029
20.749,-0.318,0.980,0.027
20.759,-0.312,0.982,0.029
20.769,-0.314,0.982,0.029
20.779,-0.316,0.982,0.027
20.789,-0.316,0.982,0.031
20.799,-0.316,0.982,0.027
20.808,-0.312,0.980,0.025
20.818,-0.318,0.980,0.029
20.828,-0.318,0.980,0.031
20.838,-0.318,0.980,0.020
20.848,-0.318,0.980,0.021
20.858,-0.318,0.980,0.027
20.868,-0.318,0.980,0.023
20.878,-0.316,0.982,0.023
20.888,-0.316,0.982,0.027
20.898,-0.316,0.982,0.025
20.908,-0.316,0.982,0.023
20.918,-0.314,0.982,0.023
20.928,-0.316,0.980,0.025
20.938,-0.318,0.982,0.025
20.947,-0.318,0.982,0.029
20.957,-0.318,0.980,0.023
20.967,-0.318,0.982,0.023
20.977,-0.316,0.982,0.029
20.987,-0.320,0.980,0.027
20.997,-0.318,0.977,0.029
21.007,-0.318,0.980,0.025
21.017,-0.318,0.982,0.027
21.027,-0.316,0.984,0.027
21.037,-0.318,0.980,0.029
21.047,-0.318,0.980,0.027
21.057,-0.316,0.980,0.027
21.067,-0.318,0.982,0.033
21.076,-0.318,0.984,0.031
21.086,-0.316,0.982,0.031
21.096,-0.316,0.982,0.029
21.106,-0.314,0.982,0.031
21.116,-0.316,0.979,0.029
21.126,-0.318,0.980,0.031
21.136,-0.316,0.980,0.029
21.146,-0.318,0.980,0.031
21.156,-0.314,0.980,0.033
21.166,-0.312,0.982,0.033
21.176,-0.312,0.982,0.033
21.186,-0.318,0.982,0.029
21.196,-0.318,0.984,0.033
21.206,-0.316,0.980,0.033
21.215,-0.316,0.980,0.035
21.225,-0.320,0.986,0.033
21.235,-0.318,0.986,0.037
21.245,-0.320,0.982,0.037
21.255,-0.318,0.984,0.035
21.265,-0.318,0.984,0.037
21.275,-0.318,0.980,0.037
21.285,-0.314,0.977,0.037
21.295,-0.318,0.975,0.033
21.305,-0.316,0.977,0.037
21.315,-0.318,0.979,0.033
21.325,-0.320,0.980,0.035
21.335,-0.318,0.982,0.037
21.344,-0.316,0.982,0.037
21.354,-0.320,0.984,0.035
21.364,-0.318,0.982,0.035
21.374,-0.316,0.977,0.033
21.384,-0.318,0.979,0.033
21.394,-0.318,0.982,0.033
21.404,-0.316,0.979,0.033
21.414,-0.318,0.980,0.031
21.424,-0.320,0.984,0.029
21.434,-0.320,0.984,0.035
21.444,-0.316,0.979,0.035
21.454,-0.314,0.982,0.033
21.464,-0.311,0.982,0.035
21.473,-0.311,0.982,0.031
21.483,-0.311,0.980,0.031
21.493,-0.312,0.982,0.027
21.503,-0.312,0.980,0.033
21.513,-0.316,0.984,0.033
21.523,-0.312,0.984,0.033
21.533,-0.314,0.982,0.031
21.543,-0.314,0.986,0.033
21.553,-0.311,0.982,0.031
21.563,-0.312,0.979,0.031
21.573,-0.312,0.980,0.033
21.583,-0.314,0.980,0.031
21.593,-0.314,0.979,0.033
21.603,-0.318,0.982,0.031
21.612,-0.316,0.980,0.031
21.622,-0.316,0.979,0.031
21.632,-0.318,0.980,0.035
21.642,-0.316,0.979,0.031
21.652,-0.316,0.982,0.031
21.662,-0.316,0.982,0.027
21.672,-0.314,0.982,0.027
21.682,-0.314,0.984,0.033
21.692,-0.316,0.980,0.029
21.702,-0.312,0.980,0.031
21.712,-0.312,0.980,0.031
21.722,-0.314,0.982,0.033
21.732,-0.312,0.982,0.031
21.741,-0.314,0.982,0.031
21.751,-0.312,0.982,0.031
21.761,-0.312,0.982,0.031
21.771,-0.312,0.984,0.035
21.781,-0.312,0.984,0.029
21.791,-0.312,0.982,0.033
21.801,-0.312,0.984,0.033
21.811,-0.312,0.984,0.031
21.821,-0.312,0.982,0.033
21.831,-0.312,0.980,0.031
21.841,-0.314,0.980,0.035
21.851,-0.312,0.984,0.033
21.861,-0.314,0.980,0.033
21.870,-0.314,0.980,0.033
21.880,-0.314,0.982,0.035
21.890,-0.314,0.982,0.035
21.900,-0.312,0.980,0.037
21.910,-0.312,0.982,0.035
21.920,-0.311,0.980,0.037
21.930,-0.311,0.980,0.031
21.940,-0.311,0.977,0.037
21.950,-0.312,0.982,0.039
21.960,-0.311,0.984,0.035
21.970,-0.311,0.984,0.035
21.980,-0.312,0.986,0.033
21.990,-0.311,0.979,0.035
22.000,-0.309,0.984,0.035
22.009,-0.309,0.982,0.033
22.019,-0.311,0.984,0.037
22.029,-0.311,0.984,0.039
22.039,-0.312,0.984,0.039
22.049,-0.314,0.986,0.041
22.059,-0.312,0.988,0.035
22.069,-0.312,0.986,0.037
22.079,-0.312,0.982,0.035
22.089,-0.311,0.980,0.037
22.099,-0.309,0.977,0.039
22.109,-0.311,0.979,0.039
22.119,-0.309,0.979,0.041
22.129,-0.309,0.979,0.041
22.138,-0.312,0.980,0.037
22.148,-0.316,0.982,0.041
22.158,-0.316,0.982,0.039
22.168,-0.318,0.982,0.033
22.178,-0.314,0.984,0.037
22.188,-0.316,0.980,0.033
22.198,-0.316,0.980,0.035
22.208,-0.314,0.982,0.037
22.218,-0.312,0.980,0.037
22.228,-0.312,0.984,0.037
22.238,-0.311,0.982,0.037
22.248,-0.312,0.980,0.039
22.258,-0.307,0.980,0.039
22.267,-0.307,0.984,0.039
22.277,-0.307,0.988,0.035
22.287,-0.307,0.984,0.037
22.297,-0.307,0.979,0.037
22.307,-0.307,0.980,0.035
22.317,-0.307,0.984,0.037
22.327,-0.309,0.980,0.035
22.337,-0.311,0.988,0.035
22.347,-0.311,0.988,0.039
22.357,-0.312,0.986,0.039
22.367,-0.312,0.988,0.037
22.377,-0.309,0.984,0.033
22.387,-0.311,0.982,0.035
22.397,-0.314,0.977,0.031
22.406,-0.309,0.980,0.035
22.416,-0.312,0.979,0.031
22.426,-0.312,0.980,0.037
22.436,-0.312,0.986,0.037
22.446,-0.311,0.984,0.035
22.456,-0.311,0.986,0.037
22.466,-0.312,0.986,0.033
22.476,-0.312,0.986,0.033
22.486,-0.311,0.980,0.035
22.496,-0.312,0.982,0.035
22.506,-0.312,0.982,0.033
22.516,-0.314,0.980,0.037
22.526,-0.318,0.980,0.033
22.535,-0.316,0.984,0.039
22.545,-0.316,0.982,0.033
22.555,-0.314,0.980,0.037
22.565,-0.314,0.982,0.035
22.575,-0.314,0.982,0.033
22.585,-0.314,0.982,0.031
22.595,-0.311,0.982,0.037
22.605,-0.312,0.984,0.037
22.615,-0.312,0.984,0.035
22.625,-0.312,0.982,0.037
22.635,-0.312,0.982,0.037
22.645,-0.312,0.982,0.035
22.655,-0.312,0.984,0.035
22.664,-0.311,0.984,0.037
22.674,-0.312,0.984,0.035
22.684,-0.312,0.982,0.037
22.694,-0.314,0.982,0.035
22.704,-0.316,0.986,0.035
22.714,-0.314,0.984,0.035
22.724,-0.316,0.982,0.035
22.734,-0.311,0.984,0.035
22.744,-0.311,0.982,0.035
22.754,-0.311,0.982,0.037
22.764,-0.314,0.980,0.035
22.774,-0.314,0.982,0.037
22.784,-0.312,0.988,0.039
22.794,-0.312,0.982,0.039
22.803,-0.312,0.980,0.033
22.813,-0.311,0.979,0.037
22.823,-0.311,0.977,0.035
22.833,-0.312,0.982,0.037
22.843,-0.314,0.986,0.039
22.853,-0.316,0.984,0.033
22.863,-0.316,0.986,0.039
22.873,-0.318,0.986,0.035
22.883,-0.314,0.986,0.039
22.893,-0.316,0.980,0.039
22.903,-0.316,0.980,0.033
22.913,-0.316,0.980,0.039
22.923,-0.318,0.979,0.035
22.932,-0.314,0.977,0.039
22.942,-0.318,0.979,0.037
22.952,-0.318,0.979,0.041
22.962,-0.318,0.980,0.037
22.972,-0.318,0.982,0.043
22.982,-0.318,0.982,0.039
22.992,-0.322,0.980,0.037
23.002,-0.318,0.982,0.037
23.012,-0.320,0.980,0.039
23.022,-0.316,0.982,0.037
23.032,-0.320,0.984,0.037
23.042,-0.318,0.982,0.037
23.052,-0.320,0.980,0.039
23.061,-0.326,0.984,0.039
23.071,-0.322,0.982,0.037
23.081,-0.322,0.977,0.037
23.091,-0.318,0.982,0.037
23.101,-0.320,0.980,0.037
23.111,-0.314,0.982,0.037
23.121,-0.312,0.980,0.037
23.131,-0.311,0.980,0.037
23.141,-0.311,0.980,0.039
23.151,-0.312,0.980,0.039
23.161,-0.312,0.980,0.039
23.171,-0.312,0.986,0.041
23.181,-0.311,0.988,0.041
23.191,-0.311,0.988,0.041
23.200,-0.312,0.982,0.043
23.210,-0.312,0.982,0.041
23.220,-0.311,0.979,0.041
23.230,-0.312,0.984,0.041
23.240,-0.316,0.980,0.043
23.250,-0.318,0.982,0.039
23.260,-0.316,0.984,0.043
23.270,-0.316,0.979,0.039
23.280,-0.316,0.979,0.041
23.290,-0.314,0.982,0.043
23.300,-0.314,0.979,0.041
23.310,-0.316,0.982,0.039
23.320,-0.314,0.984,0.039
23.329,-0.314,0.984,0.043
23.339,-0.316,0.982,0.043
23.349,-0.314,0.984,0.045
23.359,-0.314,0.984,0.043
23.369,-0.314,0.984,0.043
23.379,-0.314,0.984,0.045
23.389,-0.318,0.984,0.045
23.399,-0.314,0.982,0.043
23.409,-0.316,0.982,0.045
23.419,-0.318,0.982,0.043
23.429,-0.318,0.979,0.043
23.439,-0.314,0.980,0.045
23.449,-0.320,0.980,0.045
23.458,-0.318,0.980,0.047
23.468,-0.322,0.984,0.045
23.478,-0.322,0.980,0.047
23.488,-0.322,0.980,0.043
23.498,-0.322,0.980,0.047
23.508,-0.320,0.980,0.045
23.518,-0.320,0.977,0.047
23.528,-0.314,0.980,0.043
23.538,-0.314,0.980,0.047
23.548,-0.312,0.982,0.043
23.558,-0.316,0.986,0.047
23.568,-0.312,0.986,0.049
23.578,-0.314,0.982,0.047
23.588,-0.314,0.980,0.047
23.597,-0.316,0.982,0.049
23.607,-0.316,0.982,0.045
23.617,-0.316,0.982,0.045
23.627,-0.316,0.980,0.047
23.637,-0.314,0.982,0.051
23.647,-0.314,0.980,0.045
23.657,-0.312,0.984,0.045
23.667,-0.316,0.982,0.045
23.677,-0.316,0.980,0.045
23.687,-0.318,0.980,0.045
23.697,-0.314,0.982,0.045
23.707,-0.314,0.979,0.041
23.717,-0.312,0.982,0.039
23.726,-0.314,0.982,0.047
23.736,-0.318,0.982,0.045
23.746,-0.311,0.984,0.043
23.756,-0.312,0.986,0.045
23.766,-0.312,0.984,0.041
23.776,-0.311,0.982,0.045
23.786,-0.311,0.982,0.043
23.796,-0.309,0.980,0.045
23.806,-0.312,0.982,0.045
23.816,-0.314,0.984,0.041
23.826,-0.312,0.982,0.045
23.836,-0.314,0.984,0.043
23.846,-0.316,0.986,0.045
23.855,-0.316,0.984,0.043
23.865,-0.314,0.979,0.047
23.875,-0.312,0.982,0.043
23.885,-0.312,0.980,0.043
23.895,-0.314,0.982,0.045
23.905,-0.314,0.982,0.045
23.915,-0.311,0.984,0.047
23.925,-0.318,0.980,0.045
23.935,-0.311,0.984,0.045
23.945,-0.314,0.982,0.045
23.955,-0.312,0.984,0.041
23.965,-0.312,0.982,0.047
23.975,-0.316,0.980,0.045
23.985,-0.314,0.980,0.043
23.994,-0.314,0.980,0.043
24.004,-0.314,0.982,0.047
24.014,-0.312,0.984,0.043
24.024,-0.314,0.984,0.043
24.034,-0.318,0.979,0.045
24.044,-0.316,0.980,0.045
24.054,-0.318,0.982,0.045
24.064,-0.316,0.982,0.045
24.074,-0.316,0.984,0.043
24.084,-0.316,0.982,0.045
24.094,-0.316,0.979,0.045
24.104,-0.318,0.980,0.045
24.114,-0.316,0.984,0.043
24.123,-0.318,0.984,0.041
24.133,-0.318,0.982,0.045
24.143,-0.318,0.984,0.043
24.153,-0.318,0.982,0.043
24.163,-0.314,0.980,0.043
24.173,-0.316,0.982,0.045
24.183,-0.312,0.980,0.043
24.193,-0.316,0.980,0.043
24.203,-0.314,0.980,0.047
24.213,-0.316,0.982,0.045
24.223,-0.316,0.982,0.045
24.233,-0.314,0.982,0.043
24.243,-0.318,0.980,0.045
24.253,-0.314,0.980,0.043
24.262,-0.318,0.980,0.043
24.272,-0.316,0.979,0.043
24.282,-0.316,0.979,0.045
24.292,-0.316,0.980,0.045
24.302,-0.318,0.980,0.045
24.312,-0.322,0.982,0.045
24.322,-0.318,0.980,0.041
24.332,-0.318,0.982,0.039
24.342,-0.316,0.979,0.041
24.352,-0.314,0.979,0.041
24.362,-0.314,0.984,0.043
24.372,-0.312,0.982,0.043
24.382,-0.312,0.984,0.045
24.391,-0.311,0.984,0.041
24.401,-0.312,0.979,0.045
24.411,-0.314,0.979,0.043
24.421,-0.314,0.984,0.047
24.431,-0.318,0.988,0.045
24.441,-0.318,0.990,0.039
24.451,-0.318,0.984,0.043
24.461,-0.316,0.986,0.045
24.471,-0.316,0.984,0.043
24.481,-0.318,0.980,0.047
24.491,-0.318,0.979,0.043
24.501,-0.316,0.979,0.045
24.511,-0.314,0.975,0.047
24.520,-0.316,0.979,0.045
24.530,-0.316,0.979,0.047
24.540,-0.316,0.980,0.047
24.550,-0.318,0.982,0.047
24.560,-0.318,0.982,0.049
24.570,-0.320,0.982,0.045
24.580,-0.318,0.980,0.045
24.590,-0.322,0.980,0.045
24.600,-0.318,0.982,0.047
24.610,-0.318,0.982,0.045
24.620,-0.320,0.979,0.043
24.630,-0.318,0.980,0.043
24.640,-0.318,0.979,0.045
24.650,-0.316,0.980,0.045
24.659,-0.314,0.980,0.047
24.669,-0.314,0.986,0.047
24.679,-0.314,0.982,0.047
24.689,-0.311,0.982,0.049
24.699,-0.311,0.977,0.043
24.709,-0.312,0.977,0.045
24.719,-0.314,0.980,0.045
24.729,-0.318,0.982,0.043
24.739,-0.318,0.986,0.041
24.749,-0.320,0.990,0.043
24.759,-0.318,0.986,0.043
24.769,-0.318,0.984,0.043
24.779,-0.320,0.984,0.047
24.788,-0.318,0.982,0.041
24.798,-0.316,0.979,0.041
24.808,-0.316,0.980,0.043
24.818,-0.316,0.979,0.045
24.828,-0.312,0.980,0.041
24.838,-0.314,0.979,0.041
24.848,-0.312,0.982,0.043
24.858,-0.314,0.982,0.045
24.868,-0.318,0.982,0.041
24.878,-0.316,0.982,0.043
24.888,-0.318,0.982,0.043
24.898,-0.320,0.980,0.043
24.908,-0.318,0.982,0.041
24.917,-0.320,0.984,0.041
24.927,-0.318,0.980,0.039
24.937,-0.318,0.980,0.041
24.947,-0.320,0.979,0.041
24.957,-0.318,0.980,0.041
24.967,-0.316,0.980,0.041
24.977,-0.322,0.982,0.045
24.987,-0.316,0.982,0.045
24.997,-0.314,0.984,0.043
25.007,-0.316,0.982,0.045
25.017,-0.314,0.979,0.047
25.027,-0.312,0.979,0.043
25.037,-0.314,0.980,0.045
25.047,-0.318,0.979,0.045
25.056,-0.316,0.980,0.043
25.066,-0.318,0.982,0.045
25.076,-0.318,0.982,0.045
25.086,-0.318,0.980,0.045
25.096,-0.318,0.979,0.041
25.106,-0.320,0.982,0.041
25.116,-0.322,0.980,0.045
25.126,-0.318,0.980,0.043
25.136,-0.316,0.980,0.045
25.146,-0.318,0.979,0.043
25.156,-0.314,0.979,0.041
25.166,-0.314,0.982,0.041
25.176,-0.316,0.979,0.043
25.185,-0.316,0.980,0.041
25.195,-0.316,0.984,0.047
25.205,-0.316,0.986,0.043
25.215,-0.316,0.982,0.047
25.225,-0.312,0.982,0.045
25.235,-0.311,0.982,0.047
25.245,-0.316,0.980,0.043
25.255,-0.314,0.980,0.045
25.265,-0.318,0.980,0.043
25.275,-0.322,0.986,0.045
25.285,-0.318,0.986,0.041
25.295,-0.320,0.986,0.047
25.305,-0.318,0.986,0.045
25.314,-0.318,0.984,0.047
25.324,-0.316,0.980,0.045
25.334,-0.316,0.977,0.045
25.344,-0.314,0.979,0.045
25.354,-0.314,0.977,0.047
25.364,-0.312,0.979,0.043
25.374,-0.316,0.979,0.047
25.384,-0.316,0.982,0.049
25.394,-0.316,0.982,0.047
25.404,-0.318,0.980,0.045
25.414,-0.318,0.982,0.045
25.424,-0.318,0.984,0.045
25.434,-0.320,0.980,0.045
25.444,-0.320,0.984,0.045
25.453,-0.320,0.982,0.043
25.463,-0.320,0.982,0.043
25.473,-0.318,0.986,0.043
25.483,-0.316,0.979,0.043
25.493,-0.318,0.982,0.045
25.503,-0.314,0.980,0.047
25.513,-0.312,0.984,0.045
25.523,-0.305,0.980,0.041
25.533,-0.311,0.979,0.045
25.543,-0.311,0.980,0.043
25.553,-0.311,0.982,0.041
25.563,-0.314,0.982,0.041
25.573,-0.318,0.984,0.043
25.582,-0.316,0.986,0.041
25.592,-0.316,0.986,0.039
25.602,-0.318,0.980,0.039
25.612,-0.316,0.986,0.039
25.622,-0.316,0.979,0.043
25.632,-0.318,0.979,0.041
25.642,-0.318,0.979,0.041
25.652,-0.318,0.979,0.043
25.662,-0.320,0.979,0.041
25.672,-0.316,0.979,0.041
25.682,-0.316,0.984,0.041
25.692,-0.314,0.982,0.041
25.702,-0.316,0.980,0.043
25.711,-0.318,0.980,0.043
25.721,-0.320,0.980,0.041
25.731,-0.320,0.980,0.041
25.741,-0.320,0.982,0.045
25.751,-0.318,0.980,0.041
25.761,-0.320,0.982,0.043
25.771,-0.318,0.982,0.043
25.781,-0.318,0.984,0.043
25.791,-0.318,0.980,0.043
25.801,-0.322,0.980,0.043
25.811,-0.320,0.980,0.043
25.821,-0.322,0.984,0.043
25.831,-0.318,0.986,0.045
25.841,-0.320,0.980,0.041
25.850,-0.318,0.986,0.043
25.860,-0.318,0.982,0.047
25.870,-0.316,0.984,0.045
25.880,-0.318,0.980,0.045
25.890,-0.316,0.980,0.045
25.900,-0.320,0.980,0.045
25.910,-0.322,0.980,0.047
25.920,-0.320,0.980,0.045
25.930,-0.320,0.979,0.041
25.940,-0.322,0.980,0.047
25.950,-0.318,0.980,0.043
25.960,-0.318,0.980,0.047
25.970,-0.316,0.980,0.049
25.979,-0.316,0.980,0.045
25.989,-0.314,0.982,0.043
25.999,-0.316,0.982,0.045
26.009,-0.316,0.979,0.041
26.019,-0.318,0.982,0.043
26.029,-0.318,0.984,0.041
26.039,-0.318,0.982,0.043
26.049,-0.316,0.982,0.041
26.059,-0.318,0.984,0.041
26.069,-0.318,0.982,0.045
26.079,-0.318,0.984,0.041
26.089,-0.316,0.982,0.045
26.099,-0.312,0.982,0.045
26.108,-0.320,0.982,0.047
26.118,-0.318,0.982,0.045
26.128,-0.318,0.982,0.047
26.138,-0.318,0.984,0.045
26.148,-0.316,0.980,0.045
26.158,-0.320,0.980,0.047
26.168,-0.320,0.979,0.045
26.178,-0.322,0.975,0.043
26.188,-0.324,0.975,0.043
26.198,-0.324,0.975,0.043
26.208,-0.320,0.979,0.043
26.218,-0.320,0.980,0.045
26.228,-0.322,0.980,0.047
26.238,-0.322,0.979,0.047
26.247,-0.324,0.980,0.043
26.257,-0.322,0.984,0.045
26.267,-0.326,0.980,0.047
26.277,-0.326,0.984,0.047
26.287,-0.322,0.982,0.047
26.297,-0.326,0.980,0.043
26.307,-0.324,0.980,0.045
26.317,-0.324,0.979,0.043
26.327,-0.322,0.973,0.047
26.337,-0.324,0.979,0.043
26.347,-0.320,0.984,0.051
26.357,-0.318,0.979,0.047
26.367,-0.318,0.975,0.045
26.376,-0.320,0.977,0.049
26.386,-0.320,0.982,0.047
26.396,-0.316,0.982,0.045
26.406,-0.318,0.986,0.045
26.416,-0.320,0.986,0.045
26.426,-0.320,0.982,0.045
26.436,-0.320,0.982,0.045
26.446,-0.320,0.982,0.049
26.456,-0.320,0.977,0.045
26.466,-0.318,0.975,0.043
26.476,-0.314,0.975,0.045
26.486,-0.320,0.980,0.043
26.496,-0.322,0.982,0.047
26.505,-0.322,0.980,0.047
26.515,-0.320,0.984,0.045
26.525,-0.322,0.984,0.045
26.535,-0.320,0.984,0.043
26.545,-0.320,0.980,0.047
26.555,-0.320,0.980,0.047
26.565,-0.318,0.979,0.047
26.575,-0.322,0.982,0.045
26.585,-0.324,0.980,0.047
26.595,-0.324,0.979,0.043
26.605,-0.324,0.980,0.047
26.615,-0.324,0.982,0.045
26.625,-0.322,0.979,0.047
26.635,-0.324,0.980,0.047
26.644,-0.322,0.979,0.047
26.654,-0.324,0.977,0.047
26.664,-0.320,0.980,0.045
26.674,-0.320,0.980,0.047
26.684,-0.324,0.979,0.047
26.694,-0.324,0.979,0.047
26.704,-0.322,0.980,0.047
26.714,-0.324,0.980,0.047
26.724,-0.326,0.980,0.045
26.734,-0.326,0.984,0.045
26.744,-0.326,0.977,0.047
26.754,-0.324,0.977,0.043
26.764,-0.324,0.979,0.041
26.773,-0.326,0.982,0.045
26.783,-0.324,0.980,0.047
26.793,-0.324,0.984,0.049
26.803,-0.322,0.988,0.047
26.813,-0.322,0.982,0.047
26.823,-0.320,0.977,0.045
26.833,-0.318,0.977,0.043
26.843,-0.322,0.980,0.047
26.853,-0.320,0.980,0.045
26.863,-0.326,0.979,0.045
26.873,-0.322,0.982,0.045
26.883,-0.326,0.980,0.047
26.893,-0.324,0.980,0.047
26.903,-0.322,0.982,0.045
26.912,-0.322,0.980,0.045
26.922,-0.322,0.979,0.049
26.932,-0.318,0.977,0.049
26.942,-0.320,0.979,0.047
26.952,-0.318,0.977,0.047
26.962,-0.316,0.977,0.047
26.972,-0.320,0.977,0.049
26.982,-0.320,0.979,0.049
26.992,-0.320,0.980,0.051
27.002,-0.322,0.984,0.049
27.012,-0.324,0.980,0.045
27.022,-0.324,0.984,0.043
27.032,-0.324,0.980,0.045
27.041,-0.324,0.982,0.045
27.051,-0.324,0.982,0.045
27.061,-0.324,0.980,0.043
27.071,-0.322,0.979,0.047
27.081,-0.322,0.979,0.043
27.091,-0.320,0.977,0.047
27.101,-0.316,0.984,0.047
27.111,-0.318,0.984,0.049
27.121,-0.318,0.980,0.049
27.131,-0.318,0.977,0.049
27.141,-0.316,0.979,0.047
27.151,-0.318,0.979,0.049
27.161,-0.322,0.984,0.049
27.170,-0.322,0.984,0.045
27.180,-0.320,0.982,0.047
27.190,-0.324,0.984,0.047
27.200,-0.324,0.984,0.047
27.210,-0.322,0.980,0.045
27.220,-0.318,0.977,0.047
27.230,-0.320,0.977,0.049
27.240,-0.318,0.975,0.049
27.250,-0.316,0.977,0.049
27.260,-0.318,0.979,0.045
27.270,-0.318,0.980,0.047
27.280,-0.320,0.980,0.045
27.290,-0.318,0.984,0.047
27.300,-0.318,0.984,0.043
27.309,-0.320,0.984,0.049
27.319,-0.322,0.982,0.049
27.329,-0.322,0.980,0.043
27.339,-0.322,0.982,0.043
27.349,-0.324,0.979,0.047
27.359,-0.320,0.982,0.047
27.369,-0.322,0.982,0.043
27.379,-0.320,0.979,0.043
27.389,-0.318,0.982,0.043
27.399,-0.318,0.982,0.045
27.409,-0.318,0.979,0.047
27.419,-0.320,0.982,0.045
27.429,-0.316,0.980,0.047
27.438,-0.318,0.979,0.045
27.448,-0.316,0.980,0.047
27.458,-0.318,0.980,0.043
27.468,-0.320,0.980,0.043
27.478,-0.322,0.982,0.045
27.488,-0.320,0.986,0.043
27.498,-0.320,0.980,0.047
27.508,-0.318,0.982,0.045
27.518,-0.320,0.984,0.045
27.528,-0.320,0.977,0.043
27.538,-0.320,0.982,0.045
27.548,-0.316,0.984,0.047
27.558,-0.316,0.984,0.047
27.567,-0.312,0.980,0.047
27.577,-0.316,0.977,0.043
27.587,-0.314,0.979,0.045
27.597,-0.318,0.984,0.047
27.607,-0.320,0.986,0.047
27.617,-0.320,0.984,0.047
27.627,-0.322,0.982,0.049
27.637,-0.322,0.980,0.049
27.647,-0.322,0.982,0.049
27.657,-0.320,0.984,0.051
27.667,-0.320,0.982,0.047
27.677,-0.320,0.979,0.049
27.687,-0.318,0.975,0.051
27.697,-0.320,0.977,0.049
27.706,-0.320,0.975,0.049
27.716,-0.320,0.977,0.049
27.726,-0.320,0.977,0.047
27.736,-0.322,0.980,0.047
27.746,-0.324,0.980,0.047
27.756,-0.326,0.982,0.045
27.766,-0.324,0.982,0.045
27.776,-0.324,0.980,0.045
27.786,-0.324,0.984,0.047
27.796,-0.326,0.977,0.045
27.806,-0.324,0.980,0.047
27.816,-0.322,0.980,0.043
27.826,-0.320,0.984,0.043
27.835,-0.322,0.982,0.041
27.845,-0.322,0.980,0.045
27.855,-0.318,0.980,0.047
27.865,-0.316,0.984,0.047
27.875,-0.316,0.982,0.045
27.885,-0.314,0.980,0.047
27.895,-0.320,0.973,0.047
27.905,-0.320,0.977,0.051
27.915,-0.316,0.982,0.051
27.925,-0.318,0.982,0.047
27.935,-0.322,0.982,0.047
27.945,-0.322,0.982,0.049
27.955,-0.320,0.984,0.049
27.964,-0.320,0.982,0.045
27.974,-0.322,0.982,0.049
27.984,-0.320,0.979,0.047
27.994,-0.318,0.977,0.045
28.004,-0.318,0.977,0.045
28.014,-0.318,0.977,0.043
28.024,-0.316,0.980,0.049
28.034,-0.318,0.982,0.045
28.044,-0.320,0.982,0.043
28.054,-0.320,0.980,0.045
28.064,-0.320,0.982,0.049
28.074,-0.324,0.982,0.043
28.084,-0.320,0.980,0.045
28.094,-0.322,0.979,0.043
28.103,-0.318,0.980,0.041
28.113,-0.318,0.986,0.041
28.123,-0.320,0.980,0.041
28.133,-0.322,0.980,0.039
28.143,-0.322,0.982,0.041
28.153,-0.322,0.982,0.047
28.163,-0.322,0.984,0.041
28.173,-0.322,0.986,0.043
28.183,-0.322,0.984,0.043
28.193,-0.320,0.979,0.043
28.203,-0.318,0.982,0.043
28.213,-0.320,0.982,0.041
28.223,-0.320,0.979,0.047
28.232,-0.320,0.979,0.045
28.242,-0.324,0.979,0.045
28.252,-0.322,0.980,0.045
28.262,-0.322,0.984,0.045
28.272,-0.322,0.980,0.045
28.282,-0.322,0.980,0.041
28.292,-0.324,0.979,0.043
28.302,-0.322,0.979,0.049
28.312,-0.324,0.980,0.045
28.322,-0.322,0.980,0.045
28.332,-0.324,0.979,0.043
28.342,-0.324,0.982,0.045
28.352,-0.324,0.982,0.045
28.361,-0.324,0.982,0.047
28.371,-0.324,0.979,0.047
28.381,-0.318,0.982,0.045
28.391,-0.322,0.982,0.045
28.401,-0.318,0.977,0.043
28.411,-0.320,0.980,0.047
28.421,-0.318,0.982,0.045
28.431,-0.322,0.984,0.043
28.441,-0.322,0.982,0.043
28.451,-0.318,0.982,0.043
28.461,-0.320,0.980,0.043
28.471,-0.318,0.980,0.043
28.481,-0.318,0.980,0.041
28.491,-0.322,0.982,0.045
28.500,-0.326,0.984,0.043
28.510,-0.322,0.984,0.047
28.520,-0.324,0.986,0.045
28.530,-0.322,0.984,0.047
28.540,-0.320,0.984,0.043
28.550,-0.320,0.979,0.049
28.560,-0.320,0.977,0.045
28.570,-0.320,0.975,0.045
28.580,-0.324,0.975,0.045
28.590,-0.320,0.977,0.045
28.600,-0.320,0.980,0.045
28.610,-0.322,0.979,0.049
28.620,-0.324,0.980,0.045
28.629,-0.320,0.984,0.045
28.639,-0.322,0.980,0.041
28.649,-0.322,0.980,0.047
28.659,-0.322,0.980,0.045
28.669,-0.324,0.982,0.045
28.679,-0.324,0.980,0.043
28.689,-0.320,0.980,0.045
28.699,-0.322,0.982,0.043
28.709,-0.320,0.982,0.047
28.719,-0.322,0.984,0.045
28.729,-0.318,0.979,0.041
28.739,-0.318,0.977,0.047
28.749,-0.316,0.980,0.047
28.758,-0.316,0.980,0.045
28.768,-0.318,0.980,0.047
28.778,-0.320,0.980,0.043
28.788,-0.318,0.980,0.047
28.798,-0.322,0.982,0.049
28.808,-0.318,0.980,0.043
28.818,-0.320,0.984,0.045
28.828,-0.318,0.986,0.043
28.838,-0.318,0.982,0.043
28.848,-0.320,0.982,0.045
28.858,-0.320,0.979,0.047
28.868,-0.320,0.977,0.045
28.878,-0.322,0.977,0.045
28.888,-0.320,0.979,0.045
28.897,-0.320,0.979,0.043
28.907,-0.320,0.982,0.045
28.917,-0.322,0.980,0.043
28.927,-0.322,0.980,0.043
28.937,-0.324,0.980,0.047
28.947,-0.320,0.979,0.041
28.957,-0.322,0.982,0.043
28.967,-0.322,0.979,0.045
28.977,-0.322,0.980,0.043
28.987,-0.318,0.979,0.041
28.997,-0.322,0.982,0.043
29.007,-0.318,0.980,0.045
29.017,-0.320,0.982,0.045
29.026,-0.318,0.980,0.045
29.036,-0.318,0.980,0.045
29.046,-0.320,0.980,0.041
29.056,-0.318,0.984,0.039
29.066,-0.320,0.984,0.043
29.076,-0.322,0.980,0.047
29.086,-0.322,0.984,0.043
29.096,-0.324,0.984,0.043
29.106,-0.320,0.980,0.045
29.116,-0.320,0.979,0.045
29.126,-0.320,0.977,0.043
29.136,-0.322,0.980,0.045
29.146,-0.322,0.982,0.043
29.155,-0.320,0.980,0.045
29.165,-0.320,0.982,0.047
29.175,-0.318,0.980,0.045
29.185,-0.322,0.980,0.045
29.195,-0.320,0.979,0.045
29.205,-0.320,0.977,0.045
29.215,-0.320,0.982,0.047
29.225,-0.320,0.980,0.041
29.235,-0.324,0.982,0.047
29.245,-0.320,0.979,0.043
29.255,-0.318,0.979,0.041
29.265,-0.322,0.980,0.043
29.275,-0.318,0.982,0.045
29.285,-0.320,0.982,0.045
29.294,-0.318,0.984,0.045
29.304,-0.320,0.986,0.041
29.314,-0.318,0.980,0.047
29.324,-0.318,0.980,0.043
29.334,-0.318,0.980,0.041
29.344,-0.322,0.984,0.043
29.354,-0.318,0.986,0.043
29.364,-0.318,0.986,0.045
29.374,-0.320,0.982,0.047
29.384,-0.320,0.980,0.043
29.394,-0.318,0.980,0.043
29.404,-0.320,0.980,0.045
29.414,-0.324,0.982,0.043
29.423,-0.324,0.980,0.045
29.433,-0.324,0.984,0.041
29.443,-0.324,0.984,0.045
29.453,-0.322,0.980,0.045
29.463,-0.320,0.982,0.045
29.473,-0.320,0.980,0.047
29.483,-0.316,0.982,0.047
29.493,-0.318,0.982,0.045
29.503,-0.316,0.979,0.045
29.513,-0.318,0.979,0.051
29.523,-0.316,0.977,0.043
29.533,-0.318,0.980,0.043
29.543,-0.318,0.979,0.047
29.552,-0.320,0.982,0.045
29.562,-0.324,0.980,0.043
29.572,-0.320,0.982,0.043
29.582,-0.322,0.982,0.047
29.592,-0.322,0.984,0.045
29.602,-0.322,0.980,0.043
29.612,-0.326,0.977,0.043
29.622,-0.324,0.980,0.043
29.632,-0.322,0.984,0.043
29.642,-0.320,0.982,0.047
29.652,-0.320,0.984,0.043
29.662,-0.316,0.982,0.047
29.672,-0.312,0.980,0.047
29.682,-0.312,0.980,0.043
29.691,-0.311,0.979,0.043
29.701,-0.312,0.980,0.045
29.711,-0.312,0.980,0.043
29.721,-0.316,0.980,0.047
29.731,-0.318,0.982,0.045
29.741,-0.318,0.986,0.043
29.751,-0.316,0.986,0.047
29.761,-0.316,0.982,0.041
29.771,-0.316,0.984,0.041
29.781,-0.318,0.980,0.045
29.791,-0.318,0.979,0.041
29.801,-0.318,0.980,0.043
29.811,-0.318,0.979,0.043
29.820,-0.320,0.977,0.045
29.830,-0.320,0.982,0.045
29.840,-0.320,0.982,0.047
29.850,-0.320,0.977,0.043
29.860,-0.320,0.979,0.043
29.870,-0.314,0.982,0.045
29.880,-0.320,0.982,0.037
29.890,-0.322,0.980,0.041
29.900,-0.320,0.982,0.041
29.910,-0.318,0.984,0.045
29.920,-0.316,0.982,0.047
29.930,-0.318,0.980,0.043
29.940,-0.322,0.982,0.043
29.950,-0.316,0.984,0.045
29.959,-0.318,0.980,0.043
29.969,-0.322,0.982,0.043
29.979,-0.320,0.984,0.045
29.989,-0.322,0.984,0.045
29.999,-0.318,0.982,0.041
30.009,-0.320,0.982,0.041
30.019,-0.318,0.979,0.041
30.029,-0.322,0.980,0.043
30.039,-0.322,0.980,0.043
30.049,-0.320,0.980,0.041
30.059,-0.322,0.982,0.045
30.069,-0.318,0.982,0.045
30.079,-0.320,0.982,0.045
30.088,-0.320,0.982,0.043
30.098,-0.320,0.980,0.043
30.108,-0.320,0.984,0.043
30.118,-0.318,0.980,0.047
30.128,-0.316,0.982,0.043
30.138,-0.320,0.979,0.045
30.148,-0.320,0.984,0.045
30.158,-0.320,0.984,0.045
30.168,-0.320,0.980,0.043
30.178,-0.318,0.982,0.045
30.188,-0.318,0.982,0.043
30.198,-0.318,0.980,0.043
30.208,-0.318,0.982,0.043
30.217,-0.320,0.980,0.041
30.227,-0.318,0.984,0.047
30.237,-0.318,0.982,0.041
30.247,-0.318,0.982,0.043
30.257,-0.318,0.982,0.041
30.267,-0.318,0.979,0.041
30.277,-0.322,0.979,0.041
30.287,-0.316,0.979,0.043
30.297,-0.320,0.980,0.043
30.307,-0.318,0.982,0.043
30.317,-0.316,0.982,0.043
30.327,-0.318,0.979,0.041
30.337,-0.314,0.977,0.045
30.347,-0.316,0.984,0.043
30.356,-0.316,0.986,0.045
30.366,-0.318,0.982,0.041
30.376,-0.320,0.982,0.041
30.386,-0.318,0.984,0.043
30.396,-0.320,0.982,0.045
30.406,-0.316,0.986,0.043
30.416,-0.316,0.984,0.045
30.426,-0.318,0.980,0.045
30.436,-0.316,0.982,0.043
30.446,-0.318,0.980,0.045
30.456,-0.316,0.977,0.045
30.466,-0.318,0.977,0.047
30.476,-0.318,0.979,0.043
30.485,-0.318,0.979,0.045
30.495,-0.320,0.980,0.045
30.505,-0.324,0.980,0.045
30.515,-0.326,0.980,0.043
30.525,-0.326,0.980,0.043
30.535,-0.326,0.982,0.041
30.545,-0.322,0.980,0.043
30.555,-0.320,0.982,0.045
30.565,-0.318,0.980,0.043
30.575,-0.318,0.982,0.041
30.585,-0.320,0.982,0.047
30.595,-0.322,0.984,0.045
30.605,-0.318,0.980,0.043
30.614,-0.314,0.982,0.045
30.624,-0.316,0.982,0.043
30.634,-0.311,0.980,0.047
30.644,-0.314,0.979,0.043
30.654,-0.318,0.977,0.047
30.664,-0.322,0.982,0.045
30.674,-0.320,0.982,0.043
30.684,-0.318,0.986,0.047
30.694,-0.320,0.982,0.043
30.704,-0.322,0.979,0.047
30.714,-0.318,0.979,0.043
30.724,-0.318,0.980,0.045
30.734,-0.318,0.979,0.047
30.744,-0.314,0.979,0.045
30.753,-0.318,0.980,0.045
30.763,-0.318,0.979,0.049
30.773,-0.314,0.979,0.049
30.783,-0.314,0.980,0.043
30.793,-0.316,0.979,0.043
30.803,-0.316,0.982,0.045
30.813,-0.316,0.982,0.045
30.823,-0.316,0.984,0.043
30.833,-0.318,0.986,0.043
30.843,-0.316,0.984,0.043
30.853,-0.316,0.982,0.047
30.863,-0.318,0.984,0.043
30.873,-0.318,0.984,0.043
30.882,-0.316,0.979,0.043
30.892,-0.316,0.979,0.045
30.902,-0.312,0.982,0.045
30.912,-0.312,0.982,0.045
30.922,-0.312,0.982,0.043
30.932,-0.312,0.984,0.043
30.942,-0.314,0.979,0.039
30.952,-0.316,0.982,0.043
30.962,-0.316,0.984,0.043
30.972,-0.318,0.984,0.041
30.982,-0.320,0.980,0.041
30.992,-0.318,0.982,0.045
31.002,-0.320,0.982,0.045
31.011,-0.318,0.984,0.043
31.021,-0.320,0.980,0.045
31.031,-0.318,0.980,0.045
31.041,-0.314,0.980,0.045
31.051,-0.318,0.980,0.047
31.061,-0.320,0.979,0.043
31.071,-0.318,0.982,0.043
31.081,-0.316,0.984,0.047
31.091,-0.314,0.982,0.047
31.101,-0.320,0.982,0.041
31.111,-0.322,0.980,0.047
31.121,-0.318,0.982,0.045
31.131,-0.322,0.979,0.045
31.141,-0.322,0.980,0.043
31.150,-0.318,0.982,0.045
31.160,-0.318,0.980,0.043
31.170,-0.318,0.979,0.043
31.180,-0.318,0.982,0.041
31.190,-0.316,0.986,0.043
31.200,-0.316,0.982,0.041
31.210,-0.318,0.980,0.039
31.220,-0.318,0.979,0.039
31.230,-0.314,0.986,0.041
31.240,-0.318,0.986,0.043
31.250,-0.318,0.984,0.043
31.260,-0.320,0.984,0.043
31.270,-0.318,0.986,0.043
31.279,-0.320,0.986,0.045
31.289,-0.318,0.982,0.043
31.299,-0.318,0.982,0.045
31.309,-0.318,0.982,0.043
31.319,-0.316,0.984,0.045
31.329,-0.314,0.980,0.041
31.339,-0.316,0.980,0.043
31.349,-0.320,0.979,0.045
31.359,-0.324,0.975,0.045
31.369,-0.320,0.979,0.047
31.379,-0.324,0.980,0.041
31.389,-0.326,0.980,0.045
31.399,-0.328,0.982,0.047
31.408,-0.326,0.980,0.045
31.418,-0.326,0.980,0.045
31.428,-0.324,0.980,0.045
31.438,-0.324,0.980,0.043
31.448,-0.324,0.979,0.045
31.458,-0.320,0.980,0.045
31.468,-0.320,0.980,0.045
31.478,-0.322,0.986,0.045
31.488,-0.316,0.982,0.047
31.498,-0.314,0.982,0.047
31.508,-0.314,0.986,0.045
31.518,-0.316,0.986,0.045
31.528,-0.312,0.982,0.047
31.538,-0.311,0.975,0.045
31.547,-0.311,0.980,0.043
31.557,-0.314,0.980,0.043
31.567,-0.316,0.982,0.043
31.577,-0.318,0.984,0.041
31.587,-0.316,0.984,0.045
31.597,-0.316,0.988,0.047
31.607,-0.318,0.986,0.043
31.617,-0.318,0.982,0.045
31.627,-0.322,0.980,0.043
31.637,-0.318,0.980,0.047
31.647,-0.316,0.980,0.047
31.657,-0.316,0.977,0.047
31.667,-0.318,0.980,0.049
31.676,-0.320,0.984,0.045
31.686,-0.318,0.982,0.047
31.696,-0.318,0.982,0.047
31.706,-0.322,0.980,0.045
31.716,-0.322,0.980,0.043
31.726,-0.320,0.980,0.045
31.736,-0.324,0.979,0.047
31.746,-0.324,0.982,0.041
31.756,-0.322,0.982,0.045
31.766,-0.320,0.982,0.043
31.776,-0.318,0.984,0.043
31.786,-0.318,0.980,0.041
31.796,-0.318,0.982,0.043
31.805,-0.316,0.984,0.045
31.815,-0.316,0.980,0.043
31.825,-0.320,0.984,0.041
31.835,-0.316,0.984,0.041
31.845,-0.320,0.984,0.045
31.855,-0.318,0.984,0.043
31.865,-0.322,0.982,0.039
31.875,-0.320,0.980,0.043
31.885,-0.320,0.979,0.043
31.895,-0.322,0.979,0.043
31.905,-0.320,0.982,0.045
31.915,-0.318,0.982,0.045
31.925,-0.318,0.982,0.045
31.935,-0.318,0.982,0.045
31.944,-0.316,0.982,0.047
31.954,-0.316,0.980,0.045
31.964,-0.312,0.980,0.045
31.974,-0.316,0.979,0.049
31.984,-0.314,0.982,0.045
31.994,-0.314,0.982,0.045
32.004,-0.316,0.984,0.045
32.014,-0.316,0.984,0.045
32.024,-0.316,0.984,0.045
32.034,-0.318,0.986,0.047
32.044,-0.316,0.982,0.043
32.054,-0.314,0.984,0.047
32.064,-0.314,0.982,0.045
32.073,-0.314,0.982,0.045
32.083,-0.314,0.984,0.047
32.093,-0.318,0.979,0.045
32.103,-0.318,0.980,0.045
32.113,-0.318,0.984,0.049
32.123,-0.318,0.982,0.049
32.133,-0.318,0.979,0.049
32.143,-0.316,0.979,0.045
32.153,-0.314,0.979,0.047
32.163,-0.316,0.980,0.047
32.173,-0.316,0.982,0.051
32.183,-0.316,0.982,0.047
32.193,-0.320,0.982,0.045
32.202,-0.322,0.984,0.047
32.212,-0.322,0.984,0.049
32.222,-0.320,0.984,0.049
32.232,-0.322,0.984,0.047
32.242,-0.320,0.982,0.049
32.252,-0.320,0.980,0.049
32.262,-0.318,0.979,0.047
32.272,-0.320,0.979,0.051
32.282,-0.316,0.975,0.047
32.292,-0.322,0.977,0.051
32.302,-0.320,0.977,0.049
32.312,-0.324,0.982,0.049
32.322,-0.324,0.980,0.051
32.332,-0.326,0.980,0.047
32.341,-0.326,0.980,0.047
32.351,-0.324,0.980,0.047
32.361,-0.326,0.980,0.047
32.371,-0.328,0.980,0.041
32.381,-0.326,0.980,0.045
32.391,-0.326,0.982,0.045
32.401,-0.324,0.980,0.047
32.411,-0.322,0.982,0.047
32.421,-0.324,0.982,0.045
32.431,-0.318,0.979,0.045
32.441,-0.316,0.980,0.047
32.451,-0.316,0.982,0.043
32.461,-0.316,0.980,0.047
32.470,-0.314,0.977,0.045
32.480,-0.316,0.980,0.045
32.490,-0.320,0.980,0.049
32.500,-0.316,0.986,0.047
32.510,-0.318,0.986,0.047
32.520,-0.318,0.988,0.041
32.530,-0.316,0.986,0.047
32.540,-0.316,0.984,0.043
32.550,-0.318,0.984,0.041
32.560,-0.318,0.986,0.043
32.570,-0.316,0.980,0.045
32.580,-0.318,0.982,0.043
32.590,-0.318,0.979,0.045
32.599,-0.318,0.982,0.047
32.609,-0.316,0.980,0.045
32.619,-0.318,0.980,0.045
32.629,-0.318,0.979,0.043
32.639,-0.320,0.979,0.045
32.649,-0.320,0.980,0.043
32.659,-0.324,0.980,0.043
32.669,-0.326,0.980,0.041
32.679,-0.322,0.980,0.043
32.689,-0.320,0.979,0.043
32.699,-0.320,0.979,0.045
32.709,-0.320,0.977,0.041
32.719,-0.322,0.977,0.041
32.729,-0.322,0.980,0.041
32.738,-0.320,0.982,0.047
32.748,-0.324,0.984,0.043
32.758,-0.322,0.984,0.041
32.768,-0.322,0.984,0.043
32.778,-0.324,0.984,0.041
32.788,-0.324,0.979,0.043
32.798,-0.324,0.982,0.039
32.808,-0.326,0.979,0.041
32.818,-0.326,0.980,0.043
32.828,-0.326,0.977,0.039
32.838,-0.324,0.979,0.043
32.848,-0.326,0.979,0.043
32.858,-0.324,0.980,0.047
32.867,-0.324,0.982,0.043
32.877,-0.322,0.979,0.043
32.887,-0.322,0.982,0.041
32.897,-0.322,0.979,0.043
32.907,-0.322,0.980,0.041
32.917,-0.314,0.979,0.043
32.927,-0.318,0.980,0.043
32.937,-0.324,0.977,0.041
32.947,-0.320,0.979,0.041
32.957,-0.322,0.980,0.043
32.967,-0.322,0.977,0.041
32.977,-0.322,0.980,0.041
32.987,-0.320,0.982,0.039
32.997,-0.318,0.982,0.037
33.006,-0.320,0.982,0.039
33.016,-0.318,0.984,0.041
33.026,-0.318,0.984,0.043
33.036,-0.314,0.988,0.039
33.046,-0.316,0.982,0.041
33.056,-0.314,0.984,0.043
33.066,-0.318,0.988,0.043
33.076,-0.318,0.988,0.045
33.086,-0.312,0.982,0.041
33.096,-0.312,0.982,0.041
33.106,-0.316,0.984,0.041
33.116,-0.314,0.982,0.043
33.126,-0.314,0.984,0.045
33.135,-0.316,0.984,0.045
33.145,-0.316,0.982,0.043
33.155,-0.318,0.980,0.045
33.165,-0.322,0.980,0.049
33.175,-0.322,0.982,0.047
33.185,-0.324,0.984,0.045
33.195,-0.322,0.984,0.045
33.205,-0.320,0.979,0.049
33.215,-0.318,0.979,0.049
33.225,-0.318,0.975,0.049
33.235,-0.318,0.975,0.047
33.245,-0.318,0.977,0.047
33.255,-0.322,0.979,0.049
33.264,-0.320,0.980,0.047
33.274,-0.320,0.982,0.049
33.284,-0.322,0.984,0.047
33.294,-0.320,0.980,0.045
33.304,-0.324,0.982,0.049
33.314,-0.322,0.980,0.051
33.324,-0.322,0.984,0.049
33.334,-0.322,0.982,0.049
33.344,-0.318,0.982,0.047
33.354,-0.320,0.984,0.051
33.364,-0.320,0.984,0.053
33.374,-0.318,0.984,0.051
33.384,-0.314,0.980,0.055
33.394,-0.314,0.984,0.051
33.403,-0.316,0.982,0.049
33.413,-0.312,0.979,0.053
33.423,-0.312,0.975,0.047
33.433,-0.314,0.980,0.047
33.443,-0.316,0.980,0.043
33.453,-0.318,0.982,0.047
33.463,-0.318,0.986,0.047
33.473,-0.320,0.984,0.047
33.483,-0.316,0.988,0.047
33.493,-0.318,0.984,0.049
33.503,-0.318,0.980,0.047
33.513,-0.316,0.979,0.049
33.523,-0.314,0.979,0.049
33.532,-0.316,0.980,0.045
33.542,-0.314,0.980,0.049
33.552,-0.314,0.979,0.047
33.562,-0.318,0.977,0.049
33.572,-0.316,0.979,0.047
33.582,-0.316,0.982,0.047
33.592,-0.318,0.980,0.045
33.602,-0.320,0.979,0.043
33.612,-0.318,0.980,0.045
33.622,-0.318,0.982,0.045
33.632,-0.322,0.980,0.043
33.642,-0.320,0.982,0.045
33.652,-0.322,0.982,0.041
33.661,-0.322,0.984,0.045
33.671,-0.322,0.984,0.043
33.681,-0.322,0.982,0.045
33.691,-0.322,0.984,0.043
33.701,-0.320,0.982,0.043
33.711,-0.318,0.984,0.043
33.721,-0.318,0.980,0.041
33.731,-0.316,0.980,0.045
33.741,-0.316,0.980,0.043
33.751,-0.320,0.982,0.045
33.761,-0.318,0.980,0.041
33.771,-0.318,0.980,0.045
33.781,-0.320,0.982,0.045
33.791,-0.320,0.980,0.043
33.800,-0.322,0.980,0.045
33.810,-0.318,0.982,0.043
33.820,-0.320,0.984,0.043
33.830,-0.320,0.980,0.047
33.840,-0.320,0.984,0.049
33.850,-0.322,0.984,0.043
33.860,-0.322,0.980,0.047
33.870,-0.322,0.980,0.049
33.880,-0.320,0.979,0.047
33.890,-0.320,0.979,0.047
33.900,-0.322,0.980,0.045
33.910,-0.322,0.980,0.047
33.920,-0.322,0.982,0.047
33.929,-0.328,0.979,0.045
33.939,-0.322,0.980,0.049
33.949,-0.322,0.979,0.045
33.959,-0.324,0.980,0.047
33.969,-0.324,0.980,0.047
33.979,-0.322,0.982,0.047
33.989,-0.318,0.984,0.047
33.999,-0.320,0.986,0.049
34.009,-0.318,0.982,0.049
34.019,-0.316,0.980,0.047
34.029,-0.318,0.980,0.047
34.039,-0.318,0.980,0.049
34.049,-0.318,0.984,0.051
34.058,-0.320,0.980,0.049
34.068,-0.324,0.984,0.049
34.078,-0.322,0.986,0.049
34.088,-0.322,0.986,0.045
34.098,-0.320,0.984,0.051
34.108,-0.316,0.984,0.047
34.118,-0.316,0.984,0.047
34.128,-0.316,0.980,0.053
34.138,-0.314,0.979,0.051
34.148,-0.316,0.977,0.049
34.158,-0.316,0.977,0.049
34.168,-0.316,0.980,0.053
34.178,-0.318,0.979,0.053
34.188,-0.320,0.982,0.051
34.197,-0.318,0.984,0.045
34.207,-0.320,0.984,0.047
34.217,-0.318,0.984,0.049
34.227,-0.320,0.980,0.047
34.237,-0.320,0.979,0.049
34.247,-0.320,0.982,0.047
34.257,-0.322,0.982,0.045
34.267,-0.320,0.979,0.047
34.277,-0.322,0.980,0.049
34.287,-0.318,0.982,0.049
34.297,-0.318,0.986,0.049
34.307,-0.318,0.980,0.049
34.317,-0.316,0.984,0.051
34.326,-0.314,0.986,0.049
34.336,-0.316,0.980,0.049
34.346,-0.314,0.975,0.047
34.356,-0.318,0.980,0.045
34.366,-0.314,0.982,0.047
34.376,-0.320,0.982,0.049
34.386,-0.322,0.988,0.047
34.396,-0.318,0.984,0.049
34.406,-0.316,0.982,0.047
34.416,-0.320,0.984,0.045
34.426,-0.320,0.980,0.047
34.436,-0.318,0.980,0.047
34.446,-0.324,0.979,0.049
34.455,-0.322,0.975,0.049
34.465,-0.320,0.979,0.045
34.475,-0.320,0.979,0.049
34.485,-0.320,0.980,0.051
34.495,-0.318,0.980,0.045
34.505,-0.318,0.977,0.045
34.515,-0.316,0.982,0.043
34.525,-0.318,0.980,0.043
34.535,-0.320,0.980,0.045
34.545,-0.318,0.980,0.043
34.555,-0.318,0.980,0.045
34.565,-0.316,0.986,0.045
34.575,-0.318,0.984,0.043
34.585,-0.318,0.982,0.047
34.594,-0.318,0.986,0.045
34.604,-0.318,0.984,0.045
34.614,-0.318,0.988,0.047
34.624,-0.318,0.984,0.049
34.634,-0.320,0.984,0.047
34.644,-0.320,0.984,0.045
34.654,-0.318,0.982,0.045
34.664,-0.320,0.984,0.047
34.674,-0.320,0.982,0.049
34.684,-0.318,0.980,0.047
34.694,-0.322,0.980,0.049
34.704,-0.320,0.980,0.049
34.714,-0.320,0.982,0.049
34.723,-0.320,0.982,0.047
34.733,-0.316,0.984,0.051
34.743,-0.318,0.980,0.049
34.753,-0.318,0.979,0.049
34.763,-0.316,0.979,0.049
34.773,-0.318,0.980,0.047
34.783,-0.320,0.980,0.049
34.793,-0.320,0.980,0.051
34.803,-0.320,0.984,0.049
34.813,-0.320,0.982,0.051
34.823,-0.318,0.982,0.047
34.833,-0.316,0.982,0.043
34.843,-0.312,0.982,0.045
34.852,-0.314,0.986,0.043
34.862,-0.314,0.984,0.049
34.872,-0.312,0.980,0.043
34.882,-0.309,0.979,0.047
34.892,-0.303,0.986,0.047
34.902,-0.307,0.982,0.041
34.912,-0.307,0.984,0.047
34.922,-0.312,0.982,0.043
34.932,-0.312,0.980,0.043
34.942,-0.316,0.982,0.043
34.952,-0.320,0.984,0.045
34.962,-0.326,0.982,0.039
34.972,-0.326,0.982,0.039
34.982,-0.326,0.986,0.043
34.991,-0.330,0.986,0.043
35.001,-0.326,0.988,0.043
35.011,-0.326,0.986,0.045
35.021,-0.322,0.986,0.043
35.031,-0.316,0.980,0.045
35.041,-0.314,0.975,0.045
35.051,-0.312,0.973,0.049
35.061,-0.314,0.975,0.045
35.071,-0.311,0.977,0.051
35.081,-0.316,0.979,0.049
35.091,-0.318,0.984,0.051
35.101,-0.318,0.982,0.047
35.111,-0.322,0.982,0.049
35.120,-0.322,0.982,0.047
35.130,-0.324,0.980,0.047
35.140,-0.322,0.980,0.045
35.150,-0.322,0.980,0.047
35.160,-0.328,0.980,0.049
35.170,-0.324,0.979,0.051
35.180,-0.324,0.979,0.047
35.190,-0.322,0.979,0.049
35.200,-0.318,0.979,0.053
35.210,-0.320,0.980,0.047
35.220,-0.318,0.979,0.047
35.230,-0.316,0.979,0.047
35.240,-0.316,0.980,0.047
35.249,-0.318,0.980,0.047
35.259,-0.320,0.986,0.041
35.269,-0.318,0.984,0.045
35.279,-0.318,0.984,0.043
35.289,-0.316,0.988,0.045
35.299,-0.314,0.988,0.043
35.309,-0.314,0.984,0.049
35.319,-0.312,0.984,0.047
35.329,-0.312,0.982,0.045
35.339,-0.314,0.979,0.043
35.349,-0.309,0.984,0.045
35.359,-0.311,0.980,0.043
35.369,-0.312,0.980,0.041
35.379,-0.316,0.984,0.045
35.388,-0.312,0.984,0.045
35.398,-0.316,0.984,0.041
35.408,-0.314,0.984,0.045
35.418,-0.314,0.980,0.043
35.428,-0.314,0.986,0.047
35.438,-0.316,0.984,0.045
35.448,-0.311,0.986,0.043
35.458,-0.311,0.982,0.045
35.468,-0.311,0.982,0.041
35.478,-0.309,0.984,0.045
35.488,-0.307,0.986,0.043
35.498,-0.311,0.986,0.043
35.508,-0.309,0.988,0.043
35.517,-0.305,0.986,0.041
35.527,-0.305,0.984,0.043
35.537,-0.303,0.990,0.045
35.547,-0.307,0.986,0.043
35.557,-0.305,0.984,0.047
35.567,-0.305,0.990,0.045
35.577,-0.307,0.982,0.049
35.587,-0.307,0.986,0.043
35.597,-0.307,0.984,0.047
35.607,-0.301,0.984,0.045
35.617,-0.301,0.982,0.047
35.627,-0.301,0.982,0.047
35.637,-0.303,0.982,0.045
35.647,-0.305,0.984,0.043
35.656,-0.305,0.984,0.041
35.666,-0.305,0.986,0.045
35.676,-0.309,0.984,0.045
35.686,-0.307,0.986,0.045
35.696,-0.305,0.982,0.043
35.706,-0.303,0.986,0.043
35.716,-0.303,0.984,0.043
35.726,-0.303,0.984,0.039
35.736,-0.299,0.980,0.041
35.746,-0.301,0.986,0.041
35.756,-0.303,0.988,0.043
35.766,-0.301,0.990,0.043
35.776,-0.301,0.990,0.041
35.785,-0.303,0.984,0.039
35.795,-0.299,0.984,0.039
35.805,-0.303,0.992,0.043
35.815,-0.303,0.986,0.041
35.825,-0.303,0.986,0.041
35.835,-0.307,0.990,0.043
35.845,-0.307,0.988,0.045
35.855,-0.307,0.990,0.045
35.865,-0.307,0.988,0.045
35.875,-0.307,0.986,0.043
35.885,-0.305,0.982,0.043
35.895,-0.307,0.984,0.041
35.905,-0.307,0.982,0.041
35.914,-0.305,0.977,0.041
35.924,-0.311,0.980,0.041
35.934,-0.309,0.980,0.041
35.944,-0.312,0.984,0.043
35.954,-0.309,0.982,0.043
35.964,-0.309,0.984,0.043
35.974,-0.311,0.986,0.043
35.984,-0.309,0.986,0.041
35.994,-0.311,0.988,0.043
36.004,-0.309,0.988,0.043
36.014,-0.303,0.984,0.041
36.024,-0.305,0.984,0.039
36.034,-0.301,0.984,0.045
36.044,-0.299,0.986,0.045
36.053,-0.301,0.988,0.043
36.063,-0.297,0.986,0.045
36.073,-0.299,0.988,0.047
36.083,-0.295,0.988,0.045
36.093,-0.297,0.984,0.043
36.103,-0.299,0.980,0.045
36.113,-0.297,0.982,0.043
36.123,-0.301,0.988,0.039
36.133,-0.301,0.992,0.043
36.143,-0.305,0.988,0.043
36.153,-0.301,0.990,0.045
36.163,-0.299,0.990,0.041
36.173,-0.299,0.986,0.045
36.182,-0.301,0.984,0.043
36.192,-0.301,0.986,0.041
36.202,-0.299,0.984,0.041
36.212,-0.299,0.982,0.043
36.222,-0.299,0.986,0.043
36.232,-0.301,0.986,0.041
36.242,-0.303,0.988,0.039
36.252,-0.303,0.982,0.045
36.262,-0.303,0.988,0.041
36.272,-0.301,0.990,0.041
36.282,-0.301,0.988,0.043
36.292,-0.303,0.982,0.045
36.302,-0.303,0.984,0.037
36.311,-0.301,0.984,0.039
36.321,-0.305,0.986,0.039
36.331,-0.301,0.986,0.041
36.341,-0.303,0.986,0.041
36.351,-0.301,0.986,0.045
36.361,-0.299,0.986,0.041
36.371,-0.301,0.988,0.041
36.381,-0.301,0.986,0.039
36.391,-0.301,0.982,0.043
36.401,-0.303,0.984,0.039
36.411,-0.301,0.986,0.041
36.421,-0.303,0.986,0.041
36.431,-0.303,0.990,0.043
36.441,-0.303,0.986,0.041
36.450,-0.303,0.986,0.041
36.460,-0.303,0.986,0.039
36.470,-0.305,0.986,0.043
36.480,-0.305,0.984,0.041
36.490,-0.305,0.986,0.041
36.500,-0.301,0.986,0.039
36.510,-0.303,0.982,0.039
36.520,-0.301,0.982,0.039
36.530,-0.305,0.986,0.039
36.540,-0.307,0.986,0.037
36.550,-0.305,0.990,0.039
36.560,-0.305,0.988,0.043
36.570,-0.307,0.986,0.043
36.579,-0.301,0.982,0.043
36.589,-0.301,0.984,0.039
36.599,-0.303,0.988,0.041
36.609,-0.303,0.990,0.041
36.619,-0.303,0.990,0.037
36.629,-0.305,0.986,0.043
36.639,-0.307,0.990,0.041
36.649,-0.307,0.988,0.043
36.659,-0.305,0.990,0.043
36.669,-0.309,0.988,0.041
36.679,-0.303,0.986,0.043
36.689,-0.305,0.984,0.039
36.699,-0.305,0.980,0.045
36.708,-0.301,0.979,0.041
36.718,-0.303,0.980,0.041
36.728,-0.305,0.980,0.039
36.738,-0.307,0.982,0.047
36.748,-0.307,0.982,0.043
36.758,-0.309,0.988,0.045
36.768,-0.307,0.984,0.043
36.778,-0.307,0.986,0.047
36.788,-0.305,0.986,0.045
36.798,-0.309,0.984,0.045
36.808,-0.309,0.986,0.041
36.818,-0.303,0.984,0.043
36.828,-0.305,0.984,0.041
36.838,-0.301,0.986,0.041
36.847,-0.305,0.986,0.041
36.857,-0.301,0.986,0.043
36.867,-0.301,0.984,0.043
36.877,-0.301,0.990,0.041
36.887,-0.301,0.986,0.043
36.897,-0.297,0.982,0.041
36.907,-0.297,0.982,0.039
36.917,-0.301,0.984,0.041
36.927,-0.305,0.988,0.043
36.937,-0.299,0.988,0.043
36.947,-0.299,0.988,0.043
36.957,-0.301,0.988,0.043
36.967,-0.295,0.988,0.041
36.976,-0.297,0.986,0.039
36.986,-0.301,0.982,0.045
36.996,-0.297,0.980,0.043
37.006,-0.297,0.986,0.041
37.016,-0.297,0.980,0.043
37.026,-0.303,0.984,0.041
37.036,-0.305,0.984,0.041
37.046,-0.303,0.990,0.037
37.056,-0.303,0.992,0.041
37.066,-0.307,0.990,0.041
37.076,-0.305,0.988,0.041
37.086,-0.307,0.986,0.041
37.096,-0.305,0.984,0.043
37.105,-0.303,0.984,0.043
37.115,-0.301,0.984,0.039
37.125,-0.301,0.986,0.041
37.135,-0.303,0.986,0.039
37.145,-0.303,0.986,0.043
37.155,-0.303,0.986,0.043
37.165,-0.303,0.988,0.043
37.175,-0.305,0.990,0.041
37.185,-0.307,0.984,0.043
37.195,-0.305,0.988,0.043
37.205,-0.309,0.986,0.043
37.215,-0.307,0.986,0.043
37.225,-0.312,0.982,0.041
37.235,-0.307,0.984,0.043
37.244,-0.307,0.982,0.043
37.254,-0.307,0.984,0.041
37.264,-0.305,0.984,0.041
37.274,-0.309,0.986,0.045
37.284,-0.307,0.984,0.045
37.294,-0.307,0.986,0.041
37.304,-0.305,0.982,0.043
37.314,-0.305,0.984,0.041
37.324,-0.307,0.986,0.045
37.334,-0.307,0.986,0.043
37.344,-0.305,0.984,0.045
37.354,-0.303,0.988,0.041
37.364,-0.305,0.984,0.041
37.373,-0.303,0.988,0.039
37.383,-0.301,0.982,0.043
37.393,-0.305,0.986,0.043
37.403,-0.305,0.988,0.043
37.413,-0.303,0.986,0.047
37.423,-0.301,0.984,0.039
37.433,-0.303,0.986,0.043
37.443,-0.301,0.990,0.041
37.453,-0.301,0.988,0.039
37.463,-0.305,0.988,0.039
37.473,-0.303,0.984,0.039
37.483,-0.303,0.988,0.041
37.493,-0.307,0.990,0.043
37.502,-0.305,0.990,0.039
37.512,-0.303,0.990,0.041
37.522,-0.303,0.988,0.043
37.532,-0.301,0.988,0.043
37.542,-0.305,0.986,0.041
37.552,-0.301,0.984,0.041
37.562,-0.299,0.986,0.045
37.572,-0.299,0.984,0.045
37.582,-0.299,0.982,0.043
37.592,-0.299,0.984,0.043
37.602,-0.299,0.986,0.045
37.612,-0.295,0.988,0.047
37.622,-0.299,0.984,0.041
37.632,-0.303,0.986,0.041
37.641,-0.301,0.986,0.039
37.651,-0.307,0.984,0.043
37.661,-0.307,0.988,0.039
37.671,-0.305,0.986,0.041
37.681,-0.303,0.986,0.041
37.691,-0.305,0.984,0.041
37.701,-0.305,0.986,0.045
37.711,-0.305,0.986,0.045
37.721,-0.301,0.984,0.043
37.731,-0.299,0.986,0.041
37.741,-0.301,0.986,0.041
37.751,-0.301,0.984,0.045
37.761,-0.299,0.988,0.041
37.770,-0.301,0.986,0.043
37.780,-0.305,0.986,0.047
37.790,-0.305,0.990,0.043
37.800,-0.299,0.988,0.043
37.810,-0.301,0.990,0.045
37.820,-0.303,0.986,0.043
37.830,-0.299,0.984,0.041
37.840,-0.303,0.982,0.041
37.850,-0.305,0.984,0.039
37.860,-0.303,0.986,0.043
37.870,-0.305,0.984,0.043
37.880,-0.307,0.984,0.043
37.890,-0.303,0.986,0.039
37.899,-0.301,0.984,0.045
37.909,-0.301,0.988,0.043
37.919,-0.301,0.984,0.043
37.929,-0.303,0.986,0.043
37.939,-0.303,0.986,0.041
37.949,-0.303,0.982,0.041
37.959,-0.305,0.984,0.043
37.969,-0.305,0.986,0.043
37.979,-0.303,0.984,0.045
37.989,-0.307,0.986,0.043
37.999,-0.303,0.986,0.043
38.009,-0.305,0.988,0.043
38.019,-0.301,0.984,0.041
38.029,-0.305,0.986,0.041
38.038,-0.303,0.984,0.041
38.048,-0.301,0.984,0.041
38.058,-0.303,0.986,0.041
38.068,-0.301,0.988,0.043
38.078,-0.301,0.988,0.043
38.088,-0.301,0.984,0.041
38.098,-0.303,0.988,0.041
38.108,-0.301,0.986,0.043
38.118,-0.301,0.988,0.043
38.128,-0.301,0.988,0.043
38.138,-0.297,0.990,0.047
38.148,-0.297,0.988,0.039
38.158,-0.301,0.986,0.041
38.167,-0.301,0.988,0.043
38.177,-0.303,0.988,0.041
38.187,-0.305,0.986,0.041
38.197,-0.305,0.986,0.041
38.207,-0.305,0.988,0.041
38.217,-0.307,0.986,0.041
38.227,-0.307,0.986,0.037
38.237,-0.303,0.982,0.041
38.247,-0.307,0.986,0.043
38.257,-0.309,0.982,0.041
38.267,-0.307,0.982,0.037
38.277,-0.305,0.982,0.043
38.287,-0.309,0.988,0.041
38.296,-0.307,0.988,0.039
38.306,-0.305,0.986,0.039
38.316,-0.303,0.982,0.041
38.326,-0.303,0.984,0.039
38.336,-0.303,0.986,0.041
38.346,-0.305,0.982,0.043
38.356,-0.307,0.984,0.043
38.366,-0.309,0.986,0.041
38.376,-0.309,0.988,0.043
38.386,-0.309,0.986,0.041
38.396,-0.309,0.988,0.041
38.406,-0.309,0.986,0.039
38.416,-0.309,0.984,0.041
38.426,-0.309,0.984,0.043
38.435,-0.311,0.979,0.037
38.445,-0.312,0.977,0.043
38.455,-0.311,0.979,0.039
38.465,-0.309,0.982,0.041
38.475,-0.309,0.986,0.043
38.485,-0.307,0.986,0.041
38.495,-0.309,0.986,0.043
38.505,-0.311,0.982,0.039
38.515,-0.311,0.986,0.039
38.525,-0.311,0.986,0.039
38.535,-0.311,0.980,0.035
38.545,-0.309,0.984,0.043
38.555,-0.309,0.988,0.037
38.564,-0.309,0.988,0.039
38.574,-0.311,0.988,0.039
38.584,-0.311,0.990,0.039
38.594,-0.307,0.982,0.045
38.604,-0.305,0.986,0.039
38.614,-0.305,0.986,0.039
38.624,-0.303,0.986,0.043
38.634,-0.305,0.986,0.041
38.644,-0.307,0.984,0.045
38.654,-0.309,0.988,0.039
38.664,-0.311,0.988,0.045
38.674,-0.309,0.984,0.043
38.684,-0.307,0.984,0.043
38.694,-0.309,0.984,0.041
38.703,-0.305,0.984,0.043
38.713,-0.303,0.984,0.043
38.723,-0.311,0.984,0.043
38.733,-0.309,0.984,0.039
38.743,-0.311,0.982,0.045
38.753,-0.311,0.980,0.037
38.763,-0.307,0.982,0.041
38.773,-0.309,0.984,0.037
38.783,-0.309,0.988,0.039
38.793,-0.305,0.990,0.039
38.803,-0.307,0.984,0.041
38.813,-0.309,0.984,0.039
38.823,-0.311,0.982,0.039
38.832,-0.309,0.984,0.041
38.842,-0.311,0.986,0.035
38.852,-0.309,0.984,0.041
38.862,-0.311,0.984,0.037
38.872,-0.309,0.984,0.037
38.882,-0.311,0.986,0.039
38.892,-0.311,0.986,0.039
38.902,-0.311,0.984,0.041
38.912,-0.311,0.984,0.035
38.922,-0.309,0.984,0.039
38.932,-0.311,0.986,0.039
38.942,-0.311,0.984,0.039
38.952,-0.312,0.986,0.039
38.961,-0.314,0.986,0.037
38.971,-0.312,0.984,0.037
38.981,-0.312,0.984,0.039
38.991,-0.312,0.984,0.041
39.001,-0.311,0.984,0.039
39.011,-0.312,0.982,0.039
39.021,-0.312,0.984,0.041
39.031,-0.314,0.980,0.041
39.041,-0.311,0.980,0.039
39.051,-0.311,0.984,0.037
39.061,-0.312,0.982,0.039
39.071,-0.312,0.986,0.039
39.081,-0.312,0.982,0.037
39.091,-0.312,0.982,0.037
39.100,-0.312,0.984,0.041
39.110,-0.312,0.984,0.039
39.120,-0.312,0.979,0.035
39.130,-0.311,0.980,0.039
39.140,-0.311,0.990,0.041
39.150,-0.309,0.984,0.041
39.160,-0.309,0.984,0.041
39.170,-0.307,0.982,0.037
39.180,-0.307,0.982,0.037
39.190,-0.309,0.984,0.037
39.200,-0.309,0.984,0.035
39.210,-0.312,0.986,0.037
39.220,-0.312,0.984,0.037
39.229,-0.312,0.986,0.035
39.239,-0.312,0.988,0.035
39.249,-0.312,0.986,0.041
39.259,-0.309,0.986,0.041
39.269,-0.307,0.986,0.039
39.279,-0.309,0.979,0.043
39.289,-0.309,0.979,0.041
39.299,-0.307,0.982,0.041
39.309,-0.311,0.980,0.041
39.319,-0.307,0.979,0.039
39.329,-0.312,0.982,0.037
39.339,-0.311,0.984,0.037
39.349,-0.314,0.986,0.041
39.358,-0.314,0.984,0.041
39.368,-0.311,0.984,0.041
39.378,-0.311,0.984,0.039
39.388,-0.311,0.986,0.043
39.398,-0.311,0.984,0.037
39.408,-0.311,0.984,0.039
39.418,-0.311,0.984,0.039
39.428,-0.311,0.988,0.041
39.438,-0.307,0.986,0.039
39.448,-0.303,0.984,0.041
39.458,-0.307,0.986,0.043
39.468,-0.307,0.986,0.043
39.478,-0.303,0.982,0.039
39.488,-0.307,0.977,0.039
39.497,-0.305,0.982,0.039
39.507,-0.309,0.984,0.041
39.517,-0.309,0.986,0.041
39.527,-0.309,0.986,0.041
39.537,-0.307,0.988,0.043
39.547,-0.309,0.988,0.043
39.557,-0.309,0.988,0.041
39.567,-0.311,0.986,0.039
39.577,-0.311,0.980,0.039
39.587,-0.309,0.984,0.039
39.597,-0.307,0.980,0.041
39.607,-0.307,0.982,0.039
39.617,-0.309,0.980,0.043
39.626,-0.311,0.984,0.043
39.636,-0.309,0.980,0.043
39.646,-0.309,0.988,0.041
39.656,-0.311,0.986,0.043
39.666,-0.314,0.986,0.043
39.676,-0.311,0.986,0.039
39.686,-0.312,0.986,0.037
39.696,-0.311,0.984,0.039
39.706,-0.312,0.984,0.041
39.716,-0.312,0.984,0.039
39.726,-0.311,0.982,0.041
39.736,-0.309,0.986,0.039
39.746,-0.309,0.984,0.043
39.755,-0.311,0.986,0.039
39.765,-0.309,0.984,0.041
39.775,-0.311,0.984,0.037
39.785,-0.311,0.984,0.041
39.795,-0.309,0.984,0.039
39.805,-0.311,0.984,0.041
39.815,-0.307,0.980,0.041
39.825,-0.311,0.986,0.041
39.835,-0.309,0.984,0.043
39.845,-0.305,0.986,0.043
39.855,-0.307,0.984,0.043
39.865,-0.309,0.986,0.043
39.875,-0.309,0.982,0.041
39.885,-0.309,0.980,0.043
39.894,-0.309,0.986,0.039
39.904,-0.309,0.984,0.041
39.914,-0.309,0.982,0.041
39.924,-0.311,0.984,0.041
39.934,-0.311,0.984,0.037
39.944,-0.311,0.984,0.041
39.954,-0.311,0.986,0.043
39.964,-0.307,0.980,0.043
39.974,-0.309,0.986,0.041
39.984,-0.309,0.986,0.043
39.994,-0.307,0.982,0.041
40.004,-0.311,0.986,0.043
40.014,-0.309,0.988,0.043
40.023,-0.309,0.986,0.039
40.033,-0.311,0.982,0.041
40.043,-0.309,0.986,0.041
40.053,-0.307,0.984,0.037
40.063,-0.307,0.988,0.043
40.073,-0.309,0.986,0.045
40.083,-0.309,0.986,0.043
40.093,-0.311,0.982,0.043
40.103,-0.311,0.986,0.041
40.113,-0.312,0.988,0.043
40.123,-0.312,0.986,0.039
40.133,-0.307,0.988,0.043
40.143,-0.309,0.984,0.043
40.152,-0.307,0.986,0.041
40.162,-0.309,0.984,0.043
40.172,-0.309,0.979,0.041
40.182,-0.305,0.982,0.043
40.192,-0.305,0.982,0.047
40.202,-0.307,0.986,0.045
40.212,-0.307,0.984,0.045
40.222,-0.307,0.984,0.043
40.232,-0.311,0.982,0.043
40.242,-0.312,0.982,0.041
40.252,-0.311,0.984,0.045
40.262,-0.309,0.982,0.041
40.272,-0.311,0.984,0.041
40.282,-0.314,0.986,0.043
40.291,-0.309,0.982,0.045
40.301,-0.307,0.984,0.043
40.311,-0.309,0.986,0.043
40.321,-0.309,0.982,0.047
40.331,-0.305,0.984,0.047
40.341,-0.303,0.990,0.047
40.351,-0.301,0.984,0.047
40.361,-0.301,0.982,0.047
40.371,-0.305,0.984,0.047
40.381,-0.303,0.984,0.043
40.391,-0.307,0.984,0.045
40.401,-0.305,0.986,0.043
40.411,-0.307,0.990,0.045
40.420,-0.307,0.988,0.047
40.430,-0.307,0.986,0.043
40.440,-0.307,0.986,0.045
40.450,-0.307,0.984,0.043
40.460,-0.309,0.984,0.047
40.470,-0.309,0.984,0.047
40.480,-0.307,0.984,0.043
40.490,-0.309,0.984,0.045
40.500,-0.307,0.982,0.045
40.510,-0.307,0.980,0.045
40.520,-0.311,0.984,0.041
40.530,-0.309,0.980,0.045
40.540,-0.312,0.980,0.045
40.549,-0.312,0.984,0.045
40.559,-0.311,0.986,0.043
40.569,-0.311,0.986,0.045
40.579,-0.311,0.986,0.043
40.589,-0.309,0.984,0.043
40.599,-0.311,0.984,0.043
40.609,-0.311,0.982,0.045
40.619,-0.311,0.982,0.045
40.629,-0.309,0.988,0.041
40.639,-0.309,0.986,0.043
40.649,-0.309,0.986,0.045
40.659,-0.309,0.984,0.041
40.669,-0.305,0.986,0.041
40.679,-0.307,0.984,0.043
40.688,-0.307,0.984,0.043
40.698,-0.307,0.984,0.043
40.708,-0.307,0.986,0.041
40.718,-0.305,0.986,0.045
40.728,-0.307,0.986,0.041
40.738,-0.307,0.984,0.043
40.748,-0.309,0.982,0.045
40.758,-0.309,0.986,0.043
40.768,-0.309,0.982,0.041
40.778,-0.311,0.986,0.045
40.788,-0.307,0.986,0.043
40.798,-0.307,0.982,0.043
40.808,-0.305,0.984,0.043
40.817,-0.307,0.984,0.045
40.827,-0.307,0.984,0.043
40.837,-0.309,0.986,0.041
40.847,-0.305,0.986,0.043
40.857,-0.311,0.982,0.043
40.867,-0.309,0.986,0.041
40.877,-0.309,0.984,0.043
40.887,-0.309,0.986,0.041
40.897,-0.307,0.988,0.045
40.907,-0.309,0.986,0.045
40.917,-0.307,0.984,0.045
40.927,-0.309,0.984,0.041
40.937,-0.303,0.982,0.045
40.946,-0.309,0.986,0.043
40.956,-0.305,0.984,0.043
40.966,-0.311,0.986,0.045
40.976,-0.311,0.986,0.041
40.986,-0.309,0.986,0.041
40.996,-0.312,0.988,0.045
41.006,-0.312,0.986,0.045
41.016,-0.311,0.986,0.043
41.026,-0.309,0.982,0.045
41.036,-0.309,0.984,0.047
41.046,-0.307,0.980,0.041
41.056,-0.309,0.982,0.043
41.066,-0.309,0.980,0.049
41.076,-0.307,0.986,0.047
41.085,-0.305,0.986,0.043
41.095,-0.307,0.986,0.045
41.105,-0.307,0.988,0.047
41.115,-0.309,0.984,0.049
41.125,-0.312,0.986,0.045
41.135,-0.312,0.988,0.045
41.145,-0.309,0.982,0.047
41.155,-0.311,0.982,0.045
41.165,-0.311,0.984,0.045
41.175,-0.312,0.986,0.043
41.185,-0.312,0.984,0.047
41.195,-0.314,0.986,0.043
41.205,-0.311,0.980,0.047
41.214,-0.309,0.984,0.049
41.224,-0.309,0.986,0.047
41.234,-0.305,0.984,0.045
41.244,-0.309,0.982,0.047
41.254,-0.307,0.980,0.047
41.264,-0.311,0.982,0.045
41.274,-0.309,0.986,0.049
41.284,-0.311,0.990,0.047
41.294,-0.312,0.988,0.049
41.304,-0.307,0.988,0.047
41.314,-0.309,0.984,0.051
41.324,-0.307,0.984,0.051
41.334,-0.309,0.984,0.049
41.344,-0.309,0.979,0.045
41.353,-0.311,0.980,0.045
41.363,-0.309,0.979,0.047
41.373,-0.311,0.982,0.047
41.383,-0.311,0.982,0.047
41.393,-0.309,0.984,0.045
41.403,-0.311,0.984,0.045
41.413,-0.311,0.984,0.041
41.423,-0.311,0.986,0.043
41.433,-0.311,0.984,0.047
41.443,-0.312,0.986,0.045
41.453,-0.311,0.984,0.045
41.463,-0.311,0.984,0.043
41.473,-0.311,0.986,0.041
41.482,-0.311,0.986,0.041
41.492,-0.311,0.982,0.043
41.502,-0.309,0.982,0.047
41.512,-0.311,0.984,0.045
41.522,-0.307,0.982,0.045
41.532,-0.305,0.982,0.045
41.542,-0.309,0.984,0.047
41.552,-0.309,0.988,0.045
41.562,-0.309,0.984,0.049
41.572,-0.311,0.984,0.045
41.582,-0.314,0.984,0.043
41.592,-0.311,0.986,0.043
41.602,-0.312,0.982,0.043
41.611,-0.314,0.984,0.043
41.621,-0.311,0.986,0.047
41.631,-0.312,0.984,0.045
41.641,-0.311,0.984,0.041
41.651,-0.312,0.984,0.047
41.661,-0.309,0.984,0.047
41.671,-0.307,0.984,0.049
41.681,-0.311,0.984,0.045
41.691,-0.309,0.982,0.045
41.701,-0.309,0.982,0.043
41.711,-0.311,0.984,0.047
41.721,-0.309,0.984,0.043
41.731,-0.311,0.982,0.043
41.741,-0.307,0.982,0.045
41.750,-0.307,0.984,0.043
41.760,-0.311,0.984,0.041
41.770,-0.311,0.984,0.045
41.780,-0.309,0.988,0.043
41.790,-0.309,0.982,0.039
41.800,-0.309,0.986,0.045
41.810,-0.312,0.992,0.045
41.820,-0.309,0.988,0.045
41.830,-0.312,0.984,0.045
41.840,-0.311,0.984,0.041
41.850,-0.312,0.988,0.041
41.860,-0.312,0.988,0.047
41.870,-0.312,0.986,0.047
41.879,-0.312,0.984,0.047
41.889,-0.311,0.982,0.047
41.899,-0.309,0.984,0.045
41.909,-0.309,0.979,0.047
41.919,-0.312,0.979,0.045
41.929,-0.312,0.977,0.049
41.939,-0.316,0.980,0.047
41.949,-0.314,0.984,0.045
41.959,-0.314,0.986,0.047
41.969,-0.314,0.984,0.047
41.979,-0.311,0.988,0.049
41.989,-0.312,0.986,0.045
41.999,-0.311,0.982,0.045
42.008,-0.312,0.986,0.049
42.018,-0.312,0.986,0.045
42.028,-0.311,0.984,0.047
42.038,-0.311,0.986,0.047
42.048,-0.312,0.986,0.045
42.058,-0.312,0.980,0.047
42.068,-0.305,0.982,0.047
42.078,-0.309,0.986,0.051
42.088,-0.309,0.984,0.049
42.098,-0.307,0.980,0.049
42.108,-0.307,0.982,0.045
42.118,-0.309,0.984,0.045
42.128,-0.309,0.988,0.045
42.138,-0.311,0.984,0.045
42.147,-0.309,0.988,0.045
42.157,-0.309,0.986,0.045
42.167,-0.309,0.986,0.045
42.177,-0.312,0.984,0.047
42.187,-0.309,0.984,0.049
42.197,-0.307,0.982,0.045
42.207,-0.309,0.982,0.049
42.217,-0.305,0.982,0.047
42.227,-0.309,0.979,0.047
42.237,-0.311,0.982,0.041
42.247,-0.307,0.979,0.049
42.257,-0.311,0.984,0.047
42.267,-0.312,0.984,0.045
42.276,-0.311,0.988,0.049
42.286,-0.311,0.984,0.045
42.296,-0.311,0.988,0.045
42.306,-0.311,0.984,0.049
42.316,-0.311,0.984,0.049
42.326,-0.312,0.984,0.045
42.336,-0.312,0.984,0.049
42.346,-0.309,0.982,0.045
42.356,-0.312,0.984,0.043
42.366,-0.312,0.984,0.049
42.376,-0.314,0.984,0.049
42.386,-0.312,0.986,0.047
42.396,-0.312,0.986,0.047
42.405,-0.312,0.982,0.049
42.415,-0.309,0.982,0.047
42.425,-0.309,0.980,0.047
42.435,-0.311,0.982,0.049
42.445,-0.311,0.982,0.049
42.455,-0.311,0.984,0.047
42.465,-0.309,0.986,0.047
42.475,-0.309,0.986,0.047
42.485,-0.311,0.986,0.047
42.495,-0.309,0.984,0.043
42.505,-0.309,0.982,0.047
42.515,-0.309,0.984,0.043
42.525,-0.311,0.982,0.045
42.535,-0.309,0.980,0.045
42.544,-0.309,0.986,0.047
42.554,-0.307,0.992,0.045
42.564,-0.307,0.990,0.045
42.574,-0.309,0.984,0.047
42.584,-0.309,0.980,0.047
42.594,-0.311,0.980,0.047
42.604,-0.309,0.986,0.047
42.614,-0.311,0.986,0.047
42.624,-0.312,0.982,0.043
42.634,-0.312,0.982,0.045
42.644,-0.314,0.986,0.047
42.654,-0.314,0.988,0.047
42.664,-0.314,0.986,0.045
42.673,-0.312,0.984,0.045
42.683,-0.311,0.982,0.047
42.693,-0.307,0.982,0.045
42.703,-0.309,0.980,0.047
42.713,-0.312,0.984,0.043
42.723,-0.309,0.980,0.043
42.733,-0.311,0.982,0.049
42.743,-0.311,0.982,0.043
42.753,-0.309,0.982,0.045
42.763,-0.309,0.986,0.045
42.773,-0.312,0.986,0.045
42.783,-0.314,0.986,0.041
42.793,-0.312,0.988,0.043
42.802,-0.309,0.988,0.045
42.812,-0.311,0.982,0.045
42.822,-0.312,0.984,0.045
42.832,-0.311,0.986,0.047
42.842,-0.311,0.986,0.049
42.852,-0.311,0.982,0.045
42.862,-0.309,0.984,0.049
42.872,-0.307,0.984,0.047
42.882,-0.312,0.986,0.045
42.892,-0.309,0.982,0.049
42.902,-0.307,0.980,0.045
42.912,-0.309,0.984,0.049
42.922,-0.309,0.988,0.049
42.932,-0.311,0.990,0.047
42.941,-0.309,0.986,0.051
42.951,-0.312,0.988,0.053
42.961,-0.311,0.986,0.049
42.971,-0.314,0.984,0.049
42.981,-0.314,0.984,0.049
42.991,-0.314,0.982,0.049
43.001,-0.311,0.982,0.049
43.011,-0.311,0.982,0.051
43.021,-0.309,0.982,0.049
43.031,-0.307,0.984,0.051
43.041,-0.311,0.986,0.051
43.051,-0.307,0.984,0.047
43.061,-0.305,0.986,0.047
43.070,-0.309,0.984,0.051
43.080,-0.305,0.984,0.049
43.090,-0.309,0.984,0.051
43.100,-0.309,0.984,0.049
43.110,-0.307,0.986,0.049
43.120,-0.309,0.984,0.047
43.130,-0.311,0.984,0.049
43.140,-0.311,0.986,0.047
43.150,-0.311,0.986,0.049
43.160,-0.307,0.986,0.049
43.170,-0.309,0.982,0.049
43.180,-0.309,0.984,0.049
43.190,-0.307,0.982,0.051
43.199,-0.309,0.982,0.051
43.209,-0.311,0.984,0.047
43.219,-0.311,0.986,0.045
43.229,-0.309,0.984,0.049
43.239,-0.312,0.986,0.051
43.249,-0.309,0.984,0.049
43.259,-0.307,0.980,0.047
43.269,-0.309,0.982,0.047
43.279,-0.311,0.986,0.047
43.289,-0.312,0.988,0.047
43.299,-0.311,0.984,0.051
43.309,-0.311,0.986,0.047
43.319,-0.311,0.986,0.055
43.329,-0.312,0.986,0.049
43.338,-0.314,0.984,0.049
43.348,-0.314,0.984,0.051
43.358,-0.311,0.982,0.047
43.368,-0.312,0.982,0.049
43.378,-0.311,0.982,0.045
43.388,-0.312,0.980,0.047
43.398,-0.311,0.982,0.051
43.408,-0.309,0.986,0.049
43.418,-0.311,0.984,0.049
43.428,-0.309,0.982,0.051
43.438,-0.307,0.986,0.049
43.448,-0.307,0.984,0.045
43.458,-0.307,0.982,0.051
43.467,-0.305,0.984,0.049
43.477,-0.311,0.986,0.047
43.487,-0.312,0.988,0.047
43.497,-0.312,0.986,0.053
43.507,-0.309,0.990,0.049
43.517,-0.311,0.986,0.047
43.527,-0.312,0.984,0.047
43.537,-0.311,0.986,0.049
43.547,-0.311,0.980,0.049
43.557,-0.312,0.980,0.049
43.567,-0.311,0.982,0.049
43.577,-0.311,0.980,0.049
43.587,-0.311,0.982,0.053
43.596,-0.311,0.980,0.053
43.606,-0.309,0.982,0.051
43.616,-0.312,0.984,0.051
43.626,-0.314,0.986,0.051
43.636,-0.312,0.984,0.051
43.646,-0.311,0.982,0.051
43.656,-0.314,0.986,0.051
43.666,-0.312,0.986,0.051
43.676,-0.312,0.984,0.049
43.686,-0.312,0.982,0.051
43.696,-0.312,0.984,0.051
43.706,-0.316,0.986,0.053
43.716,-0.309,0.986,0.055
43.726,-0.311,0.986,0.055
43.735,-0.309,0.986,0.055
43.745,-0.305,0.982,0.053
43.755,-0.309,0.979,0.055
43.765,-0.307,0.979,0.053
43.775,-0.309,0.982,0.051
43.785,-0.311,0.982,0.051
43.795,-0.311,0.986,0.051
43.805,-0.312,0.986,0.053
43.815,-0.311,0.986,0.051
43.825,-0.312,0.986,0.051
43.835,-0.311,0.984,0.053
43.845,-0.311,0.982,0.051
43.855,-0.309,0.982,0.053
43.864,-0.309,0.982,0.051
43.874,-0.307,0.982,0.053
43.884,-0.309,0.984,0.051
43.894,-0.311,0.984,0.051
43.904,-0.309,0.988,0.055
43.914,-0.311,0.986,0.053
43.924,-0.309,0.986,0.053
43.934,-0.312,0.982,0.053
43.944,-0.309,0.984,0.053
43.954,-0.312,0.984,0.049
43.964,-0.311,0.984,0.049
43.974,-0.312,0.982,0.049
43.984,-0.316,0.982,0.049
43.993,-0.312,0.986,0.047
44.003,-0.314,0.984,0.049
44.013,-0.316,0.982,0.051
44.023,-0.314,0.986,0.049
44.033,-0.314,0.982,0.049
44.043,-0.314,0.982,0.051
44.053,-0.311,0.984,0.053
44.063,-0.311,0.982,0.051
44.073,-0.309,0.984,0.053
44.083,-0.311,0.984,0.051
44.093,-0.312,0.986,0.051
44.103,-0.314,0.982,0.053
44.113,-0.311,0.982,0.051
44.123,-0.312,0.982,0.049
44.132,-0.314,0.982,0.051
44.142,-0.311,0.982,0.047
44.152,-0.311,0.986,0.049
44.162,-0.312,0.984,0.051
44.172,-0.312,0.980,0.051
44.182,-0.314,0.986,0.049
44.192,-0.316,0.984,0.051
44.202,-0.311,0.984,0.049
44.212,-0.312,0.984,0.049
44.222,-0.309,0.982,0.051
44.232,-0.311,0.982,0.049
44.242,-0.309,0.984,0.047
44.252,-0.312,0.982,0.051
44.261,-0.312,0.982,0.051
44.271,-0.311,0.986,0.055
44.281,-0.307,0.984,0.053
44.291,-0.309,0.986,0.051
44.301,-0.309,0.980,0.053
44.311,-0.307,0.982,0.055
44.321,-0.309,0.984,0.053
44.331,-0.311,0.984,0.049
44.341,-0.312,0.986,0.047
44.351,-0.314,0.986,0.049
44.361,-0.318,0.988,0.051
44.371,-0.312,0.990,0.055
44.381,-0.314,0.986,0.053
44.391,-0.316,0.984,0.053
44.400,-0.314,0.982,0.049
44.410,-0.314,0.980,0.051
44.420,-0.312,0.982,0.053
44.430,-0.312,0.980,0.053
44.440,-0.312,0.984,0.051
44.450,-0.309,0.984,0.055
44.460,-0.312,0.986,0.055
44.470,-0.314,0.982,0.053
44.480,-0.312,0.980,0.051
44.490,-0.314,0.984,0.055
44.500,-0.314,0.984,0.055
44.510,-0.316,0.984,0.051
44.520,-0.316,0.982,0.053
44.529,-0.316,0.984,0.053
44.539,-0.316,0.984,0.055
44.549,-0.318,0.986,0.051
44.559,-0.318,0.986,0.053
44.569,-0.316,0.984,0.049
44.579,-0.314,0.980,0.051
44.589,-0.314,0.982,0.053
44.599,-0.312,0.984,0.049
44.609,-0.311,0.980,0.051
44.619,-0.309,0.980,0.051
44.629,-0.312,0.982,0.053
44.639,-0.314,0.986,0.053
44.649,-0.311,0.986,0.051
44.658,-0.314,0.986,0.055
44.668,-0.312,0.990,0.051
44.678,-0.311,0.986,0.051
44.688,-0.314,0.984,0.049
44.698,-0.314,0.982,0.051
44.708,-0.318,0.980,0.049
44.718,-0.318,0.980,0.049
44.728,-0.316,0.984,0.049
44.738,-0.318,0.980,0.049
44.748,-0.316,0.984,0.047
44.758,-0.316,0.980,0.049
44.768,-0.316,0.979,0.053
44.778,-0.314,0.982,0.051
44.788,-0.314,0.980,0.049
44.797,-0.316,0.982,0.051
44.807,-0.314,0.986,0.049
44.817,-0.312,0.984,0.049
44.827,-0.312,0.986,0.051
44.837,-0.312,0.984,0.047
44.847,-0.314,0.984,0.049
44.857,-0.314,0.984,0.047
44.867,-0.316,0.980,0.045
44.877,-0.314,0.984,0.047
44.887,-0.314,0.982,0.047
44.897,-0.314,0.984,0.045
44.907,-0.312,0.986,0.049
44.917,-0.314,0.988,0.049
44.926,-0.312,0.984,0.047
44.936,-0.314,0.984,0.045
44.946,-0.314,0.984,0.045
44.956,-0.312,0.982,0.045
44.966,-0.314,0.982,0.049
44.976,-0.312,0.982,0.049
44.986,-0.314,0.984,0.047
44.996,-0.312,0.986,0.045
45.006,-0.314,0.986,0.049
45.016,-0.314,0.979,0.047
45.026,-0.314,0.982,0.043
45.036,-0.314,0.982,0.047
45.046,-0.314,0.984,0.051
45.055,-0.316,0.982,0.051
45.065,-0.316,0.984,0.049
45.075,-0.312,0.980,0.049
45.085,-0.314,0.984,0.049
45.095,-0.316,0.980,0.045
45.105,-0.314,0.982,0.049
45.115,-0.312,0.980,0.053
45.125,-0.316,0.988,0.047
45.135,-0.314,0.986,0.051
45.145,-0.316,0.984,0.047
45.155,-0.316,0.982,0.047
45.165,-0.314,0.982,0.049
45.175,-0.316,0.986,0.047
45.185,-0.314,0.984,0.049
45.194,-0.316,0.984,0.047
45.204,-0.314,0.986,0.047
45.214,-0.316,0.988,0.051
45.224,-0.314,0.988,0.049
45.234,-0.314,0.984,0.049
45.244,-0.311,0.984,0.049
45.254,-0.312,0.980,0.049
45.264,-0.312,0.979,0.053
45.274,-0.311,0.980,0.045
45.284,-0.316,0.979,0.049
45.294,-0.314,0.977,0.053
45.304,-0.316,0.980,0.053
45.314,-0.318,0.982,0.051
45.323,-0.316,0.982,0.055
45.333,-0.318,0.984,0.049
45.343,-0.318,0.980,0.049
45.353,-0.316,0.984,0.051
45.363,-0.318,0.982,0.049
45.373,-0.318,0.980,0.047
45.383,-0.318,0.982,0.047
45.393,-0.316,0.988,0.053
45.403,-0.314,0.984,0.051
45.413,-0.314,0.982,0.049
45.423,-0.311,0.982,0.049
45.433,-0.311,0.982,0.055
45.443,-0.309,0.986,0.047
45.452,-0.309,0.986,0.053
45.462,-0.309,0.980,0.047
45.472,-0.311,0.980,0.051
45.482,-0.312,0.982,0.051
45.492,-0.314,0.984,0.049
45.502,-0.314,0.984,0.051
45.512,-0.316,0.986,0.051
45.522,-0.314,0.986,0.049
45.532,-0.314,0.984,0.049
45.542,-0.316,0.984,0.049
45.552,-0.314,0.982,0.049
45.562,-0.312,0.979,0.047
45.572,-0.312,0.980,0.051
45.582,-0.311,0.982,0.053
45.591,-0.312,0.979,0.053
45.601,-0.314,0.984,0.053
45.611,-0.311,0.980,0.053
45.621,-0.311,0.982,0.049
45.631,-0.312,0.980,0.049
45.641,-0.316,0.982,0.047
45.651,-0.316,0.982,0.047
45.661,-0.318,0.982,0.049
45.671,-0.316,0.986,0.045
45.681,-0.320,0.982,0.045
45.691,-0.316,0.980,0.045
45.701,-0.314,0.982,0.045
45.711,-0.316,0.982,0.049
45.720,-0.314,0.986,0.049
45.730,-0.316,0.980,0.049
45.740,-0.318,0.984,0.047
45.750,-0.312,0.984,0.049
45.760,-0.314,0.984,0.051
45.770,-0.312,0.986,0.047
45.780,-0.314,0.984,0.049
45.790,-0.314,0.984,0.047
45.800,-0.312,0.986,0.053
45.810,-0.314,0.982,0.043
45.820,-0.316,0.980,0.047
45.830,-0.316,0.980,0.045
45.840,-0.314,0.982,0.051
45.849,-0.318,0.982,0.051
45.859,-0.316,0.982,0.051
45.869,-0.318,0.980,0.047
45.879,-0.318,0.984,0.049
45.889,-0.314,0.982,0.049
45.899,-0.314,0.980,0.047
45.909,-0.316,0.984,0.051
45.919,-0.318,0.984,0.051
45.929,-0.316,0.984,0.051
45.939,-0.314,0.984,0.051
45.949,-0.316,0.986,0.051
45.959,-0.316,0.982,0.049
45.969,-0.312,0.980,0.053
45.979,-0.311,0.979,0.049
45.988,-0.312,0.979,0.049
45.998,-0.312,0.982,0.049
46.008,-0.314,0.984,0.053
46.018,-0.316,0.986,0.047
46.028,-0.318,0.988,0.049
46.038,-0.318,0.984,0.051
46.048,-0.316,0.986,0.049
46.058,-0.316,0.986,0.053
46.068,-0.316,0.984,0.051
46.078,-0.314,0.984,0.049
46.088,-0.314,0.980,0.049
46.098,-0.316,0.982,0.053
46.108,-0.312,0.980,0.053
46.117,-0.316,0.980,0.055
46.127,-0.312,0.980,0.051
46.137,-0.316,0.982,0.053
46.147,-0.318,0.986,0.053
46.157,-0.316,0.980,0.051
46.167,-0.318,0.986,0.049
46.177,-0.318,0.986,0.051
46.187,-0.318,0.980,0.051
46.197,-0.318,0.986,0.047
46.207,-0.316,0.982,0.049
46.217,-0.316,0.980,0.045
46.227,-0.318,0.984,0.049
46.237,-0.318,0.984,0.051
46.246,-0.316,0.982,0.047
46.256,-0.314,0.982,0.051
46.266,-0.314,0.982,0.051
46.276,-0.314,0.986,0.051
46.286,-0.312,0.980,0.049
46.296,-0.311,0.980,0.051
46.306,-0.312,0.982,0.051
46.316,-0.316,0.982,0.051
46.326,-0.316,0.988,0.049
46.336,-0.314,0.986,0.049
46.346,-0.312,0.988,0.049
46.356,-0.316,0.990,0.047
46.366,-0.320,0.984,0.047
46.376,-0.318,0.980,0.049
46.385,-0.316,0.977,0.047
46.395,-0.320,0.979,0.051
46.405,-0.318,0.980,0.049
46.415,-0.316,0.980,0.053
46.425,-0.318,0.984,0.051
46.435,-0.318,0.984,0.049
46.445,-0.318,0.982,0.051
46.455,-0.320,0.982,0.047
46.465,-0.320,0.980,0.047
46.475,-0.322,0.979,0.049
46.485,-0.320,0.980,0.043
46.495,-0.324,0.980,0.049
46.505,-0.322,0.984,0.047
46.514,-0.320,0.980,0.045
46.524,-0.322,0.980,0.049
46.534,-0.322,0.982,0.049
46.544,-0.320,0.982,0.047
46.554,-0.318,0.980,0.051
46.564,-0.320,0.982,0.045
46.574,-0.318,0.982,0.047
46.584,-0.314,0.982,0.047
46.594,-0.320,0.984,0.051
46.604,-0.316,0.979,0.051
46.614,-0.314,0.984,0.049
46.624,-0.316,0.984,0.051
46.634,-0.318,0.982,0.049
46.643,-0.314,0.982,0.053
46.653,-0.316,0.982,0.049
46.663,-0.316,0.980,0.053
46.673,-0.318,0.982,0.053
46.683,-0.320,0.984,0.055
46.693,-0.318,0.982,0.051
46.703,-0.316,0.982,0.053
46.713,-0.320,0.980,0.053
46.723,-0.316,0.980,0.049
46.733,-0.318,0.980,0.051
46.743,-0.314,0.982,0.053
46.753,-0.318,0.984,0.053
46.763,-0.314,0.982,0.053
46.773,-0.316,0.982,0.053
46.782,-0.318,0.982,0.053
46.792,-0.314,0.982,0.053
46.802,-0.316,0.980,0.055
46.812,-0.316,0.990,0.051
46.822,-0.320,0.982,0.051
46.832,-0.316,0.980,0.055
46.842,-0.314,0.980,0.057
46.852,-0.314,0.980,0.051
46.862,-0.320,0.984,0.057
46.872,-0.318,0.982,0.055
46.882,-0.320,0.984,0.055
46.892,-0.324,0.982,0.053
46.902,-0.320,0.986,0.055
46.911,-0.324,0.982,0.053
46.921,-0.322,0.986,0.055
46.931,-0.320,0.984,0.053
46.941,-0.322,0.980,0.055
46.951,-0.320,0.979,0.055
46.961,-0.320,0.980,0.055
46.971,-0.318,0.979,0.053
46.981,-0.318,0.977,0.053
46.991,-0.318,0.979,0.055
47.001,-0.320,0.980,0.055
47.011,-0.322,0.980,0.055
47.021,-0.322,0.982,0.053
47.031,-0.326,0.980,0.051
47.041,-0.324,0.984,0.051
47.050,-0.324,0.982,0.053
47.060,-0.320,0.980,0.049
47.070,-0.322,0.979,0.049
47.080,-0.324,0.979,0.051
47.090,-0.326,0.980,0.051
47.100,-0.322,0.980,0.049
47.110,-0.322,0.980,0.051
47.120,-0.320,0.980,0.051
47.130,-0.316,0.986,0.053
47.140,-0.316,0.986,0.051
47.150,-0.311,0.980,0.051
47.160,-0.312,0.980,0.049
47.170,-0.316,0.979,0.049
47.179,-0.316,0.984,0.051
47.189,-0.316,0.984,0.049
47.199,-0.316,0.984,0.051
47.209,-0.316,0.984,0.049
47.219,-0.318,0.984,0.049
47.229,-0.318,0.980,0.051
47.239,-0.322,0.982,0.051
47.249,-0.320,0.980,0.049
47.259,-0.322,0.980,0.053
47.269,-0.320,0.984,0.051
47.279,-0.320,0.980,0.055
47.289,-0.320,0.982,0.051
47.299,-0.320,0.982,0.055
47.308,-0.322,0.979,0.053
47.318,-0.318,0.982,0.053
47.328,-0.320,0.980,0.055
47.338,-0.320,0.979,0.053
47.348,-0.324,0.984,0.053
47.358,-0.326,0.979,0.051
47.368,-0.322,0.982,0.051
47.378,-0.322,0.982,0.051
47.388,-0.324,0.980,0.053
47.398,-0.320,0.982,0.053
47.408,-0.322,0.982,0.051
47.418,-0.322,0.984,0.049
47.428,-0.322,0.984,0.051
47.438,-0.318,0.984,0.051
47.447,-0.320,0.980,0.053
47.457,-0.322,0.980,0.053
47.467,-0.320,0.982,0.051
47.477,-0.316,0.980,0.051
47.487,-0.320,0.982,0.051
47.497,-0.322,0.984,0.055
47.507,-0.320,0.982,0.053
47.517,-0.318,0.980,0.051
47.527,-0.318,0.982,0.051
47.537,-0.322,0.984,0.051
47.547,-0.322,0.980,0.055
47.557,-0.324,0.982,0.053
47.567,-0.322,0.982,0.053
47.576,-0.322,0.980,0.055
47.586,-0.322,0.979,0.053
47.596,-0.322,0.980,0.053
47.606,-0.322,0.980,0.055
47.616,-0.322,0.980,0.057
47.626,-0.318,0.980,0.051
47.636,-0.318,0.980,0.055
47.646,-0.318,0.982,0.053
47.656,-0.320,0.979,0.049
47.666,-0.322,0.979,0.051
47.676,-0.318,0.982,0.053
47.686,-0.322,0.984,0.051
47.696,-0.318,0.980,0.051
47.705,-0.318,0.984,0.053
47.715,-0.318,0.980,0.049
47.725,-0.318,0.984,0.053
47.735,-0.320,0.980,0.051
47.745,-0.322,0.982,0.051
47.755,-0.322,0.980,0.051
47.765,-0.322,0.984,0.049
47.775,-0.326,0.988,0.053
47.785,-0.324,0.982,0.051
47.795,-0.324,0.982,0.049
47.805,-0.322,0.984,0.049
47.815,-0.320,0.980,0.051
47.825,-0.322,0.977,0.051
47.835,-0.322,0.975,0.053
47.844,-0.320,0.979,0.051
47.854,-0.318,0.977,0.051
47.864,-0.322,0.982,0.051
47.874,-0.320,0.984,0.051
47.884,-0.320,0.982,0.047
47.894,-0.322,0.982,0.049
47.904,-0.322,0.982,0.047
47.914,-0.322,0.982,0.051
47.924,-0.324,0.984,0.047
47.934,-0.326,0.980,0.049
47.944,-0.322,0.984,0.049
47.954,-0.324,0.986,0.047
47.964,-0.324,0.986,0.045
47.973,-0.322,0.982,0.047
47.983,-0.318,0.982,0.047
47.993,-0.314,0.988,0.047
48.003,-0.318,0.984,0.047
48.013,-0.318,0.977,0.043
48.023,-0.314,0.980,0.047
48.033,-0.318,0.982,0.049
48.043,-0.320,0.984,0.045
48.053,-0.318,0.984,0.049
48.063,-0.320,0.986,0.049
48.073,-0.318,0.986,0.043
48.083,-0.320,0.980,0.047
48.093,-0.318,0.982,0.049
48.102,-0.320,0.979,0.047
48.112,-0.320,0.977,0.047
48.122,-0.322,0.980,0.045
48.132,-0.320,0.980,0.049
48.142,-0.318,0.984,0.047
48.152,-0.320,0.984,0.047
48.162,-0.320,0.982,0.049
48.172,-0.318,0.982,0.049
48.182,-0.316,0.979,0.047
48.192,-0.320,0.982,0.047
48.202,-0.322,0.984,0.049
48.212,-0.322,0.984,0.047
48.222,-0.320,0.982,0.047
48.232,-0.320,0.982,0.047
48.241,-0.320,0.982,0.045
48.251,-0.318,0.980,0.047
48.261,-0.318,0.980,0.049
48.271,-0.320,0.982,0.047
48.281,-0.320,0.982,0.047
48.291,-0.318,0.980,0.045
48.301,-0.320,0.982,0.051
48.311,-0.320,0.982,0.049
48.321,-0.322,0.982,0.047
48.331,-0.322,0.980,0.047
48.341,-0.322,0.980,0.049
48.351,-0.320,0.984,0.049
48.361,-0.322,0.979,0.051
48.370,-0.322,0.982,0.049
48.380,-0.320,0.980,0.047
48.390,-0.320,0.980,0.049
48.400,-0.322,0.984,0.049
48.410,-0.324,0.980,0.049
48.420,-0.326,0.982,0.047
48.430,-0.320,0.980,0.051
48.440,-0.318,0.979,0.047
48.450,-0.320,0.980,0.049
48.460,-0.322,0.979,0.051
48.470,-0.324,0.982,0.047
48.480,-0.324,0.984,0.051
48.490,-0.322,0.986,0.051
48.499,-0.320,0.977,0.049
48.509,-0.318,0.977,0.049
48.519,-0.320,0.979,0.047
48.529,-0.318,0.982,0.053
48.539,-0.322,0.984,0.051
48.549,-0.322,0.980,0.047
48.559,-0.324,0.982,0.047
48.569,-0.324,0.982,0.049
48.579,-0.322,0.986,0.049
48.589,-0.320,0.984,0.049
48.599,-0.322,0.984,0.049
48.609,-0.320,0.980,0.049
48.619,-0.318,0.979,0.049
48.629,-0.320,0.977,0.049
48.638,-0.322,0.977,0.049
48.648,-0.318,0.977,0.047
48.658,-0.322,0.980,0.049
48.668,-0.322,0.979,0.051
48.678,-0.324,0.980,0.047
48.688,-0.324,0.982,0.051
48.698,-0.322,0.984,0.049
48.708,-0.324,0.980,0.049
48.718,-0.320,0.980,0.051
48.728,-0.322,0.980,0.051
48.738,-0.320,0.980,0.051
48.748,-0.318,0.982,0.047
48.758,-0.326,0.982,0.047
48.767,-0.326,0.986,0.045
48.777,-0.320,0.980,0.049
48.787,-0.322,0.980,0.047
48.797,-0.322,0.982,0.049
48.807,-0.320,0.979,0.049
48.817,-0.318,0.980,0.043
48.827,-0.318,0.979,0.043
48.837,-0.320,0.982,0.049
48.847,-0.320,0.982,0.049
48.857,-0.318,0.984,0.049
48.867,-0.320,0.986,0.049
48.877,-0.320,0.984,0.049
48.887,-0.322,0.986,0.049
48.896,-0.320,0.980,0.049
48.906,-0.320,0.977,0.047
48.916,-0.322,0.980,0.049
48.926,-0.322,0.980,0.047
48.936,-0.322,0.979,0.051
48.946,-0.322,0.980,0.049
48.956,-0.322,0.980,0.049
48.966,-0.324,0.980,0.051
48.976,-0.320,0.982,0.049
48.986,-0.324,0.979,0.049
48.996,-0.324,0.982,0.051
49.006,-0.324,0.982,0.051
49.016,-0.324,0.979,0.047
49.026,-0.324,0.984,0.051
49.035,-0.324,0.980,0.053
49.045,-0.324,0.980,0.051
49.055,-0.322,0.980,0.051
49.065,-0.320,0.980,0.051
49.075,-0.322,0.984,0.053
49.085,-0.322,0.984,0.051
49.095,-0.320,0.982,0.049
49.105,-0.322,0.980,0.051
49.115,-0.320,0.980,0.051
49.125,-0.322,0.980,0.049
49.135,-0.320,0.979,0.053
49.145,-0.320,0.982,0.055
49.155,-0.320,0.980,0.051
49.164,-0.320,0.982,0.049
49.174,-0.322,0.980,0.051
49.184,-0.320,0.982,0.053
49.194,-0.322,0.982,0.049
49.204,-0.320,0.982,0.053
49.214,-0.320,0.982,0.055
49.224,-0.322,0.984,0.055
49.234,-0.322,0.980,0.053
49.244,-0.322,0.979,0.047
49.254,-0.326,0.980,0.051
49.264,-0.324,0.982,0.051
49.274,-0.324,0.984,0.053
49.284,-0.320,0.980,0.055
49.293,-0.318,0.982,0.051
49.303,-0.322,0.980,0.051
49.313,-0.320,0.979,0.049
49.323,-0.320,0.986,0.053
49.333,-0.322,0.980,0.053
49.343,-0.318,0.979,0.051
49.353,-0.314,0.980,0.053
49.363,-0.318,0.982,0.053
49.373,-0.320,0.984,0.055
49.383,-0.320,0.986,0.049
49.393,-0.322,0.980,0.051
49.403,-0.326,0.982,0.051
49.413,-0.324,0.982,0.049
49.423,-0.326,0.984,0.053
49.432,-0.326,0.984,0.049
49.442,-0.320,0.982,0.051
49.452,-0.324,0.980,0.053
49.462,-0.322,0.979,0.049
49.472,-0.324,0.977,0.049
49.482,-0.322,0.979,0.049
49.492,-0.324,0.979,0.055
49.502,-0.322,0.979,0.055
49.512,-0.324,0.980,0.053
49.522,-0.320,0.980,0.051
49.532,-0.324,0.979,0.051
49.542,-0.322,0.979,0.053
49.552,-0.324,0.982,0.053
49.561,-0.326,0.982,0.051
49.571,-0.328,0.980,0.051
49.581,-0.328,0.980,0.053
49.591,-0.322,0.982,0.049
49.601,-0.324,0.980,0.049
49.611,-0.326,0.980,0.047
49.621,-0.328,0.982,0.049
49.631,-0.320,0.980,0.049
49.641,-0.318,0.980,0.053
49.651,-0.318,0.982,0.053
49.661,-0.316,0.980,0.053
49.671,-0.316,0.977,0.053
49.681,-0.314,0.982,0.051
49.690,-0.320,0.984,0.049
49.700,-0.320,0.986,0.055
49.710,-0.320,0.986,0.051
49.720,-0.320,0.984,0.047
49.730,-0.320,0.984,0.053
49.740,-0.322,0.982,0.051
49.750,-0.322,0.980,0.051
49.760,-0.324,0.980,0.051
49.770,-0.326,0.979,0.049
49.780,-0.324,0.979,0.049
49.790,-0.320,0.979,0.055
49.800,-0.322,0.980,0.049
49.810,-0.320,0.980,0.051
49.820,-0.324,0.980,0.049
49.829,-0.320,0.982,0.055
49.839,-0.322,0.982,0.055
49.849,-0.322,0.980,0.051
49.859,-0.322,0.980,0.051
49.869,-0.322,0.977,0.051
49.879,-0.324,0.979,0.051
49.889,-0.324,0.982,0.049
49.899,-0.324,0.982,0.051
49.909,-0.322,0.979,0.049
49.919,-0.324,0.980,0.051
49.929,-0.322,0.980,0.051
49.939,-0.326,0.979,0.055
49.949,-0.324,0.982,0.053
49.958,-0.326,0.980,0.053
49.968,-0.324,0.980,0.055
49.978,-0.320,0.980,0.051
49.988,-0.324,0.980,0.053
49.998,-0.326,0.984,0.053
50.008,-0.326,0.984,0.055
50.018,-0.322,0.984,0.049
50.028,-0.324,0.980,0.053
50.038,-0.324,0.980,0.053
50.048,-0.324,0.979,0.053
50.058,-0.322,0.980,0.053
50.068,-0.326,0.982,0.055
50.078,-0.324,0.979,0.055
50.088,-0.324,0.980,0.051
50.097,-0.324,0.984,0.055
50.107,-0.324,0.984,0.053
50.117,-0.320,0.982,0.055
50.127,-0.322,0.984,0.055
50.137,-0.318,0.979,0.051
50.147,-0.318,0.979,0.053
50.157,-0.320,0.982,0.053
50.167,-0.322,0.980,0.051
50.177,-0.324,0.984,0.053
50.187,-0.322,0.988,0.053
50.197,-0.322,0.980,0.051
50.207,-0.318,0.980,0.053
50.217,-0.320,0.980,0.051
50.226,-0.322,0.979,0.051
50.236,-0.320,0.979,0.053
50.246,-0.326,0.980,0.051
50.256,-0.324,0.982,0.047
50.266,-0.326,0.984,0.053
50.276,-0.324,0.986,0.049
50.286,-0.322,0.984,0.051
50.296,-0.322,0.982,0.051
50.306,-0.322,0.982,0.051
50.316,-0.320,0.984,0.051
50.326,-0.320,0.979,0.051
50.336,-0.322,0.979,0.053
50.346,-0.324,0.977,0.051
50.355,-0.320,0.977,0.051
50.365,-0.320,0.980,0.053
50.375,-0.324,0.982,0.053
50.385,-0.324,0.980,0.053
50.395,-0.326,0.980,0.055
50.405,-0.328,0.984,0.049
50.415,-0.326,0.984,0.051
50.425,-0.324,0.984,0.051
50.435,-0.328,0.982,0.049
50.445,-0.328,0.980,0.053
50.455,-0.326,0.980,0.049
50.465,-0.324,0.982,0.051
50.475,-0.324,0.982,0.055
50.485,-0.320,0.982,0.049
50.494,-0.318,0.980,0.053
50.504,-0.320,0.984,0.055
50.514,-0.318,0.984,0.055
50.524,-0.316,0.980,0.053
50.534,-0.316,0.982,0.053
50.544,-0.320,0.979,0.055
50.554,-0.322,0.982,0.049
50.564,-0.322,0.982,0.053
50.574,-0.322,0.988,0.053
50.584,-0.322,0.982,0.049
50.594,-0.324,0.984,0.051
50.604,-0.320,0.982,0.049
50.614,-0.322,0.980,0.049
50.623,-0.324,0.980,0.047
50.633,-0.322,0.980,0.049
50.643,-0.322,0.982,0.053
50.653,-0.320,0.980,0.051
50.663,-0.322,0.980,0.051
50.673,-0.322,0.982,0.047
50.683,-0.322,0.982,0.053
50.693,-0.320,0.980,0.049
50.703,-0.322,0.982,0.051
50.713,-0.324,0.980,0.051
50.723,-0.322,0.982,0.049
50.733,-0.326,0.982,0.047
50.743,-0.328,0.980,0.047
50.752,-0.324,0.980,0.047
50.762,-0.326,0.982,0.049
50.772,-0.326,0.982,0.051
50.782,-0.322,0.980,0.049
50.792,-0.324,0.979,0.051
50.802,-0.324,0.980,0.051
50.812,-0.324,0.979,0.051
50.822,-0.324,0.980,0.047
50.832,-0.320,0.982,0.049
50.842,-0.320,0.982,0.051
50.852,-0.322,0.979,0.051
50.862,-0.322,0.982,0.049
50.872,-0.324,0.980,0.053
50.882,-0.326,0.982,0.049
50.891,-0.324,0.980,0.049
50.901,-0.324,0.982,0.049
50.911,-0.322,0.979,0.049
50.921,-0.320,0.980,0.049
50.931,-0.322,0.982,0.053
50.941,-0.322,0.982,0.055
50.951,-0.322,0.980,0.049
50.961,-0.320,0.980,0.051
50.971,-0.326,0.984,0.051
50.981,-0.322,0.982,0.051
50.991,-0.320,0.980,0.047
51.001,-0.320,0.979,0.053
51.011,-0.322,0.982,0.049
51.020,-0.324,0.979,0.049
51.030,-0.320,0.980,0.051
51.040,-0.322,0.980,0.051
51.050,-0.322,0.982,0.051
51.060,-0.322,0.982,0.051
51.070,-0.322,0.984,0.049
51.080,-0.320,0.979,0.051
51.090,-0.322,0.982,0.051
51.100,-0.322,0.984,0.051
51.110,-0.320,0.980,0.049
51.120,-0.326,0.982,0.049
51.130,-0.326,0.980,0.051
51.140,-0.326,0.984,0.053
51.149,-0.328,0.984,0.049
51.159,-0.324,0.984,0.049
51.169,-0.320,0.982,0.051
51.179,-0.320,0.977,0.051
