df_hash,22ZHK4.W8ZZR3
device,HZ2X61
project_hash,29R7
project_name,istanbul_aydin_university
person_hash,29R7.2MA8
person_label,V92
date_time_start,2025-11-04_16-32-02.909000_+03
date_time_start_unix,1762259522.909
date_time_end,2025-11-04_16-40-18.078000_+03
length_difference_noticed,no

time,acc_x,acc_y,acc_z
5.258,-0.318,0.908,-0.234
5.268,-0.320,0.910,-0.234
5.278,-0.318,0.912,-0.234
5.288,-0.320,0.916,-0.234
5.298,-0.318,0.906,-0.234
5.308,-0.312,0.908,-0.238
5.318,-0.312,0.906,-0.232
5.328,-0.314,0.910,-0.234
5.338,-0.312,0.908,-0.234
5.348,-0.314,0.912,-0.236
5.358,-0.314,0.908,-0.230
5.368,-0.312,0.906,-0.232
5.378,-0.312,0.902,-0.232
5.388,-0.318,0.906,-0.234
5.398,-0.318,0.918,-0.236
5.408,-0.314,0.916,-0.236
5.417,-0.311,0.906,-0.232
5.427,-0.311,0.906,-0.234
5.437,-0.311,0.908,-0.238
5.447,-0.311,0.902,-0.238
5.457,-0.316,0.900,-0.238
5.467,-0.326,0.910,-0.238
5.477,-0.330,0.920,-0.234
5.487,-0.324,0.920,-0.236
5.497,-0.316,0.920,-0.232
5.507,-0.312,0.918,-0.234
5.517,-0.311,0.908,-0.232
5.527,-0.309,0.908,-0.230
5.537,-0.312,0.910,-0.232
5.547,-0.312,0.910,-0.232
5.557,-0.309,0.908,-0.234
5.566,-0.307,0.912,-0.234
5.576,-0.312,0.910,-0.232
5.586,-0.311,0.912,-0.232
5.596,-0.309,0.912,-0.230
5.606,-0.309,0.912,-0.230
5.616,-0.314,0.912,-0.230
5.626,-0.314,0.914,-0.232
5.636,-0.314,0.910,-0.230
5.646,-0.314,0.910,-0.234
5.656,-0.316,0.904,-0.232
5.666,-0.314,0.902,-0.232
5.676,-0.311,0.916,-0.236
5.686,-0.320,0.912,-0.236
5.696,-0.312,0.908,-0.232
5.706,-0.309,0.904,-0.238
5.716,-0.314,0.902,-0.238
5.725,-0.316,0.916,-0.236
5.735,-0.320,0.918,-0.238
5.745,-0.318,0.916,-0.236
5.755,-0.312,0.912,-0.236
5.765,-0.311,0.912,-0.238
5.775,-0.307,0.910,-0.238
5.785,-0.311,0.908,-0.238
5.795,-0.309,0.910,-0.236
5.805,-0.311,0.908,-0.242
5.815,-0.309,0.906,-0.242
5.825,-0.309,0.904,-0.238
5.835,-0.311,0.906,-0.240
5.845,-0.312,0.910,-0.244
5.855,-0.314,0.912,-0.242
5.865,-0.311,0.912,-0.242
5.875,-0.311,0.908,-0.242
5.884,-0.309,0.910,-0.244
5.894,-0.309,0.912,-0.242
5.904,-0.311,0.916,-0.244
5.914,-0.311,0.910,-0.246
5.924,-0.307,0.912,-0.246
5.934,-0.311,0.912,-0.246
5.944,-0.311,0.912,-0.246
5.954,-0.311,0.912,-0.248
5.964,-0.312,0.906,-0.244
5.974,-0.309,0.908,-0.246
5.984,-0.309,0.904,-0.248
5.994,-0.311,0.910,-0.250
6.004,-0.311,0.908,-0.246
6.014,-0.311,0.910,-0.246
6.024,-0.311,0.912,-0.246
6.033,-0.311,0.908,-0.244
6.043,-0.309,0.914,-0.248
6.053,-0.309,0.910,-0.246
6.063,-0.307,0.908,-0.246
6.073,-0.309,0.906,-0.242
6.083,-0.312,0.910,-0.242
6.093,-0.307,0.912,-0.244
6.103,-0.309,0.908,-0.244
6.113,-0.311,0.910,-0.242
6.123,-0.311,0.910,-0.242
6.133,-0.312,0.910,-0.242
6.143,-0.311,0.908,-0.240
6.153,-0.312,0.910,-0.242
6.163,-0.312,0.910,-0.244
6.173,-0.312,0.908,-0.240
6.183,-0.311,0.908,-0.240
6.192,-0.311,0.908,-0.238
6.202,-0.314,0.908,-0.240
6.212,-0.311,0.912,-0.238
6.222,-0.312,0.912,-0.236
6.232,-0.309,0.910,-0.238
6.242,-0.309,0.916,-0.238
6.252,-0.307,0.910,-0.240
6.262,-0.309,0.902,-0.242
6.272,-0.312,0.904,-0.238
6.282,-0.316,0.910,-0.236
6.292,-0.318,0.924,-0.236
6.302,-0.314,0.924,-0.242
6.312,-0.314,0.916,-0.238
6.322,-0.314,0.912,-0.238
6.332,-0.311,0.906,-0.236
6.341,-0.312,0.908,-0.236
6.351,-0.314,0.904,-0.238
6.361,-0.311,0.906,-0.236
6.371,-0.311,0.904,-0.232
6.381,-0.312,0.908,-0.238
6.391,-0.314,0.916,-0.236
6.401,-0.312,0.908,-0.234
6.411,-0.311,0.908,-0.234
6.421,-0.312,0.910,-0.234
6.431,-0.314,0.908,-0.232
6.441,-0.314,0.910,-0.236
6.451,-0.314,0.908,-0.232
6.461,-0.314,0.902,-0.232
6.471,-0.314,0.910,-0.238
6.481,-0.314,0.914,-0.236
6.491,-0.312,0.912,-0.236
6.500,-0.311,0.914,-0.236
6.510,-0.311,0.904,-0.238
6.520,-0.314,0.902,-0.238
6.530,-0.314,0.910,-0.236
6.540,-0.316,0.918,-0.240
6.550,-0.316,0.916,-0.234
6.560,-0.312,0.916,-0.236
6.570,-0.307,0.912,-0.238
6.580,-0.311,0.910,-0.238
6.590,-0.311,0.912,-0.234
6.600,-0.307,0.910,-0.236
6.610,-0.311,0.906,-0.238
6.620,-0.311,0.910,-0.238
6.630,-0.311,0.906,-0.238
6.640,-0.309,0.908,-0.240
6.650,-0.311,0.908,-0.238
6.659,-0.312,0.912,-0.242
6.669,-0.311,0.912,-0.236
6.679,-0.309,0.910,-0.236
6.689,-0.312,0.908,-0.240
6.699,-0.314,0.912,-0.242
6.709,-0.316,0.910,-0.242
6.719,-0.314,0.908,-0.242
6.729,-0.314,0.910,-0.240
6.739,-0.311,0.910,-0.240
6.749,-0.314,0.910,-0.242
6.759,-0.311,0.906,-0.242
6.769,-0.314,0.914,-0.242
6.779,-0.318,0.916,-0.242
6.789,-0.316,0.910,-0.244
6.799,-0.314,0.910,-0.242
6.808,-0.312,0.908,-0.242
6.818,-0.314,0.912,-0.246
6.828,-0.314,0.910,-0.240
6.838,-0.316,0.910,-0.238
6.848,-0.314,0.910,-0.240
6.858,-0.312,0.910,-0.240
6.868,-0.316,0.904,-0.240
6.878,-0.314,0.910,-0.238
6.888,-0.312,0.908,-0.242
6.898,-0.314,0.908,-0.242
6.908,-0.312,0.914,-0.240
6.918,-0.316,0.906,-0.240
6.928,-0.318,0.904,-0.240
6.938,-0.318,0.912,-0.238
6.948,-0.318,0.908,-0.242
6.958,-0.318,0.908,-0.240
6.967,-0.316,0.910,-0.238
6.977,-0.314,0.906,-0.238
6.987,-0.312,0.910,-0.236
6.997,-0.311,0.912,-0.232
7.007,-0.311,0.906,-0.240
7.017,-0.309,0.908,-0.236
7.027,-0.312,0.900,-0.240
7.037,-0.318,0.900,-0.238
7.047,-0.320,0.906,-0.240
7.057,-0.320,0.914,-0.238
7.067,-0.318,0.914,-0.238
7.077,-0.318,0.916,-0.236
7.087,-0.316,0.910,-0.236
7.097,-0.320,0.912,-0.240
7.107,-0.316,0.908,-0.240
7.117,-0.312,0.906,-0.238
7.126,-0.312,0.904,-0.236
7.136,-0.311,0.902,-0.240
7.146,-0.312,0.904,-0.236
7.156,-0.311,0.912,-0.234
7.166,-0.312,0.914,-0.240
7.176,-0.312,0.912,-0.240
7.186,-0.312,0.910,-0.238
7.196,-0.314,0.912,-0.242
7.206,-0.314,0.910,-0.242
7.216,-0.312,0.906,-0.240
7.226,-0.314,0.906,-0.240
7.236,-0.320,0.908,-0.238
7.246,-0.316,0.916,-0.240
7.256,-0.320,0.904,-0.240
7.266,-0.312,0.910,-0.236
7.275,-0.311,0.908,-0.238
7.285,-0.312,0.898,-0.240
7.295,-0.316,0.902,-0.240
7.305,-0.318,0.910,-0.240
7.315,-0.316,0.912,-0.242
7.325,-0.314,0.910,-0.240
7.335,-0.314,0.908,-0.240
7.345,-0.312,0.918,-0.238
7.355,-0.312,0.914,-0.242
7.365,-0.311,0.912,-0.240
7.375,-0.312,0.906,-0.240
7.385,-0.314,0.906,-0.242
7.395,-0.312,0.902,-0.244
7.405,-0.311,0.904,-0.242
7.415,-0.312,0.910,-0.246
7.425,-0.311,0.906,-0.244
7.434,-0.311,0.908,-0.244
7.444,-0.311,0.904,-0.240
7.454,-0.316,0.906,-0.244
7.464,-0.314,0.906,-0.248
7.474,-0.314,0.912,-0.248
7.484,-0.314,0.916,-0.248
7.494,-0.311,0.910,-0.250
7.504,-0.311,0.910,-0.248
7.514,-0.314,0.910,-0.248
7.524,-0.314,0.906,-0.246
7.534,-0.312,0.910,-0.250
7.544,-0.316,0.910,-0.248
7.554,-0.318,0.912,-0.248
7.564,-0.316,0.906,-0.246
7.574,-0.318,0.908,-0.250
7.584,-0.318,0.906,-0.246
7.593,-0.318,0.906,-0.244
7.603,-0.316,0.906,-0.244
7.613,-0.314,0.906,-0.244
7.623,-0.314,0.904,-0.242
7.633,-0.316,0.904,-0.244
7.643,-0.318,0.904,-0.244
7.653,-0.316,0.906,-0.240
7.663,-0.318,0.908,-0.240
7.673,-0.318,0.902,-0.242
7.683,-0.318,0.906,-0.244
7.693,-0.318,0.908,-0.242
7.703,-0.320,0.900,-0.240
7.713,-0.320,0.906,-0.242
7.723,-0.320,0.912,-0.240
7.733,-0.320,0.910,-0.242
7.742,-0.320,0.906,-0.242
7.752,-0.320,0.906,-0.242
7.762,-0.322,0.910,-0.244
7.772,-0.318,0.908,-0.246
7.782,-0.320,0.906,-0.246
7.792,-0.320,0.906,-0.248
7.802,-0.322,0.904,-0.246
7.812,-0.318,0.906,-0.246
7.822,-0.322,0.906,-0.244
7.832,-0.320,0.906,-0.248
7.842,-0.320,0.906,-0.246
7.852,-0.318,0.910,-0.244
7.862,-0.320,0.912,-0.246
7.872,-0.312,0.906,-0.246
7.882,-0.318,0.910,-0.244
7.892,-0.312,0.902,-0.242
7.901,-0.309,0.895,-0.248
7.911,-0.316,0.898,-0.246
7.921,-0.320,0.904,-0.244
7.931,-0.320,0.912,-0.244
7.941,-0.324,0.910,-0.244
7.951,-0.322,0.910,-0.248
7.961,-0.324,0.910,-0.244
7.971,-0.326,0.908,-0.242
7.981,-0.322,0.904,-0.248
7.991,-0.326,0.904,-0.248
8.001,-0.324,0.900,-0.244
8.011,-0.318,0.902,-0.248
8.021,-0.318,0.904,-0.244
8.031,-0.322,0.904,-0.248
8.041,-0.324,0.906,-0.246
8.051,-0.322,0.906,-0.248
8.060,-0.320,0.906,-0.248
8.070,-0.322,0.902,-0.248
8.080,-0.324,0.902,-0.250
8.090,-0.320,0.904,-0.248
8.100,-0.316,0.902,-0.248
8.110,-0.318,0.904,-0.248
8.120,-0.322,0.898,-0.248
8.130,-0.318,0.904,-0.250
8.140,-0.314,0.914,-0.248
8.150,-0.314,0.910,-0.250
8.160,-0.311,0.904,-0.248
8.170,-0.311,0.906,-0.248
8.180,-0.312,0.904,-0.250
8.190,-0.318,0.900,-0.250
8.200,-0.318,0.906,-0.246
8.209,-0.320,0.906,-0.248
8.219,-0.318,0.904,-0.244
8.229,-0.318,0.906,-0.248
8.239,-0.314,0.906,-0.250
8.249,-0.316,0.906,-0.248
8.259,-0.312,0.902,-0.250
8.269,-0.314,0.904,-0.248
8.279,-0.316,0.902,-0.250
8.289,-0.312,0.900,-0.250
8.299,-0.311,0.900,-0.248
8.309,-0.311,0.906,-0.252
8.319,-0.311,0.912,-0.248
8.329,-0.312,0.910,-0.252
8.339,-0.311,0.912,-0.254
8.349,-0.312,0.912,-0.252
8.359,-0.309,0.912,-0.250
8.368,-0.311,0.910,-0.252
8.378,-0.311,0.906,-0.250
8.388,-0.309,0.908,-0.250
8.398,-0.311,0.902,-0.250
8.408,-0.309,0.906,-0.250
8.418,-0.307,0.912,-0.250
8.428,-0.303,0.910,-0.250
8.438,-0.305,0.912,-0.252
8.448,-0.307,0.908,-0.250
8.458,-0.309,0.910,-0.248
8.468,-0.312,0.906,-0.246
8.478,-0.311,0.904,-0.248
8.488,-0.312,0.908,-0.246
8.498,-0.314,0.908,-0.248
8.508,-0.314,0.906,-0.244
8.517,-0.312,0.906,-0.248
8.527,-0.312,0.906,-0.250
8.537,-0.312,0.902,-0.246
8.547,-0.312,0.902,-0.246
8.557,-0.312,0.908,-0.248
8.567,-0.314,0.906,-0.246
8.577,-0.307,0.910,-0.246
8.587,-0.309,0.906,-0.244
8.597,-0.307,0.908,-0.246
8.607,-0.311,0.906,-0.244
8.617,-0.311,0.906,-0.244
8.627,-0.311,0.910,-0.244
8.637,-0.312,0.906,-0.246
8.647,-0.314,0.908,-0.246
8.657,-0.314,0.908,-0.246
8.667,-0.316,0.904,-0.250
8.676,-0.316,0.908,-0.246
8.686,-0.316,0.908,-0.244
8.696,-0.316,0.912,-0.250
8.706,-0.316,0.908,-0.246
8.716,-0.314,0.908,-0.246
8.726,-0.314,0.904,-0.248
8.736,-0.314,0.906,-0.246
8.746,-0.312,0.910,-0.242
8.756,-0.311,0.906,-0.240
8.766,-0.309,0.908,-0.244
8.776,-0.311,0.908,-0.242
8.786,-0.312,0.910,-0.244
8.796,-0.312,0.902,-0.244
8.806,-0.314,0.898,-0.240
8.816,-0.316,0.902,-0.240
8.826,-0.320,0.906,-0.238
8.835,-0.316,0.906,-0.244
8.845,-0.316,0.906,-0.242
8.855,-0.318,0.908,-0.244
8.865,-0.316,0.910,-0.242
8.875,-0.318,0.908,-0.242
8.885,-0.316,0.902,-0.244
8.895,-0.318,0.900,-0.246
8.905,-0.318,0.904,-0.246
8.915,-0.322,0.904,-0.246
8.925,-0.314,0.908,-0.244
8.935,-0.320,0.914,-0.248
8.945,-0.316,0.914,-0.248
8.955,-0.316,0.912,-0.246
8.965,-0.312,0.912,-0.248
8.975,-0.312,0.908,-0.246
8.984,-0.314,0.910,-0.246
8.994,-0.312,0.906,-0.242
9.004,-0.314,0.902,-0.244
9.014,-0.318,0.900,-0.246
9.024,-0.316,0.900,-0.244
9.034,-0.316,0.902,-0.244
9.044,-0.314,0.912,-0.242
9.054,-0.318,0.908,-0.242
9.064,-0.311,0.904,-0.242
9.074,-0.309,0.912,-0.244
9.084,-0.314,0.908,-0.244
9.094,-0.320,0.904,-0.242
9.104,-0.320,0.906,-0.244
9.114,-0.318,0.910,-0.238
9.124,-0.322,0.912,-0.240
9.134,-0.320,0.902,-0.242
9.143,-0.320,0.912,-0.242
9.153,-0.314,0.910,-0.244
9.163,-0.318,0.910,-0.242
9.173,-0.318,0.910,-0.246
9.183,-0.314,0.910,-0.242
9.193,-0.316,0.908,-0.244
9.203,-0.314,0.904,-0.244
9.213,-0.316,0.902,-0.244
9.223,-0.318,0.906,-0.242
9.233,-0.314,0.906,-0.242
9.243,-0.314,0.908,-0.244
9.253,-0.312,0.910,-0.244
9.263,-0.316,0.904,-0.242
9.273,-0.318,0.908,-0.244
9.283,-0.320,0.906,-0.244
9.293,-0.322,0.904,-0.246
9.302,-0.320,0.908,-0.248
9.312,-0.318,0.908,-0.246
9.322,-0.320,0.906,-0.246
9.332,-0.320,0.910,-0.248
9.342,-0.316,0.906,-0.246
9.352,-0.320,0.906,-0.248
9.362,-0.320,0.906,-0.242
9.372,-0.320,0.906,-0.246
9.382,-0.316,0.910,-0.246
9.392,-0.314,0.904,-0.244
9.402,-0.316,0.904,-0.248
9.412,-0.318,0.908,-0.246
9.422,-0.318,0.908,-0.244
9.432,-0.320,0.906,-0.248
9.442,-0.318,0.908,-0.244
9.451,-0.318,0.908,-0.244
9.461,-0.318,0.906,-0.248
9.471,-0.320,0.902,-0.244
9.481,-0.320,0.904,-0.248
9.491,-0.320,0.908,-0.246
9.501,-0.322,0.908,-0.242
9.511,-0.316,0.906,-0.244
9.521,-0.318,0.904,-0.246
9.531,-0.316,0.906,-0.242
9.541,-0.320,0.910,-0.246
9.551,-0.318,0.908,-0.240
9.561,-0.316,0.908,-0.244
9.571,-0.318,0.906,-0.244
9.581,-0.320,0.906,-0.240
9.591,-0.318,0.904,-0.244
9.601,-0.318,0.904,-0.244
9.610,-0.314,0.906,-0.244
9.620,-0.318,0.908,-0.244
9.630,-0.320,0.908,-0.244
9.640,-0.322,0.908,-0.242
9.650,-0.320,0.904,-0.244
9.660,-0.320,0.906,-0.244
9.670,-0.320,0.906,-0.242
9.680,-0.324,0.904,-0.242
9.690,-0.322,0.906,-0.244
9.700,-0.318,0.904,-0.244
9.710,-0.322,0.904,-0.244
9.720,-0.324,0.910,-0.242
9.730,-0.318,0.906,-0.244
9.740,-0.316,0.912,-0.240
9.750,-0.314,0.914,-0.244
9.760,-0.314,0.920,-0.242
9.769,-0.312,0.908,-0.240
9.779,-0.316,0.900,-0.244
9.789,-0.316,0.902,-0.240
9.799,-0.322,0.906,-0.240
9.809,-0.324,0.906,-0.238
9.819,-0.322,0.906,-0.242
9.829,-0.322,0.906,-0.236
9.839,-0.326,0.904,-0.244
9.849,-0.324,0.904,-0.242
9.859,-0.324,0.904,-0.240
9.869,-0.326,0.904,-0.242
9.879,-0.328,0.904,-0.242
9.889,-0.326,0.906,-0.238
9.899,-0.322,0.904,-0.240
9.909,-0.322,0.910,-0.242
9.918,-0.318,0.908,-0.244
9.928,-0.318,0.908,-0.244
9.938,-0.316,0.908,-0.238
9.948,-0.316,0.906,-0.242
9.958,-0.316,0.912,-0.238
9.968,-0.318,0.908,-0.242
9.978,-0.320,0.906,-0.244
9.988,-0.324,0.908,-0.244
9.998,-0.328,0.904,-0.248
10.008,-0.324,0.906,-0.240
10.018,-0.322,0.908,-0.244
10.028,-0.320,0.908,-0.246
10.038,-0.314,0.908,-0.246
10.048,-0.311,0.906,-0.244
10.058,-0.316,0.906,-0.242
10.068,-0.314,0.902,-0.242
10.077,-0.314,0.908,-0.242
10.087,-0.316,0.904,-0.246
10.097,-0.318,0.906,-0.244
10.107,-0.314,0.912,-0.244
10.117,-0.316,0.910,-0.246
10.127,-0.318,0.908,-0.248
10.137,-0.316,0.908,-0.246
10.147,-0.318,0.908,-0.248
10.157,-0.318,0.906,-0.244
10.167,-0.316,0.904,-0.248
10.177,-0.318,0.906,-0.246
10.187,-0.318,0.910,-0.250
10.197,-0.316,0.910,-0.246
10.207,-0.318,0.908,-0.246
10.217,-0.320,0.908,-0.246
10.227,-0.320,0.908,-0.244
10.236,-0.318,0.906,-0.244
10.246,-0.322,0.906,-0.246
10.256,-0.322,0.904,-0.244
10.266,-0.324,0.902,-0.246
10.276,-0.324,0.908,-0.244
10.286,-0.324,0.904,-0.244
10.296,-0.320,0.902,-0.240
10.306,-0.326,0.904,-0.240
10.316,-0.324,0.908,-0.244
10.326,-0.328,0.902,-0.242
10.336,-0.322,0.902,-0.244
10.346,-0.324,0.902,-0.244
10.356,-0.320,0.904,-0.242
10.366,-0.322,0.904,-0.244
10.376,-0.320,0.908,-0.244
10.385,-0.318,0.904,-0.244
10.395,-0.320,0.906,-0.242
10.405,-0.324,0.906,-0.246
10.415,-0.320,0.906,-0.244
10.425,-0.318,0.904,-0.244
10.435,-0.318,0.904,-0.250
10.445,-0.320,0.906,-0.246
10.455,-0.318,0.910,-0.246
10.465,-0.322,0.904,-0.244
10.475,-0.322,0.910,-0.248
10.485,-0.322,0.906,-0.248
10.495,-0.322,0.904,-0.244
10.505,-0.322,0.906,-0.246
10.515,-0.320,0.904,-0.246
10.525,-0.324,0.908,-0.246
10.535,-0.322,0.906,-0.246
10.544,-0.322,0.908,-0.246
10.554,-0.320,0.904,-0.248
10.564,-0.322,0.908,-0.246
10.574,-0.320,0.904,-0.240
10.584,-0.318,0.906,-0.246
10.594,-0.320,0.906,-0.248
10.604,-0.322,0.906,-0.246
10.614,-0.326,0.906,-0.246
10.624,-0.322,0.908,-0.248
10.634,-0.320,0.908,-0.244
10.644,-0.324,0.906,-0.244
10.654,-0.324,0.910,-0.244
10.664,-0.326,0.910,-0.244
10.674,-0.328,0.906,-0.244
10.684,-0.326,0.906,-0.244
10.694,-0.324,0.904,-0.244
10.703,-0.328,0.906,-0.244
10.713,-0.326,0.904,-0.238
10.723,-0.322,0.906,-0.240
10.733,-0.324,0.908,-0.240
10.743,-0.326,0.914,-0.244
10.753,-0.318,0.906,-0.240
10.763,-0.322,0.900,-0.240
10.773,-0.328,0.902,-0.242
10.783,-0.328,0.906,-0.240
10.793,-0.332,0.906,-0.240
10.803,-0.328,0.908,-0.240
10.813,-0.332,0.908,-0.238
10.823,-0.330,0.904,-0.242
10.833,-0.334,0.902,-0.240
10.843,-0.336,0.900,-0.242
10.852,-0.338,0.900,-0.240
10.862,-0.338,0.902,-0.238
10.872,-0.336,0.904,-0.240
10.882,-0.334,0.904,-0.240
10.892,-0.330,0.906,-0.236
10.902,-0.328,0.904,-0.238
10.912,-0.330,0.904,-0.238
10.922,-0.330,0.900,-0.240
10.932,-0.330,0.902,-0.236
10.942,-0.330,0.902,-0.238
10.952,-0.330,0.902,-0.236
10.962,-0.334,0.900,-0.238
10.972,-0.336,0.904,-0.240
10.982,-0.342,0.900,-0.238
10.992,-0.342,0.904,-0.234
11.002,-0.338,0.910,-0.238
11.011,-0.338,0.906,-0.242
11.021,-0.332,0.900,-0.236
11.031,-0.332,0.898,-0.238
11.041,-0.336,0.900,-0.238
11.051,-0.334,0.904,-0.240
11.061,-0.332,0.906,-0.242
11.071,-0.332,0.906,-0.240
11.081,-0.328,0.906,-0.240
11.091,-0.336,0.906,-0.236
11.101,-0.332,0.908,-0.240
11.111,-0.330,0.906,-0.240
11.121,-0.330,0.906,-0.242
11.131,-0.334,0.904,-0.242
11.141,-0.332,0.904,-0.246
11.151,-0.330,0.906,-0.240
11.160,-0.336,0.904,-0.242
11.170,-0.336,0.902,-0.242
11.180,-0.334,0.906,-0.238
11.190,-0.338,0.906,-0.238
11.200,-0.334,0.906,-0.240
11.210,-0.334,0.906,-0.240
11.220,-0.332,0.906,-0.236
11.230,-0.332,0.902,-0.238
11.240,-0.334,0.902,-0.236
11.250,-0.336,0.902,-0.240
11.260,-0.336,0.900,-0.240
11.270,-0.338,0.904,-0.238
11.280,-0.340,0.904,-0.240
11.290,-0.342,0.904,-0.238
11.300,-0.338,0.906,-0.240
11.310,-0.334,0.908,-0.242
11.319,-0.334,0.906,-0.238
11.329,-0.336,0.910,-0.236
11.339,-0.334,0.904,-0.240
11.349,-0.332,0.908,-0.240
11.359,-0.332,0.906,-0.238
11.369,-0.334,0.906,-0.234
11.379,-0.332,0.900,-0.232
11.389,-0.338,0.906,-0.236
11.399,-0.340,0.902,-0.234
11.409,-0.336,0.904,-0.232
11.419,-0.340,0.904,-0.236
11.429,-0.340,0.906,-0.234
11.439,-0.342,0.904,-0.236
11.449,-0.342,0.900,-0.234
11.459,-0.342,0.900,-0.234
11.469,-0.342,0.904,-0.238
11.478,-0.340,0.900,-0.238
11.488,-0.338,0.904,-0.234
11.498,-0.338,0.902,-0.234
11.508,-0.336,0.904,-0.234
11.518,-0.338,0.904,-0.234
11.528,-0.336,0.906,-0.232
11.538,-0.334,0.904,-0.240
11.548,-0.336,0.908,-0.238
11.558,-0.338,0.906,-0.236
11.568,-0.336,0.906,-0.238
11.578,-0.338,0.904,-0.238
11.588,-0.336,0.906,-0.238
11.598,-0.342,0.904,-0.238
11.608,-0.336,0.902,-0.238
11.618,-0.340,0.904,-0.236
11.627,-0.340,0.904,-0.236
11.637,-0.340,0.906,-0.238
11.647,-0.344,0.906,-0.240
11.657,-0.344,0.904,-0.234
11.667,-0.344,0.902,-0.238
11.677,-0.342,0.902,-0.238
11.687,-0.342,0.898,-0.236
11.697,-0.342,0.904,-0.234
11.707,-0.344,0.902,-0.234
11.717,-0.338,0.902,-0.232
11.727,-0.334,0.904,-0.236
11.737,-0.340,0.906,-0.238
11.747,-0.338,0.906,-0.238
11.757,-0.330,0.896,-0.236
11.767,-0.336,0.896,-0.238
11.777,-0.340,0.900,-0.236
11.786,-0.342,0.902,-0.236
11.796,-0.344,0.908,-0.238
11.806,-0.342,0.906,-0.236
11.816,-0.344,0.904,-0.238
11.826,-0.346,0.900,-0.234
11.836,-0.348,0.900,-0.238
11.846,-0.348,0.900,-0.234
11.856,-0.346,0.900,-0.236
11.866,-0.348,0.896,-0.238
11.876,-0.344,0.902,-0.238
11.886,-0.344,0.900,-0.238
11.896,-0.342,0.904,-0.238
11.906,-0.342,0.904,-0.238
11.916,-0.342,0.904,-0.236
11.926,-0.338,0.904,-0.238
11.936,-0.338,0.906,-0.234
11.945,-0.338,0.906,-0.240
11.955,-0.338,0.902,-0.238
11.965,-0.336,0.902,-0.238
11.975,-0.342,0.900,-0.240
11.985,-0.344,0.900,-0.240
11.995,-0.344,0.902,-0.236
12.005,-0.348,0.908,-0.242
12.015,-0.344,0.904,-0.238
12.025,-0.336,0.906,-0.240
12.035,-0.340,0.904,-0.240
12.045,-0.342,0.900,-0.238
12.055,-0.336,0.902,-0.236
12.065,-0.340,0.904,-0.238
12.075,-0.342,0.900,-0.236
12.085,-0.338,0.904,-0.238
12.094,-0.338,0.902,-0.238
12.104,-0.340,0.904,-0.238
12.114,-0.340,0.900,-0.238
12.124,-0.340,0.902,-0.236
12.134,-0.336,0.906,-0.236
12.144,-0.336,0.902,-0.238
12.154,-0.340,0.902,-0.234
12.164,-0.338,0.900,-0.236
12.174,-0.340,0.900,-0.236
12.184,-0.342,0.904,-0.238
12.194,-0.342,0.902,-0.238
12.204,-0.342,0.908,-0.236
12.214,-0.340,0.904,-0.238
12.224,-0.342,0.900,-0.238
12.234,-0.342,0.904,-0.238
12.244,-0.346,0.900,-0.240
12.253,-0.342,0.898,-0.234
12.263,-0.344,0.902,-0.236
12.273,-0.344,0.900,-0.238
12.283,-0.350,0.902,-0.238
12.293,-0.346,0.902,-0.236
12.303,-0.342,0.898,-0.238
12.313,-0.342,0.898,-0.236
12.323,-0.346,0.906,-0.238
12.333,-0.346,0.902,-0.238
12.343,-0.346,0.902,-0.234
12.353,-0.346,0.904,-0.238
12.363,-0.344,0.904,-0.238
12.373,-0.348,0.904,-0.238
12.383,-0.342,0.900,-0.240
12.393,-0.346,0.900,-0.234
12.403,-0.348,0.898,-0.236
12.412,-0.350,0.900,-0.236
12.422,-0.350,0.900,-0.238
12.432,-0.348,0.900,-0.236
12.442,-0.346,0.898,-0.232
12.452,-0.350,0.898,-0.234
12.462,-0.350,0.898,-0.234
12.472,-0.350,0.902,-0.234
12.482,-0.348,0.898,-0.232
12.492,-0.352,0.900,-0.234
12.502,-0.348,0.904,-0.234
12.512,-0.350,0.902,-0.236
12.522,-0.348,0.900,-0.236
12.532,-0.350,0.898,-0.230
12.542,-0.352,0.898,-0.236
12.552,-0.352,0.902,-0.234
12.561,-0.348,0.900,-0.236
12.571,-0.348,0.900,-0.234
12.581,-0.352,0.902,-0.234
12.591,-0.350,0.904,-0.234
12.601,-0.350,0.902,-0.234
12.611,-0.350,0.906,-0.240
12.621,-0.354,0.902,-0.238
12.631,-0.357,0.898,-0.234
12.641,-0.354,0.900,-0.234
12.651,-0.352,0.902,-0.230
12.661,-0.350,0.898,-0.234
12.671,-0.350,0.895,-0.234
12.681,-0.348,0.891,-0.232
12.691,-0.348,0.893,-0.234
12.701,-0.346,0.898,-0.234
12.711,-0.348,0.902,-0.232
12.720,-0.350,0.904,-0.232
12.730,-0.348,0.906,-0.236
12.740,-0.344,0.896,-0.234
12.750,-0.350,0.898,-0.236
12.760,-0.354,0.900,-0.236
12.770,-0.357,0.900,-0.234
12.780,-0.354,0.904,-0.236
12.790,-0.352,0.902,-0.240
12.800,-0.352,0.902,-0.240
12.810,-0.350,0.902,-0.238
12.820,-0.350,0.902,-0.238
12.830,-0.350,0.900,-0.236
12.840,-0.350,0.896,-0.236
12.850,-0.348,0.896,-0.238
12.860,-0.348,0.896,-0.236
12.870,-0.348,0.896,-0.234
12.879,-0.348,0.900,-0.238
12.889,-0.342,0.900,-0.240
12.899,-0.346,0.900,-0.238
12.909,-0.348,0.902,-0.234
12.919,-0.350,0.898,-0.238
12.929,-0.350,0.904,-0.240
12.939,-0.354,0.902,-0.242
12.949,-0.348,0.895,-0.238
12.959,-0.352,0.895,-0.242
12.969,-0.352,0.898,-0.240
12.979,-0.350,0.904,-0.236
12.989,-0.350,0.906,-0.240
12.999,-0.346,0.902,-0.238
13.009,-0.342,0.904,-0.240
13.019,-0.344,0.896,-0.240
13.028,-0.346,0.893,-0.240
13.038,-0.344,0.898,-0.242
13.048,-0.344,0.904,-0.238
13.058,-0.346,0.900,-0.242
13.068,-0.346,0.904,-0.242
13.078,-0.346,0.904,-0.238
13.088,-0.348,0.904,-0.238
13.098,-0.348,0.898,-0.242
13.108,-0.344,0.898,-0.242
13.118,-0.346,0.898,-0.240
13.128,-0.350,0.896,-0.240
13.138,-0.346,0.896,-0.244
13.148,-0.346,0.898,-0.242
13.158,-0.346,0.900,-0.244
13.168,-0.348,0.904,-0.242
13.178,-0.348,0.904,-0.244
13.187,-0.348,0.902,-0.244
13.197,-0.346,0.898,-0.242
13.207,-0.346,0.898,-0.244
13.217,-0.342,0.896,-0.242
13.227,-0.348,0.898,-0.242
13.237,-0.346,0.900,-0.240
13.247,-0.348,0.895,-0.242
13.257,-0.346,0.896,-0.240
13.267,-0.350,0.896,-0.240
13.277,-0.352,0.898,-0.244
13.287,-0.348,0.896,-0.244
13.297,-0.350,0.900,-0.244
13.307,-0.348,0.898,-0.242
13.317,-0.348,0.900,-0.240
13.327,-0.352,0.896,-0.242
13.336,-0.350,0.896,-0.242
13.346,-0.350,0.898,-0.246
13.356,-0.350,0.900,-0.242
13.366,-0.350,0.900,-0.242
13.376,-0.350,0.896,-0.242
13.386,-0.348,0.896,-0.238
13.396,-0.348,0.900,-0.236
13.406,-0.348,0.898,-0.242
13.416,-0.350,0.900,-0.240
13.426,-0.350,0.898,-0.238
13.436,-0.350,0.900,-0.244
13.446,-0.352,0.898,-0.242
13.456,-0.348,0.898,-0.244
13.466,-0.352,0.896,-0.244
13.476,-0.354,0.895,-0.240
13.486,-0.350,0.895,-0.238
13.495,-0.350,0.896,-0.240
13.505,-0.350,0.898,-0.242
13.515,-0.352,0.898,-0.244
13.525,-0.350,0.900,-0.242
13.535,-0.354,0.898,-0.240
13.545,-0.348,0.900,-0.242
13.555,-0.352,0.900,-0.240
13.565,-0.352,0.898,-0.240
13.575,-0.352,0.900,-0.238
13.585,-0.350,0.898,-0.242
13.595,-0.352,0.898,-0.244
13.605,-0.352,0.895,-0.240
13.615,-0.352,0.893,-0.238
13.625,-0.350,0.891,-0.244
13.635,-0.346,0.898,-0.242
13.645,-0.350,0.904,-0.242
13.654,-0.346,0.902,-0.240
13.664,-0.348,0.910,-0.244
13.674,-0.348,0.908,-0.242
13.684,-0.346,0.898,-0.242
13.694,-0.346,0.895,-0.236
13.704,-0.352,0.895,-0.236
13.714,-0.352,0.898,-0.238
13.724,-0.354,0.900,-0.238
13.734,-0.354,0.900,-0.238
13.744,-0.354,0.896,-0.240
13.754,-0.352,0.900,-0.240
13.764,-0.355,0.900,-0.240
13.774,-0.350,0.896,-0.238
13.784,-0.352,0.896,-0.240
13.794,-0.350,0.893,-0.240
13.803,-0.350,0.889,-0.240
13.813,-0.352,0.895,-0.244
13.823,-0.350,0.895,-0.240
13.833,-0.350,0.902,-0.240
13.843,-0.346,0.906,-0.240
13.853,-0.348,0.904,-0.238
13.863,-0.352,0.896,-0.242
13.873,-0.352,0.898,-0.242
13.883,-0.354,0.896,-0.242
13.893,-0.354,0.902,-0.240
13.903,-0.352,0.898,-0.244
13.913,-0.354,0.896,-0.240
13.923,-0.354,0.908,-0.242
13.933,-0.352,0.904,-0.242
13.943,-0.346,0.898,-0.236
13.953,-0.346,0.898,-0.244
13.962,-0.350,0.889,-0.240
13.972,-0.350,0.893,-0.240
13.982,-0.348,0.902,-0.242
13.992,-0.352,0.902,-0.240
14.002,-0.348,0.904,-0.240
14.012,-0.350,0.902,-0.240
14.022,-0.350,0.904,-0.242
14.032,-0.348,0.902,-0.244
14.042,-0.346,0.896,-0.238
14.052,-0.346,0.896,-0.236
14.062,-0.348,0.896,-0.240
14.072,-0.352,0.896,-0.244
14.082,-0.346,0.898,-0.240
14.092,-0.352,0.900,-0.240
14.102,-0.352,0.900,-0.242
14.112,-0.352,0.900,-0.242
14.121,-0.352,0.896,-0.240
14.131,-0.352,0.896,-0.240
14.141,-0.352,0.898,-0.240
14.151,-0.355,0.896,-0.238
14.161,-0.352,0.900,-0.240
14.171,-0.357,0.900,-0.240
14.181,-0.350,0.895,-0.240
14.191,-0.354,0.895,-0.236
14.201,-0.354,0.902,-0.240
14.211,-0.355,0.900,-0.238
14.221,-0.354,0.902,-0.240
14.231,-0.354,0.898,-0.244
14.241,-0.352,0.896,-0.238
14.251,-0.352,0.896,-0.240
14.261,-0.354,0.898,-0.238
14.270,-0.350,0.900,-0.238
14.280,-0.352,0.896,-0.240
14.290,-0.354,0.896,-0.238
14.300,-0.352,0.898,-0.242
14.310,-0.355,0.898,-0.238
14.320,-0.354,0.900,-0.238
14.330,-0.355,0.898,-0.238
14.340,-0.354,0.900,-0.240
14.350,-0.354,0.896,-0.238
14.360,-0.354,0.898,-0.238
14.370,-0.352,0.896,-0.236
14.380,-0.354,0.896,-0.238
14.390,-0.354,0.893,-0.238
14.400,-0.357,0.902,-0.236
14.410,-0.359,0.902,-0.236
14.420,-0.359,0.898,-0.238
14.429,-0.355,0.900,-0.238
14.439,-0.357,0.898,-0.232
14.449,-0.357,0.900,-0.234
14.459,-0.357,0.898,-0.234
14.469,-0.355,0.896,-0.236
14.479,-0.355,0.896,-0.238
14.489,-0.352,0.891,-0.232
14.499,-0.348,0.887,-0.234
14.509,-0.352,0.896,-0.232
14.519,-0.352,0.904,-0.238
14.529,-0.355,0.902,-0.230
14.539,-0.350,0.902,-0.238
14.549,-0.355,0.898,-0.232
14.559,-0.355,0.898,-0.236
14.569,-0.361,0.900,-0.234
14.579,-0.361,0.900,-0.232
14.588,-0.359,0.902,-0.234
14.598,-0.357,0.904,-0.232
14.608,-0.355,0.898,-0.232
14.618,-0.357,0.895,-0.232
14.628,-0.355,0.895,-0.234
14.638,-0.359,0.898,-0.232
14.648,-0.365,0.895,-0.232
14.658,-0.365,0.896,-0.230
14.668,-0.363,0.896,-0.232
14.678,-0.361,0.893,-0.234
14.688,-0.357,0.895,-0.230
14.698,-0.359,0.895,-0.234
14.708,-0.363,0.896,-0.232
14.718,-0.365,0.902,-0.234
14.728,-0.363,0.900,-0.234
14.737,-0.361,0.898,-0.236
14.747,-0.363,0.896,-0.234
14.757,-0.361,0.898,-0.232
14.767,-0.363,0.895,-0.232
14.777,-0.363,0.893,-0.234
14.787,-0.367,0.898,-0.232
14.797,-0.363,0.900,-0.234
14.807,-0.361,0.900,-0.236
14.817,-0.354,0.895,-0.232
14.827,-0.355,0.893,-0.234
14.837,-0.355,0.885,-0.238
14.847,-0.357,0.889,-0.236
14.857,-0.361,0.902,-0.236
14.867,-0.367,0.908,-0.238
14.877,-0.369,0.902,-0.232
14.887,-0.367,0.902,-0.234
14.896,-0.363,0.902,-0.234
14.906,-0.363,0.898,-0.236
14.916,-0.363,0.895,-0.232
14.926,-0.361,0.893,-0.238
14.936,-0.359,0.893,-0.236
14.946,-0.363,0.896,-0.232
14.956,-0.363,0.896,-0.234
14.966,-0.361,0.898,-0.234
14.976,-0.365,0.898,-0.234
14.986,-0.369,0.898,-0.232
14.996,-0.369,0.900,-0.236
15.006,-0.371,0.898,-0.232
15.016,-0.367,0.896,-0.234
15.026,-0.371,0.895,-0.232
15.036,-0.369,0.895,-0.232
15.046,-0.369,0.891,-0.232
15.055,-0.371,0.893,-0.232
15.065,-0.373,0.896,-0.232
15.075,-0.373,0.896,-0.230
15.085,-0.371,0.895,-0.232
15.095,-0.369,0.896,-0.229
15.105,-0.375,0.893,-0.230
15.115,-0.375,0.889,-0.230
15.125,-0.377,0.893,-0.232
15.135,-0.377,0.893,-0.229
15.145,-0.381,0.898,-0.232
15.155,-0.379,0.893,-0.230
15.165,-0.375,0.885,-0.229
15.175,-0.377,0.893,-0.230
15.185,-0.377,0.895,-0.232
15.195,-0.379,0.893,-0.232
15.204,-0.381,0.891,-0.234
15.214,-0.381,0.891,-0.232
15.224,-0.381,0.889,-0.232
15.234,-0.379,0.891,-0.234
15.244,-0.381,0.891,-0.230
15.254,-0.381,0.891,-0.232
15.264,-0.383,0.896,-0.232
15.274,-0.383,0.893,-0.230
15.284,-0.383,0.896,-0.232
15.294,-0.385,0.893,-0.229
15.304,-0.379,0.889,-0.230
15.314,-0.381,0.891,-0.234
15.324,-0.383,0.891,-0.236
15.334,-0.383,0.883,-0.229
15.344,-0.375,0.887,-0.230
15.354,-0.379,0.893,-0.234
15.363,-0.381,0.885,-0.230
15.373,-0.379,0.898,-0.230
15.383,-0.377,0.893,-0.232
15.393,-0.377,0.891,-0.234
15.403,-0.383,0.895,-0.234
15.413,-0.389,0.889,-0.229
15.423,-0.389,0.896,-0.229
15.433,-0.385,0.898,-0.232
15.443,-0.383,0.896,-0.230
15.453,-0.381,0.893,-0.234
15.463,-0.383,0.889,-0.232
15.473,-0.383,0.889,-0.229
15.483,-0.385,0.889,-0.230
15.493,-0.385,0.885,-0.230
15.503,-0.385,0.891,-0.229
15.512,-0.381,0.889,-0.229
15.522,-0.383,0.893,-0.230
15.532,-0.383,0.893,-0.227
15.542,-0.383,0.893,-0.229
15.552,-0.383,0.891,-0.229
15.562,-0.381,0.885,-0.227
15.572,-0.385,0.889,-0.230
15.582,-0.383,0.889,-0.227
15.592,-0.385,0.891,-0.229
15.602,-0.387,0.889,-0.232
15.612,-0.389,0.893,-0.230
15.622,-0.391,0.891,-0.227
15.632,-0.395,0.893,-0.230
15.642,-0.385,0.895,-0.229
15.652,-0.385,0.891,-0.236
15.662,-0.381,0.881,-0.229
15.671,-0.379,0.889,-0.232
15.681,-0.383,0.885,-0.230
15.691,-0.383,0.891,-0.230
15.701,-0.385,0.896,-0.230
15.711,-0.383,0.893,-0.229
15.721,-0.385,0.895,-0.232
15.731,-0.387,0.895,-0.230
15.741,-0.389,0.895,-0.230
15.751,-0.383,0.887,-0.232
15.761,-0.385,0.887,-0.230
15.771,-0.385,0.885,-0.230
15.781,-0.387,0.885,-0.230
15.791,-0.385,0.887,-0.232
15.801,-0.387,0.891,-0.230
15.811,-0.389,0.889,-0.232
15.821,-0.391,0.889,-0.232
15.830,-0.387,0.891,-0.230
15.840,-0.385,0.893,-0.230
15.850,-0.387,0.895,-0.234
15.860,-0.389,0.891,-0.230
15.870,-0.387,0.887,-0.232
15.880,-0.387,0.893,-0.232
15.890,-0.383,0.889,-0.232
15.900,-0.383,0.889,-0.229
15.910,-0.389,0.891,-0.229
15.920,-0.389,0.889,-0.230
15.930,-0.389,0.893,-0.229
15.940,-0.391,0.895,-0.232
15.950,-0.391,0.893,-0.227
15.960,-0.389,0.893,-0.225
15.970,-0.389,0.891,-0.229
15.979,-0.387,0.891,-0.227
15.989,-0.391,0.889,-0.230
15.999,-0.391,0.887,-0.227
16.009,-0.387,0.887,-0.229
16.019,-0.389,0.883,-0.225
16.029,-0.389,0.887,-0.227
16.039,-0.389,0.889,-0.227
16.049,-0.391,0.885,-0.227
16.059,-0.391,0.891,-0.227
16.069,-0.395,0.891,-0.229
16.079,-0.395,0.889,-0.227
16.089,-0.395,0.891,-0.223
16.099,-0.395,0.895,-0.227
16.109,-0.393,0.887,-0.225
16.119,-0.389,0.889,-0.230
16.129,-0.387,0.889,-0.225
16.138,-0.387,0.889,-0.227
16.148,-0.391,0.895,-0.229
16.158,-0.389,0.885,-0.225
16.168,-0.385,0.887,-0.219
16.178,-0.385,0.885,-0.225
16.188,-0.387,0.885,-0.227
16.198,-0.387,0.895,-0.229
16.208,-0.383,0.898,-0.229
16.218,-0.377,0.893,-0.229
16.228,-0.385,0.891,-0.229
16.238,-0.393,0.889,-0.229
16.248,-0.393,0.889,-0.223
16.258,-0.393,0.896,-0.225
16.268,-0.391,0.896,-0.227
16.278,-0.391,0.895,-0.225
16.288,-0.385,0.887,-0.225
16.297,-0.387,0.881,-0.223
16.307,-0.387,0.887,-0.227
16.317,-0.391,0.887,-0.227
16.327,-0.393,0.893,-0.225
16.337,-0.393,0.893,-0.223
16.347,-0.391,0.887,-0.227
16.357,-0.389,0.891,-0.225
16.367,-0.395,0.895,-0.225
16.377,-0.393,0.891,-0.225
16.387,-0.387,0.887,-0.223
16.397,-0.391,0.891,-0.227
16.407,-0.389,0.893,-0.225
16.417,-0.387,0.893,-0.227
16.427,-0.389,0.893,-0.225
16.437,-0.389,0.893,-0.223
16.446,-0.393,0.893,-0.227
16.456,-0.393,0.893,-0.221
16.466,-0.385,0.895,-0.221
16.476,-0.387,0.887,-0.225
16.486,-0.391,0.895,-0.227
16.496,-0.391,0.891,-0.223
16.506,-0.393,0.885,-0.221
16.516,-0.389,0.891,-0.227
16.526,-0.391,0.893,-0.225
16.536,-0.389,0.887,-0.227
16.546,-0.391,0.885,-0.223
16.556,-0.387,0.889,-0.223
16.566,-0.393,0.893,-0.225
16.576,-0.389,0.889,-0.225
16.586,-0.391,0.889,-0.227
16.596,-0.389,0.889,-0.225
16.605,-0.395,0.891,-0.225
16.615,-0.391,0.887,-0.227
16.625,-0.391,0.893,-0.227
16.635,-0.391,0.896,-0.229
16.645,-0.391,0.896,-0.227
16.655,-0.389,0.893,-0.227
16.665,-0.393,0.896,-0.229
16.675,-0.395,0.896,-0.229
16.685,-0.391,0.893,-0.225
16.695,-0.389,0.895,-0.223
16.705,-0.393,0.900,-0.221
16.715,-0.391,0.896,-0.215
16.725,-0.389,0.902,-0.217
16.735,-0.387,0.893,-0.213
16.745,-0.383,0.881,-0.213
16.755,-0.391,0.889,-0.213
16.764,-0.395,0.883,-0.217
16.774,-0.398,0.873,-0.213
16.784,-0.402,0.883,-0.213
16.794,-0.402,0.885,-0.215
16.804,-0.404,0.889,-0.217
16.814,-0.408,0.889,-0.219
16.824,-0.408,0.883,-0.215
16.834,-0.404,0.887,-0.219
16.844,-0.404,0.885,-0.217
16.854,-0.400,0.885,-0.221
16.864,-0.398,0.891,-0.219
16.874,-0.400,0.893,-0.221
16.884,-0.400,0.883,-0.217
16.894,-0.396,0.885,-0.215
16.904,-0.398,0.889,-0.219
16.913,-0.396,0.885,-0.217
16.923,-0.400,0.893,-0.221
16.933,-0.398,0.893,-0.221
16.943,-0.400,0.889,-0.217
16.953,-0.398,0.889,-0.221
16.963,-0.406,0.889,-0.221
16.973,-0.402,0.887,-0.219
16.983,-0.404,0.883,-0.219
16.993,-0.404,0.895,-0.217
17.003,-0.406,0.893,-0.217
17.013,-0.400,0.895,-0.219
17.023,-0.396,0.893,-0.221
17.033,-0.398,0.889,-0.223
17.043,-0.406,0.887,-0.221
17.053,-0.410,0.889,-0.217
17.063,-0.414,0.895,-0.221
17.072,-0.410,0.891,-0.215
17.082,-0.404,0.887,-0.215
17.092,-0.408,0.887,-0.215
17.102,-0.404,0.883,-0.219
17.112,-0.408,0.883,-0.215
17.122,-0.408,0.883,-0.215
17.132,-0.412,0.891,-0.211
17.142,-0.404,0.891,-0.215
17.152,-0.408,0.887,-0.215
17.162,-0.412,0.889,-0.215
17.172,-0.416,0.885,-0.211
17.182,-0.416,0.883,-0.211
17.192,-0.410,0.885,-0.211
17.202,-0.412,0.895,-0.213
17.212,-0.412,0.898,-0.209
17.222,-0.412,0.887,-0.211
17.231,-0.406,0.875,-0.207
17.241,-0.412,0.869,-0.209
17.251,-0.414,0.875,-0.213
17.261,-0.414,0.887,-0.211
17.271,-0.412,0.885,-0.213
17.281,-0.412,0.883,-0.213
17.291,-0.410,0.879,-0.215
17.301,-0.416,0.877,-0.215
17.311,-0.416,0.891,-0.217
17.321,-0.414,0.902,-0.213
17.331,-0.408,0.891,-0.215
17.341,-0.410,0.885,-0.211
17.351,-0.412,0.881,-0.211
17.361,-0.408,0.877,-0.213
17.371,-0.406,0.879,-0.217
17.380,-0.402,0.883,-0.219
17.390,-0.404,0.885,-0.221
17.400,-0.402,0.891,-0.219
17.410,-0.402,0.889,-0.223
17.420,-0.402,0.889,-0.219
17.430,-0.398,0.883,-0.221
17.440,-0.400,0.895,-0.219
17.450,-0.400,0.902,-0.219
17.460,-0.398,0.898,-0.217
17.470,-0.393,0.895,-0.219
17.480,-0.395,0.889,-0.219
17.490,-0.395,0.896,-0.225
17.500,-0.393,0.896,-0.219
17.510,-0.385,0.889,-0.217
17.520,-0.385,0.895,-0.213
17.530,-0.389,0.895,-0.219
17.539,-0.387,0.891,-0.215
17.549,-0.389,0.902,-0.211
17.559,-0.391,0.902,-0.211
17.569,-0.391,0.898,-0.211
17.579,-0.389,0.893,-0.207
17.589,-0.385,0.898,-0.201
17.599,-0.383,0.910,-0.207
17.609,-0.379,0.889,-0.207
17.619,-0.377,0.869,-0.207
17.629,-0.379,0.863,-0.207
17.639,-0.391,0.875,-0.209
17.649,-0.400,0.883,-0.211
17.659,-0.395,0.881,-0.211
17.669,-0.396,0.895,-0.213
17.679,-0.396,0.895,-0.215
17.688,-0.398,0.904,-0.211
17.698,-0.400,0.906,-0.217
17.708,-0.396,0.887,-0.211
17.718,-0.383,0.889,-0.215
17.728,-0.385,0.893,-0.217
17.738,-0.385,0.895,-0.217
17.748,-0.387,0.896,-0.221
17.758,-0.389,0.904,-0.219
17.768,-0.387,0.898,-0.219
17.778,-0.389,0.898,-0.219
17.788,-0.389,0.887,-0.223
17.798,-0.383,0.893,-0.217
17.808,-0.389,0.908,-0.217
17.818,-0.381,0.895,-0.217
17.828,-0.377,0.896,-0.221
17.838,-0.375,0.893,-0.221
17.847,-0.381,0.900,-0.223
17.857,-0.389,0.895,-0.219
17.867,-0.391,0.885,-0.219
17.877,-0.387,0.908,-0.217
17.887,-0.391,0.904,-0.217
17.897,-0.391,0.889,-0.215
17.907,-0.389,0.900,-0.221
17.917,-0.389,0.889,-0.209
17.927,-0.387,0.893,-0.215
17.937,-0.387,0.893,-0.213
17.947,-0.383,0.893,-0.213
17.957,-0.383,0.885,-0.215
17.967,-0.389,0.889,-0.215
17.977,-0.387,0.887,-0.217
17.987,-0.393,0.898,-0.213
17.997,-0.389,0.891,-0.215
18.006,-0.383,0.875,-0.217
18.016,-0.379,0.893,-0.221
18.026,-0.383,0.887,-0.219
18.036,-0.381,0.898,-0.223
18.046,-0.387,0.904,-0.221
18.056,-0.385,0.908,-0.217
18.066,-0.377,0.898,-0.219
18.076,-0.373,0.887,-0.221
18.086,-0.371,0.881,-0.227
18.096,-0.367,0.885,-0.225
18.106,-0.373,0.912,-0.225
18.116,-0.377,0.920,-0.223
18.126,-0.369,0.906,-0.221
18.136,-0.369,0.898,-0.221
18.146,-0.369,0.900,-0.223
18.155,-0.367,0.895,-0.223
18.165,-0.371,0.896,-0.225
18.175,-0.371,0.887,-0.225
18.185,-0.371,0.891,-0.223
18.195,-0.373,0.898,-0.227
18.205,-0.373,0.902,-0.225
18.215,-0.369,0.906,-0.225
18.225,-0.361,0.896,-0.225
18.235,-0.363,0.895,-0.225
18.245,-0.367,0.900,-0.229
18.255,-0.357,0.902,-0.230
18.265,-0.352,0.896,-0.229
18.275,-0.357,0.906,-0.227
18.285,-0.354,0.910,-0.229
18.295,-0.354,0.896,-0.227
18.305,-0.348,0.900,-0.229
18.314,-0.354,0.910,-0.230
18.324,-0.357,0.902,-0.229
18.334,-0.354,0.896,-0.225
18.344,-0.350,0.908,-0.227
18.354,-0.357,0.910,-0.227
18.364,-0.357,0.895,-0.229
18.374,-0.354,0.904,-0.223
18.384,-0.357,0.902,-0.227
18.394,-0.357,0.896,-0.221
18.404,-0.354,0.902,-0.229
18.414,-0.357,0.908,-0.225
18.424,-0.357,0.910,-0.223
18.434,-0.354,0.900,-0.223
18.444,-0.352,0.896,-0.223
18.454,-0.352,0.891,-0.223
18.464,-0.352,0.893,-0.227
18.473,-0.355,0.898,-0.229
18.483,-0.357,0.908,-0.230
18.493,-0.352,0.904,-0.227
18.503,-0.352,0.900,-0.232
18.513,-0.352,0.902,-0.229
18.523,-0.352,0.904,-0.232
18.533,-0.348,0.896,-0.234
18.543,-0.346,0.906,-0.234
18.553,-0.350,0.906,-0.234
18.563,-0.348,0.902,-0.238
18.573,-0.348,0.902,-0.236
18.583,-0.346,0.906,-0.240
18.593,-0.348,0.912,-0.236
18.603,-0.348,0.902,-0.236
18.613,-0.342,0.906,-0.236
18.622,-0.348,0.908,-0.242
18.632,-0.348,0.902,-0.236
18.642,-0.338,0.900,-0.234
18.652,-0.338,0.900,-0.236
18.662,-0.340,0.896,-0.236
18.672,-0.340,0.898,-0.238
18.682,-0.340,0.904,-0.236
18.692,-0.344,0.908,-0.236
18.702,-0.340,0.902,-0.234
18.712,-0.336,0.902,-0.238
18.722,-0.338,0.904,-0.238
18.732,-0.336,0.898,-0.238
18.742,-0.338,0.900,-0.236
18.752,-0.340,0.898,-0.238
18.762,-0.342,0.902,-0.236
18.772,-0.342,0.908,-0.240
18.781,-0.346,0.912,-0.238
18.791,-0.342,0.916,-0.232
18.801,-0.340,0.906,-0.232
18.811,-0.344,0.908,-0.236
18.821,-0.344,0.912,-0.236
18.831,-0.348,0.900,-0.234
18.841,-0.346,0.895,-0.236
18.851,-0.346,0.895,-0.229
18.861,-0.344,0.906,-0.234
18.871,-0.350,0.908,-0.230
18.881,-0.352,0.893,-0.234
18.891,-0.348,0.889,-0.232
18.901,-0.348,0.906,-0.229
18.911,-0.354,0.918,-0.227
18.921,-0.354,0.910,-0.232
18.931,-0.348,0.902,-0.232
18.940,-0.348,0.906,-0.229
18.950,-0.346,0.904,-0.230
18.960,-0.342,0.904,-0.230
18.970,-0.346,0.898,-0.232
18.980,-0.340,0.895,-0.230
18.990,-0.346,0.908,-0.232
19.000,-0.348,0.904,-0.230
19.010,-0.348,0.900,-0.229
19.020,-0.350,0.906,-0.234
19.030,-0.346,0.896,-0.229
19.040,-0.346,0.906,-0.229
19.050,-0.350,0.908,-0.230
19.060,-0.348,0.906,-0.230
19.070,-0.348,0.906,-0.232
19.080,-0.350,0.902,-0.229
19.089,-0.348,0.896,-0.229
19.099,-0.352,0.904,-0.230
19.109,-0.352,0.906,-0.229
19.119,-0.352,0.902,-0.229
19.129,-0.350,0.898,-0.229
19.139,-0.352,0.898,-0.232
19.149,-0.350,0.900,-0.230
19.159,-0.352,0.904,-0.230
19.169,-0.354,0.906,-0.230
19.179,-0.354,0.900,-0.230
19.189,-0.350,0.902,-0.229
19.199,-0.348,0.895,-0.229
19.209,-0.348,0.893,-0.232
19.219,-0.348,0.898,-0.230
19.229,-0.350,0.902,-0.232
19.239,-0.350,0.902,-0.230
19.248,-0.350,0.902,-0.232
19.258,-0.350,0.900,-0.232
19.268,-0.354,0.904,-0.232
19.278,-0.354,0.906,-0.234
19.288,-0.355,0.900,-0.232
19.298,-0.350,0.900,-0.232
19.308,-0.350,0.898,-0.236
19.318,-0.352,0.904,-0.236
19.328,-0.354,0.906,-0.234
19.338,-0.357,0.908,-0.234
19.348,-0.354,0.904,-0.236
19.358,-0.355,0.902,-0.232
19.368,-0.354,0.902,-0.236
19.378,-0.352,0.896,-0.234
19.388,-0.354,0.900,-0.234
19.398,-0.359,0.906,-0.238
19.407,-0.359,0.902,-0.236
19.417,-0.354,0.900,-0.234
19.427,-0.354,0.904,-0.234
19.437,-0.354,0.900,-0.232
19.447,-0.354,0.898,-0.236
19.457,-0.346,0.902,-0.236
19.467,-0.346,0.902,-0.236
19.477,-0.352,0.898,-0.240
19.487,-0.352,0.893,-0.238
19.497,-0.350,0.904,-0.230
19.507,-0.354,0.920,-0.232
19.517,-0.350,0.912,-0.236
19.527,-0.352,0.904,-0.232
19.537,-0.355,0.904,-0.232
19.547,-0.354,0.900,-0.232
19.556,-0.352,0.898,-0.229
19.566,-0.354,0.895,-0.232
19.576,-0.350,0.895,-0.232
19.586,-0.354,0.891,-0.234
19.596,-0.357,0.895,-0.227
19.606,-0.357,0.896,-0.232
19.616,-0.359,0.902,-0.230
19.626,-0.361,0.902,-0.234
19.636,-0.367,0.904,-0.229
19.646,-0.365,0.898,-0.230
19.656,-0.361,0.893,-0.225
19.666,-0.359,0.898,-0.227
19.676,-0.361,0.895,-0.232
19.686,-0.365,0.898,-0.230
19.696,-0.363,0.896,-0.234
19.706,-0.365,0.898,-0.232
19.715,-0.365,0.906,-0.234
19.725,-0.371,0.906,-0.229
19.735,-0.367,0.902,-0.229
19.745,-0.367,0.904,-0.229
19.755,-0.369,0.904,-0.227
19.765,-0.365,0.898,-0.223
19.775,-0.363,0.895,-0.227
19.785,-0.355,0.895,-0.223
19.795,-0.357,0.896,-0.225
19.805,-0.365,0.893,-0.221
19.815,-0.363,0.893,-0.225
19.825,-0.369,0.889,-0.229
19.835,-0.371,0.891,-0.225
19.845,-0.373,0.895,-0.225
19.855,-0.373,0.898,-0.227
19.864,-0.371,0.896,-0.225
19.874,-0.367,0.896,-0.223
19.884,-0.367,0.902,-0.227
19.894,-0.363,0.895,-0.223
19.904,-0.363,0.896,-0.227
19.914,-0.359,0.895,-0.227
19.924,-0.359,0.893,-0.227
19.934,-0.357,0.898,-0.232
19.944,-0.361,0.898,-0.232
19.954,-0.359,0.898,-0.230
19.964,-0.357,0.900,-0.230
19.974,-0.357,0.898,-0.230
19.984,-0.357,0.900,-0.230
19.994,-0.355,0.900,-0.230
20.004,-0.355,0.896,-0.232
20.014,-0.352,0.898,-0.234
20.023,-0.352,0.900,-0.234
20.033,-0.355,0.898,-0.236
20.043,-0.350,0.898,-0.238
20.053,-0.352,0.896,-0.238
20.063,-0.354,0.900,-0.238
20.073,-0.348,0.900,-0.238
20.083,-0.348,0.902,-0.238
20.093,-0.352,0.904,-0.238
20.103,-0.346,0.902,-0.242
20.113,-0.344,0.902,-0.238
20.123,-0.348,0.902,-0.242
20.133,-0.346,0.904,-0.242
20.143,-0.346,0.904,-0.244
20.153,-0.344,0.906,-0.242
20.163,-0.346,0.908,-0.240
20.173,-0.346,0.908,-0.244
20.182,-0.344,0.904,-0.242
20.192,-0.342,0.900,-0.244
20.202,-0.342,0.898,-0.246
20.212,-0.342,0.902,-0.242
20.222,-0.342,0.902,-0.246
20.232,-0.342,0.898,-0.246
20.242,-0.338,0.898,-0.244
20.252,-0.340,0.900,-0.244
20.262,-0.334,0.900,-0.246
20.272,-0.332,0.902,-0.248
20.282,-0.334,0.900,-0.248
20.292,-0.336,0.896,-0.252
20.302,-0.334,0.900,-0.248
20.312,-0.336,0.910,-0.246
20.322,-0.334,0.916,-0.246
20.331,-0.334,0.916,-0.246
20.341,-0.334,0.910,-0.246
20.351,-0.330,0.908,-0.244
20.361,-0.328,0.904,-0.248
20.371,-0.326,0.904,-0.246
20.381,-0.326,0.900,-0.248
20.391,-0.324,0.900,-0.246
20.401,-0.324,0.900,-0.248
20.411,-0.326,0.904,-0.248
20.421,-0.328,0.904,-0.242
20.431,-0.334,0.908,-0.246
20.441,-0.336,0.908,-0.244
20.451,-0.334,0.910,-0.244
20.461,-0.330,0.902,-0.246
20.471,-0.328,0.904,-0.248
20.481,-0.326,0.904,-0.246
20.490,-0.322,0.902,-0.246
20.500,-0.326,0.902,-0.248
20.510,-0.326,0.896,-0.248
20.520,-0.322,0.900,-0.244
20.530,-0.322,0.910,-0.244
20.540,-0.320,0.912,-0.246
20.550,-0.324,0.912,-0.244
20.560,-0.318,0.912,-0.246
20.570,-0.320,0.908,-0.242
20.580,-0.318,0.908,-0.244
20.590,-0.316,0.908,-0.244
20.600,-0.316,0.906,-0.242
20.610,-0.314,0.904,-0.248
20.620,-0.314,0.904,-0.244
20.630,-0.314,0.908,-0.246
20.640,-0.316,0.910,-0.250
20.649,-0.318,0.908,-0.248
20.659,-0.318,0.910,-0.248
20.669,-0.314,0.904,-0.248
20.679,-0.318,0.910,-0.248
20.689,-0.318,0.908,-0.248
20.699,-0.318,0.906,-0.252
20.709,-0.320,0.908,-0.246
20.719,-0.316,0.910,-0.248
20.729,-0.318,0.904,-0.248
20.739,-0.316,0.908,-0.248
20.749,-0.316,0.906,-0.250
20.759,-0.316,0.906,-0.248
20.769,-0.316,0.910,-0.250
20.779,-0.318,0.908,-0.250
20.789,-0.320,0.906,-0.248
20.798,-0.320,0.906,-0.248
20.808,-0.318,0.910,-0.246
20.818,-0.320,0.908,-0.246
20.828,-0.314,0.906,-0.246
20.838,-0.318,0.906,-0.246
20.848,-0.318,0.910,-0.244
20.858,-0.314,0.906,-0.242
20.868,-0.316,0.906,-0.244
20.878,-0.318,0.906,-0.246
20.888,-0.320,0.908,-0.240
20.898,-0.320,0.906,-0.244
20.908,-0.320,0.904,-0.244
20.918,-0.320,0.906,-0.244
20.928,-0.324,0.904,-0.246
20.938,-0.322,0.906,-0.246
20.948,-0.320,0.906,-0.246
20.957,-0.320,0.900,-0.242
20.967,-0.320,0.906,-0.246
20.977,-0.318,0.908,-0.246
20.987,-0.316,0.906,-0.244
20.997,-0.314,0.906,-0.246
21.007,-0.318,0.902,-0.244
21.017,-0.318,0.908,-0.248
21.027,-0.320,0.914,-0.248
21.037,-0.318,0.904,-0.246
21.047,-0.314,0.908,-0.242
21.057,-0.320,0.910,-0.248
21.067,-0.318,0.908,-0.248
21.077,-0.312,0.910,-0.250
21.087,-0.314,0.908,-0.250
21.097,-0.316,0.904,-0.252
21.107,-0.316,0.906,-0.248
21.116,-0.318,0.916,-0.246
21.126,-0.316,0.916,-0.250
21.136,-0.320,0.918,-0.248
21.146,-0.322,0.912,-0.250
21.156,-0.320,0.910,-0.244
21.166,-0.316,0.912,-0.248
21.176,-0.316,0.904,-0.248
21.186,-0.314,0.904,-0.244
21.196,-0.314,0.904,-0.242
21.206,-0.316,0.904,-0.242
21.216,-0.316,0.906,-0.242
21.226,-0.316,0.910,-0.244
21.236,-0.322,0.910,-0.244
21.246,-0.324,0.914,-0.242
21.256,-0.322,0.908,-0.248
21.265,-0.326,0.906,-0.244
21.275,-0.324,0.906,-0.242
21.285,-0.324,0.908,-0.244
21.295,-0.324,0.908,-0.248
21.305,-0.324,0.904,-0.246
21.315,-0.326,0.902,-0.240
21.325,-0.326,0.900,-0.244
21.335,-0.324,0.906,-0.242
21.345,-0.324,0.906,-0.242
21.355,-0.326,0.908,-0.238
21.365,-0.324,0.908,-0.242
21.375,-0.322,0.906,-0.242
21.385,-0.324,0.908,-0.242
21.395,-0.318,0.902,-0.240
21.405,-0.322,0.904,-0.244
21.415,-0.320,0.904,-0.244
21.424,-0.322,0.904,-0.246
21.434,-0.322,0.906,-0.244
21.444,-0.324,0.908,-0.242
21.454,-0.324,0.906,-0.246
21.464,-0.328,0.910,-0.242
21.474,-0.326,0.910,-0.242
21.484,-0.322,0.912,-0.246
21.494,-0.326,0.910,-0.248
21.504,-0.324,0.910,-0.242
21.514,-0.324,0.906,-0.246
21.524,-0.320,0.906,-0.248
21.534,-0.320,0.904,-0.248
21.544,-0.318,0.902,-0.244
21.554,-0.320,0.906,-0.244
21.564,-0.322,0.908,-0.246
21.574,-0.322,0.906,-0.244
21.583,-0.326,0.910,-0.246
21.593,-0.330,0.906,-0.244
21.603,-0.328,0.906,-0.248
21.613,-0.326,0.908,-0.240
21.623,-0.332,0.908,-0.244
21.633,-0.328,0.912,-0.242
21.643,-0.328,0.906,-0.238
21.653,-0.328,0.904,-0.238
21.663,-0.330,0.908,-0.238
21.673,-0.330,0.906,-0.238
21.683,-0.332,0.904,-0.238
21.693,-0.330,0.904,-0.238
21.703,-0.326,0.902,-0.238
21.713,-0.328,0.904,-0.236
21.723,-0.328,0.902,-0.240
21.732,-0.332,0.902,-0.238
21.742,-0.330,0.906,-0.238
21.752,-0.330,0.904,-0.240
21.762,-0.332,0.902,-0.242
21.772,-0.332,0.906,-0.236
21.782,-0.330,0.904,-0.242
21.792,-0.330,0.902,-0.238
21.802,-0.330,0.904,-0.242
21.812,-0.324,0.906,-0.240
21.822,-0.330,0.916,-0.240
21.832,-0.330,0.904,-0.238
21.842,-0.324,0.902,-0.240
21.852,-0.330,0.902,-0.236
21.862,-0.330,0.908,-0.238
21.872,-0.326,0.908,-0.244
21.882,-0.326,0.902,-0.246
21.891,-0.330,0.898,-0.244
21.901,-0.328,0.900,-0.240
21.911,-0.332,0.908,-0.240
21.921,-0.332,0.916,-0.240
21.931,-0.334,0.912,-0.238
21.941,-0.332,0.912,-0.242
21.951,-0.332,0.908,-0.240
21.961,-0.332,0.902,-0.238
21.971,-0.332,0.900,-0.242
21.981,-0.330,0.896,-0.242
21.991,-0.328,0.900,-0.236
22.001,-0.332,0.902,-0.240
22.011,-0.332,0.900,-0.242
22.021,-0.332,0.912,-0.242
22.031,-0.336,0.906,-0.240
22.040,-0.334,0.904,-0.236
22.050,-0.332,0.910,-0.242
22.060,-0.336,0.904,-0.240
22.070,-0.336,0.902,-0.238
22.080,-0.338,0.908,-0.236
22.090,-0.336,0.902,-0.240
22.100,-0.342,0.902,-0.240
22.110,-0.338,0.900,-0.242
22.120,-0.338,0.896,-0.242
22.130,-0.336,0.906,-0.242
22.140,-0.338,0.906,-0.240
22.150,-0.338,0.906,-0.240
22.160,-0.338,0.906,-0.240
22.170,-0.336,0.906,-0.244
22.180,-0.332,0.904,-0.242
22.190,-0.334,0.898,-0.240
22.199,-0.330,0.904,-0.238
22.209,-0.328,0.900,-0.240
22.219,-0.328,0.904,-0.244
22.229,-0.330,0.904,-0.242
22.239,-0.330,0.906,-0.244
22.249,-0.332,0.904,-0.244
22.259,-0.334,0.908,-0.244
22.269,-0.334,0.906,-0.244
22.279,-0.336,0.906,-0.242
22.289,-0.332,0.910,-0.244
22.299,-0.336,0.906,-0.244
22.309,-0.332,0.904,-0.242
22.319,-0.332,0.904,-0.248
22.329,-0.330,0.902,-0.244
22.339,-0.328,0.902,-0.248
22.349,-0.332,0.900,-0.244
22.358,-0.332,0.900,-0.244
22.368,-0.330,0.904,-0.242
22.378,-0.336,0.904,-0.242
22.388,-0.334,0.906,-0.242
22.398,-0.332,0.904,-0.242
22.408,-0.332,0.906,-0.242
22.418,-0.336,0.904,-0.242
22.428,-0.332,0.904,-0.240
22.438,-0.336,0.900,-0.242
22.448,-0.334,0.906,-0.242
22.458,-0.334,0.902,-0.240
22.468,-0.336,0.904,-0.240
22.478,-0.334,0.902,-0.242
22.488,-0.336,0.902,-0.240
22.498,-0.338,0.906,-0.244
22.507,-0.338,0.906,-0.240
22.517,-0.334,0.906,-0.240
22.527,-0.338,0.904,-0.242
22.537,-0.334,0.906,-0.242
22.547,-0.334,0.904,-0.240
22.557,-0.334,0.902,-0.242
22.567,-0.336,0.902,-0.240
22.577,-0.334,0.906,-0.242
22.587,-0.338,0.902,-0.242
22.597,-0.332,0.902,-0.242
22.607,-0.336,0.902,-0.238
22.617,-0.340,0.908,-0.242
22.627,-0.336,0.908,-0.240
22.637,-0.334,0.900,-0.238
22.647,-0.336,0.904,-0.240
22.657,-0.340,0.904,-0.240
22.666,-0.336,0.906,-0.238
22.676,-0.330,0.900,-0.244
22.686,-0.336,0.900,-0.244
22.696,-0.334,0.896,-0.242
22.706,-0.334,0.900,-0.236
22.716,-0.338,0.912,-0.240
22.726,-0.342,0.914,-0.240
22.736,-0.338,0.904,-0.240
22.746,-0.336,0.902,-0.240
22.756,-0.336,0.904,-0.244
22.766,-0.338,0.904,-0.240
22.776,-0.336,0.900,-0.238
22.786,-0.332,0.902,-0.242
22.796,-0.334,0.900,-0.242
22.806,-0.332,0.900,-0.238
22.816,-0.334,0.902,-0.236
22.825,-0.340,0.904,-0.238
22.835,-0.336,0.904,-0.238
22.845,-0.340,0.904,-0.236
22.855,-0.342,0.906,-0.240
22.865,-0.342,0.902,-0.238
22.875,-0.342,0.904,-0.236
22.885,-0.336,0.904,-0.240
22.895,-0.342,0.900,-0.240
22.905,-0.342,0.898,-0.242
22.915,-0.344,0.895,-0.238
22.925,-0.344,0.900,-0.238
22.935,-0.344,0.906,-0.238
22.945,-0.342,0.904,-0.240
22.955,-0.338,0.904,-0.238
22.965,-0.338,0.906,-0.240
22.974,-0.338,0.904,-0.244
22.984,-0.336,0.898,-0.240
22.994,-0.332,0.900,-0.240
23.004,-0.334,0.902,-0.240
23.014,-0.332,0.902,-0.240
23.024,-0.336,0.904,-0.242
23.034,-0.336,0.906,-0.240
23.044,-0.340,0.902,-0.240
23.054,-0.338,0.904,-0.240
23.064,-0.334,0.906,-0.244
23.074,-0.338,0.902,-0.240
23.084,-0.338,0.906,-0.242
23.094,-0.338,0.902,-0.242
23.104,-0.334,0.900,-0.240
23.114,-0.340,0.910,-0.242
23.124,-0.344,0.908,-0.238
23.133,-0.344,0.900,-0.240
23.143,-0.340,0.896,-0.242
23.153,-0.338,0.893,-0.244
23.163,-0.334,0.902,-0.242
23.173,-0.338,0.910,-0.244
23.183,-0.340,0.898,-0.242
23.193,-0.340,0.898,-0.244
23.203,-0.336,0.900,-0.246
23.213,-0.338,0.904,-0.248
23.223,-0.338,0.904,-0.246
23.233,-0.336,0.902,-0.242
23.243,-0.332,0.900,-0.244
23.253,-0.334,0.904,-0.246
23.263,-0.338,0.902,-0.242
23.273,-0.334,0.902,-0.244
23.283,-0.334,0.904,-0.246
23.292,-0.336,0.912,-0.246
23.302,-0.336,0.910,-0.242
23.312,-0.332,0.916,-0.246
23.322,-0.334,0.920,-0.238
23.332,-0.330,0.910,-0.240
23.342,-0.326,0.895,-0.236
23.352,-0.332,0.889,-0.238
23.362,-0.332,0.885,-0.240
23.372,-0.338,0.893,-0.244
23.382,-0.342,0.895,-0.244
23.392,-0.346,0.904,-0.242
23.402,-0.342,0.910,-0.242
23.412,-0.344,0.906,-0.240
23.422,-0.346,0.908,-0.242
23.432,-0.350,0.910,-0.242
23.441,-0.346,0.906,-0.236
23.451,-0.342,0.908,-0.238
23.461,-0.348,0.904,-0.236
23.471,-0.350,0.908,-0.240
23.481,-0.348,0.900,-0.234
23.491,-0.352,0.898,-0.242
23.501,-0.346,0.891,-0.240
23.511,-0.348,0.889,-0.240
23.521,-0.352,0.900,-0.236
23.531,-0.361,0.904,-0.238
23.541,-0.363,0.900,-0.240
23.551,-0.354,0.900,-0.240
23.561,-0.352,0.895,-0.238
23.571,-0.350,0.891,-0.242
23.581,-0.342,0.891,-0.246
23.591,-0.344,0.895,-0.244
23.600,-0.348,0.898,-0.240
23.610,-0.348,0.904,-0.244
23.620,-0.344,0.902,-0.244
23.630,-0.348,0.902,-0.240
23.640,-0.348,0.910,-0.248
23.650,-0.350,0.904,-0.244
23.660,-0.352,0.906,-0.244
23.670,-0.355,0.896,-0.242
23.680,-0.354,0.893,-0.244
23.690,-0.350,0.893,-0.242
23.700,-0.350,0.891,-0.248
23.710,-0.352,0.893,-0.246
23.720,-0.354,0.891,-0.248
23.730,-0.354,0.893,-0.246
23.740,-0.355,0.898,-0.250
23.750,-0.354,0.895,-0.248
23.759,-0.352,0.904,-0.246
23.769,-0.350,0.908,-0.246
23.779,-0.342,0.900,-0.246
23.789,-0.338,0.885,-0.242
23.799,-0.342,0.885,-0.242
23.809,-0.346,0.883,-0.246
23.819,-0.344,0.883,-0.248
23.829,-0.340,0.879,-0.252
23.839,-0.348,0.900,-0.254
23.849,-0.352,0.910,-0.258
23.859,-0.350,0.914,-0.252
23.869,-0.344,0.908,-0.258
23.879,-0.346,0.908,-0.256
23.889,-0.346,0.912,-0.258
23.899,-0.348,0.914,-0.256
23.908,-0.346,0.904,-0.256
23.918,-0.338,0.900,-0.254
23.928,-0.338,0.906,-0.254
23.938,-0.342,0.898,-0.252
23.948,-0.340,0.898,-0.252
23.958,-0.346,0.893,-0.252
23.968,-0.344,0.896,-0.250
23.978,-0.350,0.902,-0.250
23.988,-0.355,0.902,-0.246
23.998,-0.348,0.889,-0.250
24.008,-0.346,0.891,-0.246
24.018,-0.344,0.900,-0.246
24.028,-0.344,0.908,-0.242
24.038,-0.342,0.889,-0.244
24.048,-0.340,0.885,-0.252
24.058,-0.352,0.896,-0.254
24.067,-0.354,0.889,-0.252
24.077,-0.348,0.895,-0.258
24.087,-0.355,0.898,-0.254
24.097,-0.355,0.904,-0.254
24.107,-0.348,0.906,-0.252
24.117,-0.344,0.914,-0.256
24.127,-0.340,0.902,-0.252
24.137,-0.340,0.908,-0.256
24.147,-0.340,0.889,-0.250
24.157,-0.346,0.893,-0.256
24.167,-0.352,0.914,-0.252
24.177,-0.355,0.918,-0.252
24.187,-0.348,0.895,-0.248
24.197,-0.338,0.900,-0.244
24.207,-0.340,0.902,-0.246
24.216,-0.344,0.912,-0.242
24.226,-0.342,0.898,-0.234
24.236,-0.346,0.893,-0.234
24.246,-0.354,0.900,-0.234
24.256,-0.354,0.893,-0.234
24.266,-0.352,0.895,-0.240
24.276,-0.352,0.883,-0.234
24.286,-0.352,0.873,-0.238
24.296,-0.352,0.891,-0.234
24.306,-0.355,0.902,-0.236
24.316,-0.354,0.896,-0.238
24.326,-0.354,0.904,-0.242
24.336,-0.350,0.906,-0.238
24.346,-0.344,0.896,-0.238
24.356,-0.344,0.902,-0.242
24.366,-0.340,0.896,-0.240
24.375,-0.340,0.900,-0.238
24.385,-0.342,0.910,-0.234
24.395,-0.340,0.902,-0.236
24.405,-0.340,0.906,-0.240
24.415,-0.344,0.908,-0.238
24.425,-0.350,0.904,-0.238
24.435,-0.346,0.912,-0.238
24.445,-0.346,0.900,-0.236
24.455,-0.348,0.900,-0.240
24.465,-0.354,0.908,-0.236
24.475,-0.352,0.900,-0.234
24.485,-0.342,0.900,-0.232
24.495,-0.342,0.900,-0.236
24.505,-0.350,0.896,-0.232
24.515,-0.346,0.900,-0.236
24.525,-0.344,0.898,-0.234
24.534,-0.348,0.895,-0.236
24.544,-0.346,0.898,-0.232
24.554,-0.348,0.902,-0.236
24.564,-0.348,0.904,-0.234
24.574,-0.340,0.906,-0.236
24.584,-0.340,0.895,-0.236
24.594,-0.340,0.893,-0.236
24.604,-0.342,0.902,-0.240
24.614,-0.344,0.904,-0.240
24.624,-0.338,0.906,-0.240
24.634,-0.336,0.902,-0.240
24.644,-0.338,0.906,-0.242
24.654,-0.342,0.896,-0.242
24.664,-0.340,0.898,-0.246
24.674,-0.334,0.902,-0.246
24.683,-0.338,0.904,-0.246
24.693,-0.334,0.906,-0.244
24.703,-0.336,0.904,-0.246
24.713,-0.336,0.904,-0.248
24.723,-0.330,0.900,-0.248
24.733,-0.334,0.904,-0.250
24.743,-0.336,0.906,-0.250
24.753,-0.332,0.904,-0.250
24.763,-0.332,0.908,-0.250
24.773,-0.338,0.906,-0.248
24.783,-0.336,0.902,-0.250
24.793,-0.336,0.906,-0.248
24.803,-0.336,0.904,-0.248
24.813,-0.332,0.898,-0.246
24.823,-0.334,0.902,-0.248
24.833,-0.338,0.904,-0.252
24.842,-0.340,0.896,-0.248
24.852,-0.336,0.900,-0.252
24.862,-0.334,0.900,-0.250
24.872,-0.334,0.900,-0.250
24.882,-0.334,0.896,-0.246
24.892,-0.332,0.896,-0.252
24.902,-0.336,0.896,-0.246
24.912,-0.334,0.902,-0.248
24.922,-0.334,0.900,-0.246
24.932,-0.338,0.902,-0.250
24.942,-0.340,0.895,-0.248
24.952,-0.342,0.906,-0.250
24.962,-0.342,0.902,-0.248
24.972,-0.342,0.898,-0.250
24.982,-0.340,0.902,-0.250
24.992,-0.338,0.902,-0.252
25.001,-0.338,0.900,-0.246
25.011,-0.334,0.902,-0.248
25.021,-0.334,0.904,-0.246
25.031,-0.334,0.900,-0.248
25.041,-0.336,0.898,-0.248
25.051,-0.328,0.891,-0.252
25.061,-0.336,0.896,-0.254
25.071,-0.340,0.898,-0.250
25.081,-0.344,0.900,-0.250
25.091,-0.346,0.906,-0.250
25.101,-0.342,0.910,-0.252
25.111,-0.342,0.906,-0.252
25.121,-0.342,0.896,-0.248
25.131,-0.338,0.896,-0.250
25.141,-0.338,0.895,-0.250
25.150,-0.340,0.898,-0.250
25.160,-0.342,0.902,-0.254
25.170,-0.340,0.898,-0.250
25.180,-0.340,0.902,-0.250
25.190,-0.338,0.902,-0.248
25.200,-0.342,0.900,-0.248
25.210,-0.340,0.902,-0.252
25.220,-0.340,0.898,-0.248
25.230,-0.338,0.898,-0.244
25.240,-0.338,0.896,-0.250
25.250,-0.344,0.893,-0.244
25.260,-0.344,0.895,-0.246
25.270,-0.344,0.902,-0.246
25.280,-0.342,0.906,-0.250
25.290,-0.348,0.898,-0.246
25.300,-0.346,0.898,-0.250
25.309,-0.348,0.895,-0.252
25.319,-0.346,0.895,-0.248
25.329,-0.340,0.902,-0.246
25.339,-0.342,0.906,-0.246
25.349,-0.342,0.896,-0.248
25.359,-0.340,0.902,-0.248
25.369,-0.338,0.898,-0.248
25.379,-0.336,0.895,-0.246
25.389,-0.338,0.900,-0.250
25.399,-0.338,0.898,-0.246
25.409,-0.338,0.900,-0.248
25.419,-0.336,0.895,-0.252
25.429,-0.340,0.898,-0.254
25.439,-0.342,0.898,-0.252
25.449,-0.342,0.898,-0.254
25.459,-0.340,0.898,-0.254
25.468,-0.338,0.898,-0.254
25.478,-0.334,0.902,-0.252
25.488,-0.334,0.902,-0.256
25.498,-0.336,0.904,-0.252
25.508,-0.334,0.904,-0.254
25.518,-0.332,0.900,-0.252
25.528,-0.330,0.898,-0.250
25.538,-0.330,0.895,-0.256
25.548,-0.330,0.896,-0.256
25.558,-0.336,0.906,-0.258
25.568,-0.336,0.902,-0.256
25.578,-0.338,0.902,-0.256
25.588,-0.336,0.906,-0.258
25.598,-0.334,0.902,-0.258
25.608,-0.330,0.896,-0.256
25.617,-0.334,0.900,-0.256
25.627,-0.332,0.898,-0.260
25.637,-0.330,0.902,-0.260
25.647,-0.328,0.900,-0.254
25.657,-0.332,0.902,-0.252
25.667,-0.334,0.906,-0.260
25.677,-0.332,0.902,-0.254
25.687,-0.332,0.900,-0.252
25.697,-0.330,0.900,-0.256
25.707,-0.328,0.906,-0.258
25.717,-0.330,0.900,-0.254
25.727,-0.332,0.900,-0.258
25.737,-0.334,0.902,-0.258
25.747,-0.332,0.902,-0.256
25.757,-0.334,0.902,-0.254
25.767,-0.332,0.906,-0.258
25.776,-0.338,0.906,-0.254
25.786,-0.338,0.904,-0.252
25.796,-0.336,0.904,-0.256
25.806,-0.336,0.898,-0.252
25.816,-0.334,0.904,-0.254
25.826,-0.328,0.895,-0.250
25.836,-0.328,0.895,-0.250
25.846,-0.330,0.896,-0.252
25.856,-0.328,0.904,-0.252
25.866,-0.330,0.906,-0.252
25.876,-0.332,0.900,-0.254
25.886,-0.340,0.896,-0.254
25.896,-0.344,0.902,-0.250
25.906,-0.338,0.912,-0.250
25.916,-0.340,0.908,-0.250
25.926,-0.338,0.906,-0.250
25.935,-0.330,0.895,-0.250
25.945,-0.332,0.898,-0.248
25.955,-0.336,0.895,-0.248
25.965,-0.334,0.893,-0.248
25.975,-0.332,0.898,-0.248
25.985,-0.334,0.898,-0.244
25.995,-0.332,0.902,-0.242
26.005,-0.332,0.900,-0.242
26.015,-0.334,0.904,-0.244
26.025,-0.336,0.900,-0.246
26.035,-0.336,0.900,-0.246
26.045,-0.334,0.898,-0.248
26.055,-0.338,0.893,-0.248
26.065,-0.332,0.893,-0.246
26.075,-0.332,0.900,-0.250
26.084,-0.336,0.900,-0.246
26.094,-0.338,0.896,-0.246
26.104,-0.334,0.910,-0.246
26.114,-0.336,0.906,-0.252
26.124,-0.336,0.898,-0.250
26.134,-0.330,0.898,-0.250
26.144,-0.334,0.893,-0.250
26.154,-0.334,0.900,-0.254
26.164,-0.338,0.908,-0.254
26.174,-0.336,0.906,-0.252
26.184,-0.334,0.902,-0.250
26.194,-0.328,0.906,-0.248
26.204,-0.332,0.906,-0.252
26.214,-0.334,0.904,-0.250
26.224,-0.330,0.904,-0.252
26.234,-0.334,0.902,-0.252
26.243,-0.332,0.900,-0.254
26.253,-0.332,0.902,-0.256
26.263,-0.336,0.898,-0.254
26.273,-0.336,0.902,-0.252
26.283,-0.332,0.902,-0.256
26.293,-0.332,0.904,-0.252
26.303,-0.338,0.904,-0.254
26.313,-0.338,0.904,-0.254
26.323,-0.340,0.900,-0.254
26.333,-0.340,0.898,-0.252
26.343,-0.338,0.898,-0.250
26.353,-0.336,0.896,-0.252
26.363,-0.338,0.895,-0.252
26.373,-0.336,0.896,-0.254
26.383,-0.338,0.902,-0.252
26.393,-0.340,0.902,-0.254
26.402,-0.344,0.902,-0.250
26.412,-0.342,0.896,-0.254
26.422,-0.344,0.895,-0.252
26.432,-0.344,0.898,-0.252
26.442,-0.344,0.900,-0.254
26.452,-0.340,0.896,-0.252
26.462,-0.340,0.898,-0.254
26.472,-0.338,0.896,-0.252
26.482,-0.336,0.895,-0.250
26.492,-0.338,0.900,-0.252
26.502,-0.338,0.898,-0.250
26.512,-0.338,0.898,-0.254
26.522,-0.340,0.902,-0.256
26.532,-0.336,0.904,-0.250
26.542,-0.334,0.902,-0.254
26.551,-0.338,0.898,-0.252
26.561,-0.338,0.900,-0.252
26.571,-0.336,0.898,-0.252
26.581,-0.342,0.902,-0.252
26.591,-0.338,0.900,-0.254
26.601,-0.340,0.902,-0.254
26.611,-0.338,0.895,-0.252
26.621,-0.342,0.896,-0.254
26.631,-0.342,0.900,-0.254
26.641,-0.340,0.900,-0.252
26.651,-0.338,0.904,-0.254
26.661,-0.342,0.904,-0.252
26.671,-0.338,0.906,-0.254
26.681,-0.334,0.904,-0.250
26.691,-0.336,0.896,-0.252
26.701,-0.332,0.896,-0.250
26.710,-0.336,0.900,-0.248
26.720,-0.334,0.902,-0.252
26.730,-0.334,0.898,-0.252
26.740,-0.332,0.904,-0.250
26.750,-0.332,0.900,-0.250
26.760,-0.334,0.895,-0.248
26.770,-0.334,0.891,-0.252
26.780,-0.340,0.896,-0.248
26.790,-0.342,0.912,-0.248
26.800,-0.342,0.910,-0.248
26.810,-0.340,0.902,-0.250
26.820,-0.340,0.900,-0.248
26.830,-0.338,0.900,-0.252
26.840,-0.332,0.900,-0.250
26.850,-0.332,0.898,-0.248
26.859,-0.330,0.895,-0.250
26.869,-0.330,0.895,-0.252
26.879,-0.332,0.898,-0.250
26.889,-0.332,0.900,-0.250
26.899,-0.330,0.908,-0.252
26.909,-0.334,0.904,-0.250
26.919,-0.332,0.906,-0.250
26.929,-0.338,0.904,-0.250
26.939,-0.338,0.898,-0.250
26.949,-0.336,0.900,-0.252
26.959,-0.338,0.898,-0.252
26.969,-0.338,0.902,-0.254
26.979,-0.340,0.902,-0.250
26.989,-0.340,0.902,-0.254
26.999,-0.338,0.900,-0.250
27.009,-0.334,0.908,-0.250
27.018,-0.338,0.896,-0.250
27.028,-0.334,0.898,-0.252
27.038,-0.332,0.895,-0.252
27.048,-0.338,0.895,-0.248
27.058,-0.336,0.902,-0.248
27.068,-0.336,0.904,-0.248
27.078,-0.338,0.906,-0.250
27.088,-0.336,0.904,-0.250
27.098,-0.334,0.904,-0.248
27.108,-0.336,0.902,-0.250
27.118,-0.338,0.900,-0.248
27.128,-0.336,0.898,-0.250
27.138,-0.336,0.896,-0.248
27.148,-0.334,0.900,-0.254
27.158,-0.332,0.898,-0.250
27.168,-0.332,0.898,-0.250
27.177,-0.332,0.902,-0.252
27.187,-0.334,0.900,-0.254
27.197,-0.330,0.900,-0.250
27.207,-0.330,0.900,-0.252
27.217,-0.332,0.902,-0.252
27.227,-0.334,0.902,-0.252
27.237,-0.334,0.902,-0.254
27.247,-0.332,0.900,-0.256
27.257,-0.334,0.900,-0.254
27.267,-0.334,0.904,-0.254
27.277,-0.334,0.900,-0.258
27.287,-0.334,0.904,-0.254
27.297,-0.332,0.902,-0.254
27.307,-0.332,0.904,-0.252
27.317,-0.332,0.898,-0.252
27.326,-0.330,0.904,-0.252
27.336,-0.332,0.902,-0.254
27.346,-0.330,0.900,-0.256
27.356,-0.334,0.900,-0.254
27.366,-0.334,0.904,-0.252
27.376,-0.340,0.904,-0.254
27.386,-0.338,0.900,-0.252
27.396,-0.336,0.900,-0.252
27.406,-0.340,0.900,-0.252
27.416,-0.334,0.900,-0.250
27.426,-0.330,0.900,-0.252
27.436,-0.336,0.900,-0.252
27.446,-0.340,0.902,-0.248
27.456,-0.338,0.898,-0.254
27.466,-0.340,0.900,-0.252
27.476,-0.342,0.900,-0.252
27.485,-0.342,0.896,-0.254
27.495,-0.342,0.896,-0.252
27.505,-0.340,0.898,-0.248
27.515,-0.344,0.900,-0.252
27.525,-0.340,0.898,-0.248
27.535,-0.336,0.895,-0.250
27.545,-0.338,0.898,-0.250
27.555,-0.338,0.896,-0.250
27.565,-0.338,0.898,-0.252
27.575,-0.340,0.898,-0.248
27.585,-0.340,0.900,-0.252
27.595,-0.340,0.902,-0.252
27.605,-0.342,0.896,-0.250
27.615,-0.344,0.898,-0.250
27.625,-0.342,0.900,-0.248
27.635,-0.346,0.898,-0.252
27.644,-0.344,0.900,-0.252
27.654,-0.344,0.898,-0.254
27.664,-0.342,0.900,-0.252
27.674,-0.342,0.896,-0.250
27.684,-0.342,0.900,-0.252
27.694,-0.340,0.895,-0.252
27.704,-0.342,0.896,-0.250
27.714,-0.338,0.900,-0.248
27.724,-0.338,0.902,-0.252
27.734,-0.338,0.896,-0.250
27.744,-0.336,0.910,-0.256
27.754,-0.334,0.900,-0.248
27.764,-0.332,0.893,-0.258
27.774,-0.336,0.889,-0.252
27.784,-0.344,0.898,-0.252
27.793,-0.346,0.906,-0.252
27.803,-0.342,0.910,-0.254
27.813,-0.342,0.902,-0.250
27.823,-0.340,0.900,-0.250
27.833,-0.340,0.900,-0.250
27.843,-0.340,0.895,-0.250
27.853,-0.338,0.895,-0.252
27.863,-0.340,0.896,-0.250
27.873,-0.338,0.896,-0.252
27.883,-0.340,0.898,-0.248
27.893,-0.338,0.900,-0.250
27.903,-0.336,0.893,-0.248
27.913,-0.338,0.896,-0.252
27.923,-0.338,0.898,-0.254
27.933,-0.342,0.902,-0.256
27.943,-0.344,0.904,-0.254
27.952,-0.340,0.900,-0.256
27.962,-0.340,0.900,-0.256
27.972,-0.344,0.902,-0.258
27.982,-0.338,0.896,-0.254
27.992,-0.340,0.900,-0.254
28.002,-0.344,0.896,-0.256
28.012,-0.338,0.895,-0.250
28.022,-0.334,0.902,-0.254
28.032,-0.340,0.895,-0.256
28.042,-0.332,0.891,-0.254
28.052,-0.334,0.900,-0.256
28.062,-0.338,0.891,-0.256
28.072,-0.340,0.896,-0.256
28.082,-0.340,0.898,-0.258
28.092,-0.344,0.902,-0.260
28.102,-0.340,0.898,-0.256
28.111,-0.342,0.896,-0.256
28.121,-0.342,0.902,-0.258
28.131,-0.336,0.898,-0.256
28.141,-0.336,0.896,-0.256
28.151,-0.334,0.900,-0.258
28.161,-0.336,0.895,-0.256
28.171,-0.336,0.896,-0.256
28.181,-0.334,0.898,-0.258
28.191,-0.334,0.900,-0.258
28.201,-0.332,0.898,-0.256
28.211,-0.334,0.900,-0.262
28.221,-0.334,0.896,-0.258
28.231,-0.332,0.896,-0.262
28.241,-0.334,0.896,-0.260
28.251,-0.334,0.895,-0.262
28.260,-0.334,0.898,-0.262
28.270,-0.334,0.900,-0.262
28.280,-0.336,0.898,-0.258
28.290,-0.334,0.898,-0.264
28.300,-0.332,0.898,-0.260
28.310,-0.332,0.896,-0.264
28.320,-0.330,0.900,-0.262
28.330,-0.336,0.898,-0.262
28.340,-0.334,0.900,-0.262
28.350,-0.330,0.900,-0.264
28.360,-0.330,0.898,-0.266
28.370,-0.334,0.896,-0.264
28.380,-0.336,0.900,-0.262
28.390,-0.332,0.896,-0.262
28.400,-0.332,0.896,-0.264
28.410,-0.332,0.898,-0.264
28.419,-0.328,0.900,-0.266
28.429,-0.334,0.898,-0.266
28.439,-0.334,0.898,-0.264
28.449,-0.332,0.895,-0.264
28.459,-0.334,0.895,-0.260
28.469,-0.330,0.902,-0.262
28.479,-0.332,0.900,-0.260
28.489,-0.330,0.900,-0.260
28.499,-0.334,0.902,-0.262
28.509,-0.332,0.898,-0.262
28.519,-0.330,0.898,-0.262
28.529,-0.332,0.898,-0.264
28.539,-0.332,0.898,-0.266
28.549,-0.332,0.898,-0.264
28.559,-0.334,0.898,-0.260
28.569,-0.338,0.898,-0.262
28.578,-0.332,0.898,-0.264
28.588,-0.334,0.896,-0.262
28.598,-0.336,0.896,-0.264
28.608,-0.334,0.893,-0.260
28.618,-0.338,0.896,-0.264
28.628,-0.334,0.898,-0.260
28.638,-0.336,0.896,-0.262
28.648,-0.338,0.898,-0.260
28.658,-0.336,0.898,-0.264
28.668,-0.340,0.896,-0.262
28.678,-0.338,0.896,-0.262
28.688,-0.342,0.895,-0.264
28.698,-0.340,0.898,-0.262
28.708,-0.342,0.900,-0.262
28.718,-0.336,0.898,-0.262
28.727,-0.338,0.896,-0.264
28.737,-0.338,0.896,-0.260
28.747,-0.336,0.896,-0.260
28.757,-0.336,0.898,-0.258
28.767,-0.332,0.900,-0.258
28.777,-0.332,0.900,-0.262
28.787,-0.330,0.900,-0.264
28.797,-0.328,0.896,-0.258
28.807,-0.326,0.891,-0.262
28.817,-0.334,0.889,-0.258
28.827,-0.340,0.893,-0.260
28.837,-0.344,0.902,-0.262
28.847,-0.340,0.900,-0.260
28.857,-0.340,0.896,-0.260
28.867,-0.344,0.896,-0.258
28.877,-0.346,0.895,-0.266
28.886,-0.344,0.893,-0.262
28.896,-0.342,0.898,-0.264
28.906,-0.342,0.896,-0.264
28.916,-0.340,0.896,-0.262
28.926,-0.338,0.889,-0.258
28.936,-0.336,0.895,-0.258
28.946,-0.332,0.898,-0.260
28.956,-0.336,0.898,-0.258
28.966,-0.336,0.895,-0.258
28.976,-0.338,0.895,-0.264
28.986,-0.336,0.896,-0.262
28.996,-0.336,0.895,-0.262
29.006,-0.334,0.896,-0.262
29.016,-0.338,0.896,-0.262
29.026,-0.338,0.896,-0.262
29.035,-0.340,0.896,-0.262
29.045,-0.342,0.895,-0.262
29.055,-0.338,0.896,-0.260
29.065,-0.332,0.898,-0.264
29.075,-0.334,0.902,-0.262
29.085,-0.334,0.896,-0.262
29.095,-0.330,0.898,-0.262
29.105,-0.332,0.891,-0.262
29.115,-0.332,0.893,-0.262
29.125,-0.330,0.895,-0.260
29.135,-0.334,0.895,-0.262
29.145,-0.338,0.896,-0.262
29.155,-0.336,0.896,-0.268
29.165,-0.336,0.895,-0.270
29.175,-0.336,0.895,-0.268
29.185,-0.338,0.900,-0.268
29.194,-0.334,0.900,-0.266
29.204,-0.334,0.898,-0.268
29.214,-0.332,0.895,-0.266
29.224,-0.332,0.895,-0.270
29.234,-0.336,0.898,-0.268
29.244,-0.332,0.898,-0.268
29.254,-0.332,0.898,-0.270
29.264,-0.332,0.898,-0.268
29.274,-0.332,0.896,-0.270
29.284,-0.332,0.896,-0.270
29.294,-0.332,0.898,-0.270
29.304,-0.330,0.898,-0.268
29.314,-0.336,0.896,-0.271
29.324,-0.336,0.895,-0.270
29.334,-0.334,0.895,-0.266
29.344,-0.336,0.896,-0.271
29.353,-0.338,0.896,-0.271
29.363,-0.332,0.896,-0.268
29.373,-0.332,0.896,-0.271
29.383,-0.338,0.896,-0.266
29.393,-0.336,0.895,-0.268
29.403,-0.336,0.893,-0.266
29.413,-0.338,0.891,-0.268
29.423,-0.332,0.895,-0.270
29.433,-0.330,0.898,-0.264
29.443,-0.338,0.896,-0.268
29.453,-0.336,0.898,-0.268
29.463,-0.336,0.900,-0.264
29.473,-0.334,0.893,-0.264
29.483,-0.332,0.895,-0.266
29.493,-0.336,0.896,-0.264
29.502,-0.334,0.896,-0.262
29.512,-0.334,0.895,-0.262
29.522,-0.334,0.895,-0.266
29.532,-0.334,0.895,-0.264
29.542,-0.332,0.896,-0.264
29.552,-0.332,0.896,-0.266
29.562,-0.334,0.896,-0.266
29.572,-0.332,0.895,-0.266
29.582,-0.334,0.896,-0.268
29.592,-0.334,0.898,-0.266
29.602,-0.334,0.895,-0.268
29.612,-0.334,0.898,-0.266
29.622,-0.334,0.898,-0.268
29.632,-0.330,0.896,-0.266
29.642,-0.332,0.900,-0.268
29.652,-0.332,0.898,-0.268
29.661,-0.330,0.898,-0.266
29.671,-0.326,0.896,-0.268
29.681,-0.330,0.895,-0.266
29.691,-0.332,0.895,-0.268
29.701,-0.334,0.896,-0.268
29.711,-0.334,0.895,-0.268
29.721,-0.334,0.898,-0.268
29.731,-0.332,0.898,-0.266
29.741,-0.336,0.902,-0.268
29.751,-0.334,0.898,-0.268
29.761,-0.334,0.898,-0.270
29.771,-0.338,0.900,-0.266
29.781,-0.340,0.898,-0.268
29.791,-0.338,0.900,-0.266
29.801,-0.336,0.898,-0.262
29.811,-0.334,0.895,-0.266
29.820,-0.334,0.896,-0.262
29.830,-0.332,0.896,-0.262
29.840,-0.336,0.898,-0.260
29.850,-0.330,0.895,-0.258
29.860,-0.330,0.900,-0.262
29.870,-0.336,0.900,-0.260
29.880,-0.332,0.898,-0.262
29.890,-0.332,0.891,-0.262
29.900,-0.332,0.891,-0.262
29.910,-0.342,0.896,-0.262
29.920,-0.342,0.900,-0.260
29.930,-0.344,0.904,-0.262
29.940,-0.342,0.900,-0.262
29.950,-0.340,0.896,-0.262
29.960,-0.340,0.896,-0.258
29.969,-0.336,0.896,-0.260
29.979,-0.340,0.895,-0.260
29.989,-0.340,0.893,-0.256
29.999,-0.340,0.891,-0.258
30.009,-0.340,0.895,-0.254
30.019,-0.336,0.895,-0.258
30.029,-0.334,0.896,-0.258
30.039,-0.338,0.900,-0.258
30.049,-0.338,0.896,-0.262
30.059,-0.338,0.896,-0.264
30.069,-0.338,0.896,-0.260
30.079,-0.338,0.895,-0.260
30.089,-0.338,0.898,-0.262
30.099,-0.336,0.896,-0.264
30.109,-0.338,0.898,-0.266
30.119,-0.340,0.898,-0.262
30.128,-0.342,0.893,-0.262
30.138,-0.342,0.893,-0.264
30.148,-0.332,0.896,-0.258
30.158,-0.334,0.900,-0.268
30.168,-0.334,0.896,-0.262
30.178,-0.334,0.900,-0.264
30.188,-0.332,0.893,-0.260
30.198,-0.336,0.898,-0.264
30.208,-0.336,0.896,-0.262
30.218,-0.336,0.898,-0.262
30.228,-0.336,0.898,-0.266
30.238,-0.336,0.900,-0.262
30.248,-0.336,0.900,-0.264
30.258,-0.332,0.898,-0.262
30.268,-0.332,0.896,-0.264
30.278,-0.332,0.896,-0.262
30.287,-0.334,0.895,-0.266
30.297,-0.336,0.896,-0.264
30.307,-0.334,0.895,-0.262
30.317,-0.336,0.896,-0.266
30.327,-0.334,0.896,-0.264
30.337,-0.336,0.896,-0.266
30.347,-0.336,0.896,-0.266
30.357,-0.334,0.898,-0.264
30.367,-0.334,0.896,-0.264
30.377,-0.334,0.896,-0.264
30.387,-0.338,0.898,-0.266
30.397,-0.338,0.898,-0.264
30.407,-0.336,0.896,-0.266
30.417,-0.338,0.898,-0.266
30.427,-0.336,0.896,-0.264
30.436,-0.336,0.896,-0.268
30.446,-0.334,0.900,-0.266
30.456,-0.340,0.896,-0.270
30.466,-0.338,0.896,-0.266
30.476,-0.338,0.896,-0.264
30.486,-0.338,0.895,-0.268
30.496,-0.340,0.896,-0.266
30.506,-0.340,0.896,-0.262
30.516,-0.340,0.896,-0.260
30.526,-0.340,0.895,-0.262
30.536,-0.340,0.895,-0.262
30.546,-0.340,0.896,-0.260
30.556,-0.342,0.896,-0.262
30.566,-0.342,0.896,-0.256
30.576,-0.344,0.891,-0.260
30.586,-0.344,0.891,-0.258
30.595,-0.344,0.893,-0.258
30.605,-0.344,0.895,-0.262
30.615,-0.342,0.893,-0.258
30.625,-0.344,0.893,-0.258
30.635,-0.344,0.893,-0.258
30.645,-0.342,0.893,-0.262
30.655,-0.342,0.898,-0.262
30.665,-0.340,0.898,-0.264
30.675,-0.340,0.896,-0.264
30.685,-0.338,0.898,-0.260
30.695,-0.340,0.896,-0.260
30.705,-0.340,0.896,-0.262
30.715,-0.340,0.896,-0.260
30.725,-0.340,0.895,-0.260
30.735,-0.340,0.898,-0.262
30.745,-0.340,0.896,-0.260
30.754,-0.342,0.896,-0.264
30.764,-0.342,0.896,-0.262
30.774,-0.340,0.898,-0.260
30.784,-0.344,0.896,-0.262
30.794,-0.342,0.895,-0.258
30.804,-0.344,0.895,-0.260
30.814,-0.346,0.895,-0.260
30.824,-0.346,0.896,-0.260
30.834,-0.344,0.895,-0.260
30.844,-0.344,0.895,-0.256
30.854,-0.342,0.898,-0.258
30.864,-0.344,0.893,-0.262
30.874,-0.342,0.896,-0.262
30.884,-0.342,0.895,-0.262
30.894,-0.342,0.898,-0.262
30.903,-0.344,0.893,-0.258
30.913,-0.346,0.893,-0.260
30.923,-0.344,0.896,-0.258
30.933,-0.344,0.895,-0.258
30.943,-0.342,0.898,-0.258
30.953,-0.340,0.902,-0.256
30.963,-0.340,0.898,-0.258
30.973,-0.336,0.895,-0.256
30.983,-0.336,0.887,-0.256
30.993,-0.338,0.889,-0.256
31.003,-0.344,0.891,-0.256
31.013,-0.346,0.900,-0.258
31.023,-0.342,0.900,-0.258
31.033,-0.344,0.896,-0.260
31.043,-0.342,0.895,-0.262
31.053,-0.346,0.891,-0.260
31.062,-0.344,0.895,-0.262
31.072,-0.352,0.895,-0.258
31.082,-0.346,0.896,-0.262
31.092,-0.346,0.893,-0.260
31.102,-0.340,0.893,-0.260
31.112,-0.338,0.896,-0.264
31.122,-0.338,0.898,-0.262
31.132,-0.338,0.896,-0.262
31.142,-0.340,0.898,-0.260
31.152,-0.342,0.898,-0.260
31.162,-0.340,0.898,-0.262
31.172,-0.342,0.896,-0.264
31.182,-0.344,0.896,-0.262
31.192,-0.344,0.893,-0.266
31.202,-0.348,0.893,-0.264
31.211,-0.350,0.891,-0.264
31.221,-0.346,0.893,-0.262
31.231,-0.340,0.896,-0.258
31.241,-0.340,0.900,-0.260
31.251,-0.340,0.889,-0.260
31.261,-0.334,0.891,-0.260
31.271,-0.334,0.893,-0.264
31.281,-0.338,0.891,-0.260
31.291,-0.336,0.895,-0.264
31.301,-0.334,0.895,-0.262
31.311,-0.336,0.896,-0.264
31.321,-0.336,0.898,-0.262
31.331,-0.338,0.898,-0.262
31.341,-0.336,0.902,-0.264
31.351,-0.334,0.902,-0.264
31.361,-0.332,0.895,-0.268
31.370,-0.332,0.896,-0.264
31.380,-0.336,0.895,-0.266
31.390,-0.334,0.895,-0.264
31.400,-0.336,0.896,-0.264
31.410,-0.338,0.896,-0.268
31.420,-0.338,0.898,-0.266
31.430,-0.336,0.898,-0.268
31.440,-0.334,0.900,-0.268
31.450,-0.336,0.896,-0.266
31.460,-0.336,0.898,-0.266
31.470,-0.336,0.895,-0.264
31.480,-0.338,0.896,-0.268
31.490,-0.336,0.895,-0.268
31.500,-0.338,0.893,-0.266
31.510,-0.334,0.895,-0.264
31.520,-0.334,0.896,-0.266
31.529,-0.340,0.898,-0.266
31.539,-0.338,0.898,-0.266
31.549,-0.338,0.895,-0.268
31.559,-0.338,0.895,-0.264
31.569,-0.338,0.898,-0.266
31.579,-0.338,0.896,-0.266
31.589,-0.336,0.898,-0.268
31.599,-0.336,0.898,-0.262
31.609,-0.338,0.895,-0.264
31.619,-0.336,0.895,-0.266
31.629,-0.338,0.893,-0.264
31.639,-0.340,0.896,-0.266
31.649,-0.340,0.896,-0.266
31.659,-0.340,0.898,-0.268
31.669,-0.344,0.898,-0.264
31.678,-0.338,0.895,-0.266
31.688,-0.342,0.896,-0.262
31.698,-0.340,0.893,-0.260
31.708,-0.338,0.895,-0.264
31.718,-0.342,0.895,-0.262
31.728,-0.340,0.896,-0.262
31.738,-0.340,0.898,-0.260
31.748,-0.340,0.895,-0.264
31.758,-0.338,0.896,-0.264
31.768,-0.336,0.898,-0.266
31.778,-0.344,0.896,-0.262
31.788,-0.342,0.896,-0.262
31.798,-0.340,0.896,-0.262
31.808,-0.340,0.895,-0.262
31.818,-0.340,0.895,-0.262
31.828,-0.340,0.896,-0.264
31.837,-0.342,0.898,-0.260
31.847,-0.338,0.896,-0.260
31.857,-0.338,0.895,-0.262
31.867,-0.342,0.895,-0.262
31.877,-0.344,0.896,-0.260
31.887,-0.344,0.895,-0.260
31.897,-0.344,0.896,-0.262
31.907,-0.342,0.896,-0.260
31.917,-0.346,0.895,-0.262
31.927,-0.344,0.896,-0.260
31.937,-0.344,0.898,-0.260
31.947,-0.346,0.896,-0.260
31.957,-0.342,0.895,-0.262
31.967,-0.340,0.891,-0.262
31.977,-0.342,0.895,-0.260
31.987,-0.340,0.893,-0.266
31.996,-0.336,0.896,-0.260
32.006,-0.338,0.900,-0.258
32.016,-0.338,0.904,-0.260
32.026,-0.336,0.904,-0.258
32.036,-0.332,0.895,-0.262
32.046,-0.336,0.891,-0.260
32.056,-0.344,0.895,-0.260
32.066,-0.344,0.895,-0.258
32.076,-0.346,0.900,-0.258
32.086,-0.342,0.898,-0.258
32.096,-0.344,0.896,-0.258
32.106,-0.342,0.900,-0.260
32.116,-0.344,0.893,-0.256
32.126,-0.342,0.896,-0.258
32.136,-0.342,0.893,-0.260
32.145,-0.342,0.893,-0.260
32.155,-0.344,0.896,-0.260
32.165,-0.340,0.896,-0.260
32.175,-0.338,0.900,-0.260
32.185,-0.338,0.898,-0.254
32.195,-0.336,0.900,-0.258
32.205,-0.338,0.900,-0.256
32.215,-0.340,0.896,-0.260
32.225,-0.336,0.898,-0.256
32.235,-0.338,0.896,-0.258
32.245,-0.336,0.895,-0.260
32.255,-0.338,0.896,-0.256
32.265,-0.340,0.898,-0.258
32.275,-0.340,0.895,-0.256
32.285,-0.340,0.895,-0.258
32.295,-0.338,0.902,-0.258
32.304,-0.336,0.898,-0.256
32.314,-0.330,0.898,-0.258
32.324,-0.334,0.896,-0.258
32.334,-0.336,0.896,-0.260
32.344,-0.338,0.900,-0.258
32.354,-0.338,0.898,-0.258
32.364,-0.334,0.900,-0.258
32.374,-0.338,0.900,-0.258
32.384,-0.334,0.902,-0.260
32.394,-0.342,0.900,-0.260
32.404,-0.336,0.900,-0.260
32.414,-0.334,0.902,-0.260
32.424,-0.338,0.902,-0.260
32.434,-0.332,0.900,-0.260
32.444,-0.336,0.896,-0.256
32.454,-0.338,0.898,-0.256
32.463,-0.338,0.898,-0.258
32.473,-0.338,0.896,-0.258
32.483,-0.338,0.898,-0.258
32.493,-0.338,0.898,-0.260
32.503,-0.340,0.898,-0.258
32.513,-0.342,0.896,-0.258
32.523,-0.344,0.896,-0.260
32.533,-0.342,0.895,-0.258
32.543,-0.340,0.898,-0.256
32.553,-0.344,0.898,-0.260
32.563,-0.344,0.895,-0.260
32.573,-0.342,0.898,-0.258
32.583,-0.344,0.896,-0.258
32.593,-0.346,0.898,-0.256
32.603,-0.342,0.895,-0.258
32.612,-0.344,0.896,-0.260
32.622,-0.342,0.898,-0.258
32.632,-0.344,0.900,-0.262
32.642,-0.346,0.898,-0.254
32.652,-0.344,0.898,-0.254
32.662,-0.342,0.898,-0.256
32.672,-0.344,0.898,-0.256
32.682,-0.342,0.896,-0.256
32.692,-0.344,0.895,-0.256
32.702,-0.344,0.896,-0.254
32.712,-0.346,0.898,-0.252
32.722,-0.346,0.895,-0.250
32.732,-0.342,0.898,-0.252
32.742,-0.342,0.896,-0.254
32.752,-0.348,0.896,-0.252
32.762,-0.346,0.895,-0.250
32.771,-0.344,0.898,-0.254
32.781,-0.346,0.896,-0.248
32.791,-0.344,0.900,-0.252
32.801,-0.348,0.898,-0.252
32.811,-0.346,0.896,-0.252
32.821,-0.346,0.898,-0.252
32.831,-0.342,0.898,-0.254
32.841,-0.344,0.900,-0.250
32.851,-0.340,0.898,-0.254
32.861,-0.342,0.898,-0.254
32.871,-0.340,0.898,-0.252
32.881,-0.340,0.898,-0.250
32.891,-0.338,0.896,-0.252
32.901,-0.342,0.898,-0.250
32.911,-0.344,0.896,-0.250
32.921,-0.342,0.898,-0.254
32.930,-0.340,0.900,-0.254
32.940,-0.342,0.902,-0.252
32.950,-0.342,0.902,-0.252
32.960,-0.344,0.900,-0.256
32.970,-0.344,0.900,-0.254
32.980,-0.342,0.902,-0.254
32.990,-0.344,0.898,-0.254
33.000,-0.340,0.900,-0.252
33.010,-0.344,0.900,-0.250
33.020,-0.342,0.900,-0.254
33.030,-0.340,0.896,-0.246
33.040,-0.340,0.902,-0.252
33.050,-0.342,0.906,-0.252
33.060,-0.338,0.900,-0.250
33.070,-0.334,0.898,-0.250
33.079,-0.338,0.895,-0.250
33.089,-0.346,0.896,-0.248
33.099,-0.346,0.898,-0.248
33.109,-0.350,0.902,-0.250
33.119,-0.350,0.900,-0.246
33.129,-0.348,0.902,-0.250
33.139,-0.348,0.900,-0.246
33.149,-0.348,0.896,-0.248
33.159,-0.350,0.895,-0.246
33.169,-0.350,0.895,-0.246
33.179,-0.350,0.896,-0.246
33.189,-0.348,0.898,-0.248
33.199,-0.348,0.895,-0.246
33.209,-0.346,0.900,-0.244
33.219,-0.346,0.900,-0.246
33.229,-0.346,0.900,-0.244
33.238,-0.344,0.900,-0.246
33.248,-0.346,0.902,-0.250
33.258,-0.348,0.898,-0.246
33.268,-0.346,0.896,-0.240
33.278,-0.346,0.896,-0.248
33.288,-0.344,0.896,-0.246
33.298,-0.352,0.895,-0.248
33.308,-0.350,0.896,-0.246
33.318,-0.350,0.902,-0.244
33.328,-0.352,0.904,-0.248
33.338,-0.348,0.902,-0.248
33.348,-0.344,0.896,-0.246
33.358,-0.342,0.896,-0.246
33.368,-0.350,0.898,-0.248
33.378,-0.352,0.902,-0.250
33.387,-0.348,0.900,-0.248
33.397,-0.348,0.900,-0.250
33.407,-0.346,0.902,-0.246
33.417,-0.348,0.900,-0.250
33.427,-0.348,0.900,-0.248
33.437,-0.350,0.898,-0.248
33.447,-0.346,0.898,-0.248
33.457,-0.352,0.896,-0.246
33.467,-0.348,0.900,-0.246
33.477,-0.348,0.900,-0.248
33.487,-0.352,0.896,-0.244
33.497,-0.350,0.904,-0.248
33.507,-0.348,0.900,-0.244
33.517,-0.348,0.900,-0.248
33.527,-0.348,0.898,-0.246
33.537,-0.352,0.900,-0.246
33.546,-0.352,0.896,-0.244
33.556,-0.354,0.893,-0.246
33.566,-0.352,0.896,-0.242
33.576,-0.355,0.896,-0.242
33.586,-0.355,0.896,-0.246
33.596,-0.355,0.896,-0.246
33.606,-0.354,0.900,-0.242
33.616,-0.354,0.900,-0.250
33.626,-0.354,0.898,-0.242
33.636,-0.355,0.896,-0.246
33.646,-0.357,0.898,-0.244
33.656,-0.355,0.896,-0.244
33.666,-0.354,0.898,-0.246
33.676,-0.355,0.900,-0.242
33.686,-0.355,0.898,-0.242
33.696,-0.352,0.900,-0.246
33.705,-0.354,0.900,-0.244
33.715,-0.355,0.895,-0.240
33.725,-0.355,0.896,-0.242
33.735,-0.352,0.898,-0.238
33.745,-0.354,0.898,-0.240
33.755,-0.352,0.900,-0.244
33.765,-0.354,0.902,-0.238
33.775,-0.352,0.900,-0.242
33.785,-0.354,0.902,-0.238
33.795,-0.354,0.898,-0.238
33.805,-0.355,0.898,-0.240
33.815,-0.354,0.898,-0.240
33.825,-0.350,0.902,-0.240
33.835,-0.352,0.896,-0.238
33.845,-0.357,0.902,-0.238
33.854,-0.357,0.902,-0.242
33.864,-0.352,0.902,-0.238
33.874,-0.354,0.900,-0.238
33.884,-0.354,0.900,-0.238
33.894,-0.352,0.900,-0.234
33.904,-0.350,0.902,-0.236
33.914,-0.355,0.896,-0.234
33.924,-0.352,0.898,-0.234
33.934,-0.352,0.900,-0.238
33.944,-0.354,0.900,-0.238
33.954,-0.354,0.902,-0.238
33.964,-0.355,0.900,-0.238
33.974,-0.357,0.902,-0.238
33.984,-0.357,0.898,-0.236
33.994,-0.359,0.902,-0.236
34.004,-0.355,0.900,-0.234
34.013,-0.357,0.902,-0.232
34.023,-0.357,0.902,-0.234
34.033,-0.357,0.900,-0.232
34.043,-0.357,0.900,-0.232
34.053,-0.355,0.898,-0.236
34.063,-0.355,0.900,-0.230
34.073,-0.355,0.902,-0.229
34.083,-0.355,0.904,-0.230
34.093,-0.355,0.904,-0.229
34.103,-0.354,0.902,-0.229
34.113,-0.350,0.896,-0.230
34.123,-0.355,0.895,-0.232
34.133,-0.361,0.895,-0.230
34.143,-0.363,0.900,-0.232
34.153,-0.363,0.900,-0.230
34.163,-0.361,0.902,-0.234
34.172,-0.365,0.902,-0.234
34.182,-0.363,0.900,-0.230
34.192,-0.361,0.898,-0.230
34.202,-0.359,0.896,-0.230
34.212,-0.359,0.896,-0.234
34.222,-0.361,0.896,-0.230
34.232,-0.359,0.900,-0.229
34.242,-0.359,0.900,-0.229
34.252,-0.357,0.898,-0.230
34.262,-0.355,0.900,-0.229
34.272,-0.359,0.904,-0.229
34.282,-0.357,0.902,-0.232
34.292,-0.361,0.902,-0.229
34.302,-0.359,0.898,-0.229
34.312,-0.361,0.900,-0.232
34.321,-0.363,0.898,-0.230
34.331,-0.365,0.898,-0.234
34.341,-0.365,0.898,-0.230
34.351,-0.361,0.898,-0.229
34.361,-0.359,0.904,-0.232
34.371,-0.359,0.902,-0.230
34.381,-0.355,0.898,-0.230
34.391,-0.355,0.900,-0.234
34.401,-0.357,0.898,-0.232
34.411,-0.361,0.896,-0.234
34.421,-0.359,0.902,-0.232
34.431,-0.357,0.900,-0.232
34.441,-0.359,0.904,-0.234
34.451,-0.361,0.906,-0.236
34.461,-0.357,0.904,-0.232
34.471,-0.357,0.904,-0.236
34.480,-0.357,0.900,-0.236
34.490,-0.357,0.898,-0.234
34.500,-0.359,0.896,-0.236
34.510,-0.357,0.902,-0.232
34.520,-0.357,0.900,-0.236
34.530,-0.359,0.902,-0.236
34.540,-0.359,0.902,-0.234
34.550,-0.357,0.902,-0.234
34.560,-0.357,0.902,-0.232
34.570,-0.357,0.898,-0.232
34.580,-0.359,0.896,-0.236
34.590,-0.359,0.896,-0.234
34.600,-0.361,0.896,-0.234
34.610,-0.361,0.898,-0.234
34.620,-0.363,0.898,-0.232
34.630,-0.361,0.900,-0.236
34.639,-0.363,0.898,-0.230
34.649,-0.361,0.900,-0.240
34.659,-0.361,0.900,-0.236
34.669,-0.361,0.898,-0.234
34.679,-0.359,0.902,-0.236
34.689,-0.355,0.898,-0.238
34.699,-0.355,0.900,-0.234
34.709,-0.357,0.902,-0.236
34.719,-0.354,0.900,-0.232
34.729,-0.357,0.902,-0.238
34.739,-0.359,0.902,-0.234
34.749,-0.357,0.904,-0.234
34.759,-0.361,0.898,-0.234
34.769,-0.359,0.900,-0.234
34.779,-0.359,0.900,-0.232
34.788,-0.361,0.902,-0.234
34.798,-0.359,0.898,-0.232
34.808,-0.357,0.900,-0.234
34.818,-0.357,0.900,-0.234
34.828,-0.357,0.898,-0.236
34.838,-0.357,0.900,-0.232
34.848,-0.359,0.902,-0.232
34.858,-0.357,0.900,-0.230
34.868,-0.354,0.902,-0.230
34.878,-0.355,0.902,-0.230
34.888,-0.357,0.900,-0.230
34.898,-0.359,0.898,-0.230
34.908,-0.357,0.898,-0.234
34.918,-0.359,0.900,-0.234
34.928,-0.359,0.898,-0.232
34.938,-0.359,0.900,-0.234
34.947,-0.359,0.902,-0.234
34.957,-0.359,0.904,-0.230
34.967,-0.359,0.902,-0.232
34.977,-0.355,0.906,-0.234
34.987,-0.357,0.902,-0.232
34.997,-0.359,0.900,-0.230
35.007,-0.355,0.900,-0.230
35.017,-0.355,0.902,-0.232
35.027,-0.354,0.898,-0.230
35.037,-0.355,0.900,-0.230
35.047,-0.355,0.902,-0.229
35.057,-0.359,0.900,-0.230
35.067,-0.355,0.902,-0.227
35.077,-0.359,0.904,-0.230
35.087,-0.361,0.904,-0.232
35.097,-0.359,0.900,-0.230
35.106,-0.355,0.891,-0.229
35.116,-0.361,0.893,-0.232
35.126,-0.363,0.896,-0.232
35.136,-0.369,0.902,-0.229
35.146,-0.367,0.902,-0.229
35.156,-0.365,0.900,-0.234
35.166,-0.363,0.904,-0.230
35.176,-0.365,0.902,-0.232
35.186,-0.363,0.900,-0.229
35.196,-0.363,0.896,-0.229
35.206,-0.365,0.895,-0.230
35.216,-0.361,0.895,-0.232
35.226,-0.361,0.895,-0.229
35.236,-0.365,0.904,-0.232
35.246,-0.361,0.902,-0.234
35.255,-0.361,0.904,-0.230
35.265,-0.361,0.898,-0.229
35.275,-0.363,0.900,-0.230
35.285,-0.365,0.900,-0.230
35.295,-0.365,0.896,-0.230
35.305,-0.363,0.900,-0.236
35.315,-0.365,0.896,-0.230
35.325,-0.367,0.898,-0.234
35.335,-0.369,0.896,-0.232
35.345,-0.365,0.898,-0.230
35.355,-0.367,0.900,-0.230
35.365,-0.367,0.896,-0.232
35.375,-0.363,0.898,-0.232
35.385,-0.363,0.895,-0.230
35.395,-0.363,0.896,-0.234
35.405,-0.363,0.898,-0.232
35.414,-0.363,0.898,-0.230
35.424,-0.363,0.902,-0.234
35.434,-0.363,0.896,-0.232
35.444,-0.365,0.900,-0.234
35.454,-0.365,0.896,-0.234
35.464,-0.361,0.898,-0.232
35.474,-0.363,0.895,-0.238
35.484,-0.365,0.896,-0.236
35.494,-0.363,0.895,-0.236
35.504,-0.363,0.898,-0.236
35.514,-0.361,0.898,-0.234
35.524,-0.363,0.900,-0.236
35.534,-0.365,0.898,-0.236
35.544,-0.367,0.898,-0.234
35.554,-0.367,0.898,-0.234
35.563,-0.367,0.896,-0.234
35.573,-0.365,0.896,-0.234
35.583,-0.369,0.895,-0.236
35.593,-0.365,0.895,-0.234
35.603,-0.369,0.896,-0.238
35.613,-0.365,0.895,-0.234
35.623,-0.365,0.895,-0.238
35.633,-0.367,0.898,-0.236
35.643,-0.367,0.898,-0.238
35.653,-0.365,0.898,-0.236
35.663,-0.367,0.900,-0.236
35.673,-0.367,0.898,-0.238
35.683,-0.363,0.895,-0.234
35.693,-0.367,0.898,-0.234
35.703,-0.367,0.896,-0.236
35.713,-0.365,0.900,-0.234
35.722,-0.369,0.896,-0.238
35.732,-0.365,0.896,-0.238
35.742,-0.369,0.896,-0.238
35.752,-0.365,0.896,-0.238
35.762,-0.369,0.898,-0.236
35.772,-0.371,0.895,-0.238
35.782,-0.363,0.900,-0.240
35.792,-0.369,0.898,-0.238
35.802,-0.371,0.896,-0.238
35.812,-0.369,0.895,-0.234
35.822,-0.367,0.896,-0.236
35.832,-0.371,0.895,-0.238
35.842,-0.367,0.896,-0.238
35.852,-0.367,0.895,-0.236
35.862,-0.367,0.895,-0.240
35.872,-0.367,0.895,-0.240
35.881,-0.369,0.896,-0.238
35.891,-0.371,0.898,-0.236
35.901,-0.367,0.898,-0.236
35.911,-0.367,0.898,-0.236
35.921,-0.373,0.896,-0.238
35.931,-0.373,0.895,-0.236
35.941,-0.373,0.891,-0.238
35.951,-0.373,0.893,-0.234
35.961,-0.373,0.895,-0.236
35.971,-0.373,0.895,-0.238
35.981,-0.371,0.893,-0.238
35.991,-0.367,0.889,-0.240
36.001,-0.369,0.896,-0.238
36.011,-0.371,0.898,-0.240
36.021,-0.369,0.898,-0.234
36.030,-0.369,0.904,-0.238
36.040,-0.367,0.895,-0.238
36.050,-0.365,0.889,-0.238
36.060,-0.373,0.895,-0.236
36.070,-0.373,0.893,-0.238
36.080,-0.373,0.893,-0.232
36.090,-0.373,0.896,-0.236
36.100,-0.375,0.896,-0.234
36.110,-0.375,0.895,-0.238
36.120,-0.377,0.898,-0.234
36.130,-0.377,0.895,-0.236
36.140,-0.377,0.893,-0.236
36.150,-0.377,0.891,-0.238
36.160,-0.377,0.889,-0.236
36.170,-0.371,0.893,-0.236
36.180,-0.373,0.891,-0.236
36.189,-0.371,0.896,-0.238
36.199,-0.373,0.895,-0.236
36.209,-0.371,0.898,-0.240
36.219,-0.373,0.895,-0.234
36.229,-0.377,0.893,-0.234
36.239,-0.373,0.893,-0.238
36.249,-0.375,0.891,-0.236
36.259,-0.377,0.893,-0.238
36.269,-0.379,0.893,-0.238
36.279,-0.377,0.896,-0.238
36.289,-0.377,0.900,-0.240
36.299,-0.377,0.889,-0.234
36.309,-0.371,0.895,-0.238
36.319,-0.373,0.889,-0.236
36.329,-0.375,0.885,-0.238
36.339,-0.369,0.893,-0.238
36.348,-0.371,0.895,-0.236
36.358,-0.375,0.896,-0.236
36.368,-0.369,0.898,-0.238
36.378,-0.371,0.898,-0.236
36.388,-0.371,0.895,-0.240
36.398,-0.373,0.891,-0.238
36.408,-0.369,0.895,-0.236
36.418,-0.371,0.893,-0.242
36.428,-0.373,0.891,-0.244
36.438,-0.371,0.893,-0.242
36.448,-0.371,0.895,-0.242
36.458,-0.371,0.895,-0.242
36.468,-0.375,0.898,-0.242
36.478,-0.375,0.896,-0.242
36.488,-0.373,0.896,-0.242
36.497,-0.375,0.896,-0.240
36.507,-0.377,0.891,-0.238
36.517,-0.375,0.891,-0.244
36.527,-0.375,0.893,-0.238
36.537,-0.373,0.893,-0.238
36.547,-0.373,0.893,-0.242
36.557,-0.375,0.889,-0.240
36.567,-0.373,0.889,-0.240
36.577,-0.377,0.891,-0.238
36.587,-0.375,0.891,-0.238
36.597,-0.373,0.891,-0.238
36.607,-0.375,0.895,-0.238
36.617,-0.373,0.889,-0.238
36.627,-0.373,0.893,-0.236
36.637,-0.375,0.895,-0.238
36.647,-0.377,0.893,-0.236
36.656,-0.377,0.893,-0.242
36.666,-0.379,0.893,-0.240
36.676,-0.377,0.891,-0.238
36.686,-0.375,0.891,-0.238
36.696,-0.377,0.893,-0.236
36.706,-0.375,0.889,-0.238
36.716,-0.375,0.891,-0.238
36.726,-0.379,0.895,-0.236
36.736,-0.375,0.896,-0.240
36.746,-0.379,0.889,-0.240
36.756,-0.377,0.895,-0.238
36.766,-0.373,0.895,-0.238
36.776,-0.375,0.893,-0.238
36.786,-0.379,0.891,-0.240
36.796,-0.375,0.891,-0.238
36.806,-0.375,0.896,-0.238
36.815,-0.375,0.895,-0.242
36.825,-0.377,0.889,-0.242
36.835,-0.375,0.887,-0.236
36.845,-0.375,0.885,-0.236
36.855,-0.373,0.895,-0.236
36.865,-0.371,0.895,-0.240
36.875,-0.373,0.895,-0.236
36.885,-0.373,0.900,-0.238
36.895,-0.371,0.893,-0.240
36.905,-0.373,0.891,-0.242
36.915,-0.377,0.893,-0.238
36.925,-0.385,0.895,-0.238
36.935,-0.381,0.895,-0.238
36.945,-0.379,0.893,-0.240
36.955,-0.379,0.893,-0.240
36.964,-0.381,0.895,-0.238
36.974,-0.379,0.895,-0.236
36.984,-0.377,0.893,-0.234
36.994,-0.377,0.889,-0.240
37.004,-0.379,0.889,-0.234
37.014,-0.377,0.887,-0.238
37.024,-0.379,0.891,-0.240
37.034,-0.379,0.891,-0.236
37.044,-0.379,0.891,-0.236
37.054,-0.377,0.895,-0.238
37.064,-0.377,0.893,-0.234
37.074,-0.379,0.891,-0.236
37.084,-0.381,0.891,-0.238
37.094,-0.379,0.893,-0.240
37.104,-0.381,0.893,-0.242
37.114,-0.383,0.891,-0.240
37.123,-0.381,0.889,-0.236
37.133,-0.381,0.891,-0.234
37.143,-0.379,0.898,-0.240
37.153,-0.377,0.893,-0.238
37.163,-0.369,0.895,-0.236
37.173,-0.373,0.889,-0.242
37.183,-0.375,0.875,-0.238
37.193,-0.375,0.893,-0.240
37.203,-0.377,0.900,-0.242
37.213,-0.377,0.898,-0.238
37.223,-0.375,0.895,-0.238
37.233,-0.373,0.895,-0.240
37.243,-0.377,0.896,-0.240
37.253,-0.373,0.893,-0.240
37.263,-0.373,0.891,-0.244
37.273,-0.373,0.887,-0.240
37.282,-0.375,0.891,-0.240
37.292,-0.371,0.891,-0.244
37.302,-0.377,0.895,-0.242
37.312,-0.373,0.893,-0.240
37.322,-0.373,0.896,-0.242
37.332,-0.375,0.895,-0.242
37.342,-0.377,0.895,-0.238
37.352,-0.375,0.898,-0.242
37.362,-0.377,0.895,-0.240
37.372,-0.375,0.891,-0.240
37.382,-0.377,0.893,-0.238
37.392,-0.377,0.893,-0.244
37.402,-0.371,0.891,-0.238
37.412,-0.373,0.891,-0.244
37.422,-0.373,0.893,-0.242
37.431,-0.375,0.891,-0.240
37.441,-0.377,0.893,-0.240
37.451,-0.381,0.891,-0.242
37.461,-0.383,0.895,-0.240
37.471,-0.379,0.891,-0.238
37.481,-0.381,0.889,-0.238
37.491,-0.379,0.889,-0.238
37.501,-0.379,0.891,-0.238
37.511,-0.379,0.891,-0.240
37.521,-0.381,0.889,-0.236
37.531,-0.379,0.891,-0.238
37.541,-0.381,0.891,-0.240
37.551,-0.379,0.891,-0.236
37.561,-0.383,0.893,-0.238
37.571,-0.383,0.891,-0.240
37.581,-0.381,0.891,-0.240
37.590,-0.383,0.889,-0.240
37.600,-0.377,0.891,-0.236
37.610,-0.381,0.895,-0.238
37.620,-0.379,0.889,-0.236
37.630,-0.377,0.891,-0.238
37.640,-0.377,0.889,-0.234
37.650,-0.379,0.889,-0.238
37.660,-0.377,0.895,-0.238
37.670,-0.379,0.893,-0.240
37.680,-0.379,0.895,-0.236
37.690,-0.377,0.891,-0.238
37.700,-0.381,0.891,-0.240
37.710,-0.385,0.893,-0.238
37.720,-0.385,0.895,-0.238
37.730,-0.385,0.895,-0.236
37.739,-0.381,0.895,-0.238
37.749,-0.385,0.889,-0.234
37.759,-0.381,0.891,-0.242
37.769,-0.381,0.891,-0.238
37.779,-0.379,0.889,-0.240
37.789,-0.383,0.889,-0.234
37.799,-0.381,0.891,-0.236
37.809,-0.379,0.889,-0.238
37.819,-0.379,0.891,-0.236
37.829,-0.381,0.893,-0.236
37.839,-0.383,0.893,-0.238
37.849,-0.385,0.895,-0.236
37.859,-0.383,0.895,-0.234
37.869,-0.387,0.891,-0.232
37.879,-0.389,0.889,-0.236
37.889,-0.383,0.889,-0.234
37.898,-0.385,0.887,-0.236
37.908,-0.385,0.891,-0.234
37.918,-0.389,0.893,-0.236
37.928,-0.387,0.889,-0.232
37.938,-0.381,0.896,-0.230
37.948,-0.379,0.893,-0.240
37.958,-0.379,0.885,-0.230
37.968,-0.377,0.893,-0.238
37.978,-0.383,0.885,-0.234
37.988,-0.379,0.885,-0.236
37.998,-0.385,0.895,-0.238
38.008,-0.385,0.895,-0.236
38.018,-0.383,0.896,-0.238
38.028,-0.383,0.896,-0.236
38.038,-0.383,0.891,-0.234
38.048,-0.383,0.891,-0.236
38.057,-0.383,0.891,-0.236
38.067,-0.381,0.891,-0.236
38.077,-0.383,0.887,-0.238
38.087,-0.379,0.891,-0.232
38.097,-0.381,0.893,-0.240
38.107,-0.383,0.889,-0.236
38.117,-0.385,0.891,-0.242
38.127,-0.389,0.893,-0.236
38.137,-0.385,0.891,-0.236
38.147,-0.387,0.895,-0.236
38.157,-0.387,0.891,-0.234
38.167,-0.387,0.891,-0.236
38.177,-0.387,0.891,-0.236
38.187,-0.385,0.887,-0.238
38.197,-0.387,0.889,-0.238
38.206,-0.387,0.891,-0.238
38.216,-0.385,0.895,-0.238
38.226,-0.385,0.889,-0.238
38.236,-0.387,0.887,-0.238
38.246,-0.389,0.893,-0.238
38.256,-0.391,0.891,-0.238
38.266,-0.387,0.895,-0.236
38.276,-0.393,0.889,-0.242
38.286,-0.400,0.893,-0.234
38.296,-0.393,0.895,-0.238
38.306,-0.387,0.891,-0.240
38.316,-0.385,0.889,-0.232
38.326,-0.389,0.891,-0.234
38.336,-0.387,0.889,-0.234
38.346,-0.387,0.893,-0.232
38.356,-0.389,0.893,-0.236
38.365,-0.387,0.895,-0.229
38.375,-0.387,0.891,-0.230
38.385,-0.387,0.895,-0.230
38.395,-0.385,0.893,-0.229
38.405,-0.389,0.893,-0.227
38.415,-0.391,0.887,-0.227
38.425,-0.391,0.893,-0.229
38.435,-0.393,0.891,-0.227
38.445,-0.395,0.887,-0.229
38.455,-0.398,0.887,-0.227
38.465,-0.396,0.883,-0.227
38.475,-0.396,0.887,-0.229
38.485,-0.400,0.893,-0.229
38.495,-0.404,0.893,-0.227
38.505,-0.400,0.896,-0.227
38.515,-0.400,0.896,-0.225
38.524,-0.398,0.889,-0.225
38.534,-0.402,0.889,-0.225
38.544,-0.404,0.889,-0.225
38.554,-0.408,0.889,-0.221
38.564,-0.404,0.895,-0.219
38.574,-0.408,0.893,-0.215
38.584,-0.410,0.891,-0.217
38.594,-0.408,0.885,-0.215
38.604,-0.406,0.875,-0.217
38.614,-0.408,0.875,-0.219
38.624,-0.416,0.875,-0.217
38.634,-0.420,0.883,-0.217
38.644,-0.420,0.883,-0.215
38.654,-0.422,0.879,-0.213
38.664,-0.426,0.881,-0.217
38.673,-0.426,0.881,-0.221
38.683,-0.426,0.881,-0.215
38.693,-0.426,0.881,-0.217
38.703,-0.426,0.879,-0.213
38.713,-0.432,0.879,-0.213
38.723,-0.434,0.881,-0.221
38.733,-0.436,0.879,-0.221
38.743,-0.439,0.879,-0.215
38.753,-0.436,0.881,-0.217
38.763,-0.436,0.873,-0.217
38.773,-0.434,0.883,-0.219
38.783,-0.432,0.877,-0.217
38.793,-0.426,0.877,-0.215
38.803,-0.428,0.879,-0.219
38.813,-0.436,0.867,-0.219
38.823,-0.441,0.881,-0.213
38.832,-0.443,0.877,-0.217
38.842,-0.438,0.875,-0.211
38.852,-0.436,0.875,-0.211
38.862,-0.436,0.873,-0.213
38.872,-0.439,0.879,-0.213
38.882,-0.438,0.875,-0.211
38.892,-0.439,0.875,-0.209
38.902,-0.438,0.865,-0.211
38.912,-0.438,0.869,-0.209
38.922,-0.441,0.873,-0.211
38.932,-0.447,0.867,-0.213
38.942,-0.449,0.873,-0.213
38.952,-0.447,0.877,-0.211
38.962,-0.447,0.875,-0.211
38.972,-0.445,0.873,-0.209
38.982,-0.443,0.879,-0.211
38.991,-0.449,0.881,-0.215
39.001,-0.443,0.877,-0.213
39.011,-0.439,0.873,-0.213
39.021,-0.441,0.875,-0.211
39.031,-0.445,0.881,-0.211
39.041,-0.445,0.877,-0.215
39.051,-0.443,0.873,-0.211
39.061,-0.443,0.883,-0.211
39.071,-0.445,0.883,-0.215
39.081,-0.445,0.873,-0.211
39.091,-0.439,0.875,-0.209
39.101,-0.441,0.873,-0.211
39.111,-0.445,0.871,-0.207
39.121,-0.439,0.873,-0.209
39.131,-0.439,0.871,-0.211
39.140,-0.445,0.879,-0.211
39.150,-0.447,0.871,-0.203
39.160,-0.451,0.869,-0.215
39.170,-0.447,0.863,-0.209
39.180,-0.449,0.871,-0.209
39.190,-0.455,0.877,-0.211
39.200,-0.453,0.881,-0.213
39.210,-0.453,0.875,-0.209
39.220,-0.453,0.877,-0.213
39.230,-0.457,0.875,-0.205
39.240,-0.459,0.875,-0.209
39.250,-0.459,0.877,-0.209
39.260,-0.455,0.875,-0.205
39.270,-0.453,0.865,-0.207
39.280,-0.455,0.875,-0.207
39.290,-0.463,0.869,-0.207
39.299,-0.449,0.861,-0.207
39.309,-0.451,0.871,-0.205
39.319,-0.463,0.879,-0.207
39.329,-0.463,0.869,-0.207
39.339,-0.457,0.875,-0.209
39.349,-0.461,0.875,-0.205
39.359,-0.461,0.867,-0.203
39.369,-0.459,0.881,-0.205
39.379,-0.459,0.875,-0.205
39.389,-0.467,0.869,-0.205
39.399,-0.465,0.885,-0.205
39.409,-0.459,0.875,-0.203
39.419,-0.459,0.871,-0.201
39.429,-0.463,0.869,-0.205
39.439,-0.469,0.875,-0.201
39.449,-0.463,0.873,-0.201
39.458,-0.455,0.877,-0.201
39.468,-0.453,0.881,-0.201
39.478,-0.457,0.871,-0.199
39.488,-0.461,0.869,-0.199
39.498,-0.457,0.871,-0.201
39.508,-0.461,0.885,-0.197
39.518,-0.463,0.871,-0.197
39.528,-0.459,0.873,-0.195
39.538,-0.459,0.891,-0.199
39.548,-0.457,0.881,-0.197
39.558,-0.455,0.885,-0.195
39.568,-0.457,0.887,-0.191
39.578,-0.459,0.891,-0.189
39.588,-0.457,0.885,-0.189
39.598,-0.455,0.873,-0.195
39.607,-0.451,0.885,-0.189
39.617,-0.453,0.893,-0.193
39.627,-0.449,0.877,-0.191
39.637,-0.445,0.863,-0.186
39.647,-0.453,0.889,-0.186
39.657,-0.467,0.893,-0.184
39.667,-0.461,0.895,-0.180
39.677,-0.459,0.902,-0.178
39.687,-0.455,0.889,-0.176
39.697,-0.451,0.877,-0.180
39.707,-0.447,0.889,-0.180
39.717,-0.451,0.895,-0.178
39.727,-0.439,0.881,-0.180
39.737,-0.438,0.891,-0.178
39.747,-0.439,0.887,-0.176
39.757,-0.447,0.877,-0.178
39.766,-0.451,0.877,-0.180
39.776,-0.445,0.883,-0.180
39.786,-0.447,0.893,-0.178
39.796,-0.436,0.891,-0.178
39.806,-0.428,0.893,-0.178
39.816,-0.424,0.910,-0.180
39.826,-0.418,0.896,-0.176
39.836,-0.414,0.896,-0.174
39.846,-0.418,0.908,-0.172
39.856,-0.422,0.896,-0.172
39.866,-0.420,0.879,-0.168
39.876,-0.420,0.881,-0.168
39.886,-0.424,0.889,-0.166
39.896,-0.424,0.893,-0.168
39.906,-0.422,0.893,-0.168
39.915,-0.414,0.895,-0.162
39.925,-0.424,0.893,-0.162
39.935,-0.438,0.895,-0.158
39.945,-0.447,0.893,-0.162
39.955,-0.447,0.893,-0.160
39.965,-0.438,0.891,-0.160
39.975,-0.432,0.893,-0.156
39.985,-0.434,0.902,-0.152
39.995,-0.436,0.902,-0.154
40.005,-0.434,0.895,-0.154
40.015,-0.432,0.889,-0.152
40.025,-0.430,0.885,-0.150
40.035,-0.436,0.885,-0.145
40.045,-0.441,0.883,-0.146
40.055,-0.449,0.889,-0.148
40.065,-0.471,0.883,-0.141
40.074,-0.479,0.869,-0.154
40.084,-0.457,0.873,-0.154
40.094,-0.432,0.869,-0.150
40.104,-0.441,0.875,-0.158
40.114,-0.469,0.869,-0.160
40.124,-0.502,0.852,-0.156
40.134,-0.496,0.848,-0.172
40.144,-0.469,0.867,-0.164
40.154,-0.480,0.873,-0.176
40.164,-0.482,0.883,-0.176
40.174,-0.488,0.883,-0.191
40.184,-0.480,0.877,-0.189
40.194,-0.479,0.865,-0.184
40.204,-0.490,0.871,-0.191
40.214,-0.506,0.883,-0.184
40.224,-0.502,0.879,-0.193
40.233,-0.502,0.871,-0.182
40.243,-0.504,0.865,-0.189
40.253,-0.506,0.863,-0.186
40.263,-0.494,0.857,-0.184
40.273,-0.488,0.850,-0.178
40.283,-0.508,0.854,-0.184
40.293,-0.498,0.848,-0.186
40.303,-0.498,0.848,-0.184
40.313,-0.494,0.855,-0.184
40.323,-0.508,0.875,-0.172
40.333,-0.510,0.879,-0.178
40.343,-0.514,0.861,-0.170
40.353,-0.520,0.859,-0.172
40.363,-0.510,0.867,-0.176
40.373,-0.516,0.887,-0.174
40.382,-0.525,0.895,-0.184
40.392,-0.531,0.889,-0.191
40.402,-0.539,0.889,-0.182
40.412,-0.518,0.875,-0.182
40.422,-0.504,0.869,-0.172
40.432,-0.521,0.885,-0.176
40.442,-0.506,0.877,-0.180
40.452,-0.496,0.889,-0.182
40.462,-0.504,0.883,-0.172
40.472,-0.471,0.881,-0.174
40.482,-0.473,0.893,-0.162
40.492,-0.492,0.896,-0.172
40.502,-0.475,0.889,-0.160
40.512,-0.484,0.871,-0.162
40.522,-0.484,0.865,-0.160
40.532,-0.459,0.852,-0.162
40.541,-0.438,0.861,-0.160
40.551,-0.438,0.879,-0.160
40.561,-0.447,0.877,-0.162
40.571,-0.457,0.867,-0.158
40.581,-0.494,0.850,-0.156
40.591,-0.502,0.836,-0.154
40.601,-0.494,0.842,-0.156
40.611,-0.490,0.855,-0.143
40.621,-0.496,0.855,-0.127
40.631,-0.482,0.861,-0.125
40.641,-0.447,0.855,-0.127
40.651,-0.389,0.867,-0.117
40.661,-0.623,0.895,-0.059
40.671,-0.691,0.859,-0.102
40.681,-0.523,0.828,-0.092
40.691,-0.412,0.799,-0.072
40.700,-0.420,0.840,-0.070
40.710,-0.449,0.889,-0.074
40.720,-0.467,0.904,-0.072
40.730,-0.477,0.904,-0.072
40.740,-0.482,0.910,-0.068
40.750,-0.500,0.891,-0.061
40.760,-0.498,0.861,-0.051
40.770,-0.506,0.854,-0.037
40.780,-0.516,0.863,-0.035
40.790,-0.479,0.877,-0.027
40.800,-0.438,0.885,-0.004
40.810,-0.414,0.893,-0.004
40.820,-0.383,0.873,-0.031
40.830,-0.412,0.838,0.027
40.840,-0.496,0.840,-0.004
40.849,-0.506,0.861,0.012
40.859,-0.496,0.863,0.004
40.869,-0.482,0.887,0.006
40.879,-0.471,0.908,0.006
40.889,-0.459,0.891,0.002
40.899,-0.451,0.887,0.006
40.909,-0.469,0.873,0.014
40.919,-0.486,0.879,0.018
40.929,-0.494,0.893,0.012
40.939,-0.488,0.879,0.010
40.949,-0.482,0.869,0.018
40.959,-0.482,0.857,0.016
40.969,-0.508,0.828,0.020
40.979,-0.533,0.826,0.025
40.989,-0.539,0.867,0.031
40.999,-0.541,0.887,0.037
41.008,-0.547,0.891,0.045
41.018,-0.553,0.865,0.051
41.028,-0.555,0.836,0.053
41.038,-0.568,0.842,0.043
41.048,-0.584,0.852,0.047
41.058,-0.590,0.859,0.051
41.068,-0.590,0.877,0.059
41.078,-0.588,0.914,0.074
41.088,-0.576,0.926,0.084
41.098,-0.574,0.895,0.092
41.108,-0.586,0.857,0.096
41.118,-0.596,0.854,0.096
41.128,-0.598,0.857,0.107
41.138,-0.596,0.863,0.111
41.148,-0.598,0.867,0.115
41.158,-0.607,0.887,0.133
41.167,-0.611,0.904,0.139
41.177,-0.627,0.910,0.150
41.187,-0.639,0.914,0.154
41.197,-0.646,0.938,0.164
41.207,-0.646,0.941,0.180
41.217,-0.646,0.918,0.188
41.227,-0.646,0.889,0.195
41.237,-0.645,0.861,0.209
41.247,-0.631,0.844,0.215
41.257,-0.623,0.832,0.223
41.267,-0.625,0.818,0.232
41.277,-0.633,0.799,0.238
41.287,-0.633,0.793,0.227
41.297,-0.631,0.785,0.230
41.307,-0.627,0.766,0.230
41.316,-0.623,0.740,0.236
41.326,-0.629,0.736,0.229
41.336,-0.639,0.734,0.240
41.346,-0.641,0.713,0.250
41.356,-0.648,0.701,0.264
41.366,-0.654,0.695,0.271
41.376,-0.670,0.697,0.285
41.386,-0.680,0.703,0.287
41.396,-0.691,0.693,0.297
41.406,-0.715,0.701,0.297
41.416,-0.738,0.729,0.295
41.426,-0.750,0.729,0.301
41.436,-0.762,0.723,0.287
41.446,-0.785,0.740,0.283
41.456,-0.789,0.770,0.285
41.466,-0.783,0.795,0.283
41.475,-0.787,0.793,0.277
41.485,-0.801,0.781,0.266
41.495,-0.818,0.777,0.250
41.505,-0.822,0.783,0.230
41.515,-0.830,0.797,0.217
41.525,-0.820,0.816,0.199
41.535,-0.795,0.840,0.184
41.545,-0.771,0.873,0.160
41.555,-0.742,0.910,0.145
41.565,-0.721,0.955,0.119
41.575,-0.695,0.979,0.100
41.585,-0.676,0.973,0.074
41.595,-0.672,0.953,0.066
41.605,-0.654,0.932,0.055
41.615,-0.627,0.895,0.053
41.625,-0.615,0.871,0.041
41.634,-0.600,0.857,0.029
41.644,-0.590,0.836,0.021
41.654,-0.580,0.818,0.018
41.664,-0.564,0.826,0.004
41.674,-0.545,0.838,-0.002
41.684,-0.531,0.842,-0.010
41.694,-0.510,0.826,-0.021
41.704,-0.494,0.801,-0.037
41.714,-0.486,0.807,-0.055
41.724,-0.479,0.811,-0.066
41.734,-0.457,0.811,-0.076
41.744,-0.453,0.807,-0.080
41.754,-0.447,0.820,-0.094
41.764,-0.438,0.832,-0.100
41.774,-0.428,0.840,-0.109
41.783,-0.432,0.854,-0.121
41.793,-0.422,0.861,-0.131
41.803,-0.410,0.869,-0.137
41.813,-0.414,0.881,-0.143
41.823,-0.414,0.877,-0.158
41.833,-0.402,0.877,-0.164
41.843,-0.396,0.873,-0.176
41.853,-0.396,0.861,-0.188
41.863,-0.393,0.877,-0.195
41.873,-0.383,0.877,-0.201
41.883,-0.385,0.867,-0.211
41.893,-0.389,0.883,-0.215
41.903,-0.395,0.889,-0.219
41.913,-0.395,0.887,-0.225
41.923,-0.385,0.881,-0.227
41.933,-0.387,0.889,-0.232
41.942,-0.396,0.904,-0.234
41.952,-0.385,0.898,-0.236
41.962,-0.379,0.898,-0.221
41.972,-0.393,0.896,-0.219
41.982,-0.396,0.896,-0.223
41.992,-0.400,0.887,-0.225
42.002,-0.387,0.869,-0.223
42.012,-0.385,0.867,-0.229
42.022,-0.377,0.875,-0.227
42.032,-0.369,0.883,-0.230
42.042,-0.367,0.885,-0.232
42.052,-0.363,0.887,-0.232
42.062,-0.359,0.881,-0.234
42.072,-0.355,0.877,-0.234
42.082,-0.357,0.887,-0.244
42.091,-0.359,0.895,-0.244
42.101,-0.357,0.900,-0.244
42.111,-0.357,0.908,-0.236
42.121,-0.350,0.928,-0.242
42.131,-0.340,0.930,-0.240
42.141,-0.338,0.930,-0.242
42.151,-0.334,0.932,-0.242
42.161,-0.322,0.936,-0.238
42.171,-0.307,0.936,-0.234
42.181,-0.295,0.939,-0.230
42.191,-0.287,0.939,-0.230
42.201,-0.281,0.936,-0.236
42.211,-0.281,0.928,-0.238
42.221,-0.271,0.926,-0.232
42.231,-0.262,0.922,-0.230
42.241,-0.254,0.922,-0.227
42.250,-0.252,0.928,-0.225
42.260,-0.248,0.934,-0.225
42.270,-0.242,0.924,-0.225
42.280,-0.234,0.908,-0.225
42.290,-0.232,0.912,-0.225
42.300,-0.230,0.910,-0.229
42.310,-0.229,0.910,-0.227
42.320,-0.229,0.914,-0.234
42.330,-0.232,0.924,-0.242
42.340,-0.238,0.939,-0.244
42.350,-0.232,0.939,-0.254
42.360,-0.223,0.945,-0.252
42.370,-0.217,0.947,-0.252
42.380,-0.213,0.953,-0.256
42.390,-0.203,0.941,-0.258
42.400,-0.201,0.939,-0.262
42.409,-0.211,0.953,-0.271
42.419,-0.201,0.980,-0.279
42.429,-0.189,0.984,-0.281
42.439,-0.174,0.977,-0.289
42.449,-0.162,0.965,-0.297
42.459,-0.148,0.955,-0.299
42.469,-0.145,0.949,-0.305
42.479,-0.139,0.930,-0.312
42.489,-0.139,0.916,-0.309
42.499,-0.139,0.920,-0.312
42.509,-0.135,0.910,-0.314
42.519,-0.127,0.896,-0.314
42.529,-0.127,0.891,-0.322
42.539,-0.129,0.883,-0.330
42.549,-0.123,0.889,-0.332
42.558,-0.117,0.893,-0.338
42.568,-0.111,0.885,-0.346
42.578,-0.105,0.885,-0.352
42.588,-0.102,0.883,-0.359
42.598,-0.109,0.887,-0.367
42.608,-0.117,0.898,-0.371
42.618,-0.115,0.896,-0.367
42.628,-0.113,0.900,-0.369
42.638,-0.117,0.916,-0.369
42.648,-0.125,0.924,-0.373
42.658,-0.125,0.916,-0.371
42.668,-0.123,0.910,-0.371
42.678,-0.131,0.914,-0.367
42.688,-0.135,0.912,-0.363
42.698,-0.145,0.916,-0.359
42.708,-0.148,0.924,-0.355
42.717,-0.162,0.926,-0.354
42.727,-0.166,0.926,-0.348
42.737,-0.164,0.918,-0.340
42.747,-0.160,0.918,-0.336
42.757,-0.164,0.914,-0.336
42.767,-0.168,0.918,-0.334
42.777,-0.178,0.926,-0.328
42.787,-0.186,0.939,-0.324
42.797,-0.193,0.941,-0.318
42.807,-0.201,0.947,-0.314
42.817,-0.203,0.939,-0.312
42.827,-0.203,0.934,-0.305
42.837,-0.211,0.939,-0.305
42.847,-0.217,0.943,-0.301
42.857,-0.217,0.941,-0.295
42.867,-0.219,0.941,-0.295
42.876,-0.225,0.953,-0.295
42.886,-0.229,0.959,-0.293
42.896,-0.229,0.959,-0.283
42.906,-0.230,0.961,-0.281
42.916,-0.230,0.951,-0.277
42.926,-0.225,0.943,-0.268
42.936,-0.221,0.936,-0.268
42.946,-0.225,0.934,-0.268
42.956,-0.221,0.922,-0.268
42.966,-0.225,0.916,-0.260
42.976,-0.223,0.916,-0.258
42.986,-0.213,0.918,-0.250
42.996,-0.219,0.916,-0.240
43.006,-0.217,0.922,-0.238
43.016,-0.197,0.939,-0.232
43.025,-0.188,0.932,-0.227
43.035,-0.186,0.910,-0.219
43.045,-0.189,0.918,-0.219
43.055,-0.186,0.922,-0.215
43.065,-0.188,0.924,-0.211
43.075,-0.188,0.920,-0.209
43.085,-0.182,0.898,-0.199
43.095,-0.184,0.893,-0.191
43.105,-0.193,0.912,-0.193
43.115,-0.188,0.914,-0.188
43.125,-0.180,0.895,-0.176
43.135,-0.170,0.896,-0.174
43.145,-0.174,0.912,-0.172
43.155,-0.174,0.916,-0.168
43.165,-0.180,0.936,-0.166
43.175,-0.184,0.955,-0.162
43.184,-0.186,0.959,-0.158
43.194,-0.184,0.951,-0.154
43.204,-0.184,0.941,-0.150
43.214,-0.184,0.932,-0.154
43.224,-0.193,0.938,-0.152
43.234,-0.209,0.947,-0.164
43.244,-0.217,0.951,-0.162
43.254,-0.229,0.943,-0.162
43.264,-0.242,0.963,-0.174
43.274,-0.242,0.977,-0.176
43.284,-0.248,0.977,-0.174
43.294,-0.250,0.967,-0.182
43.304,-0.254,0.965,-0.186
43.314,-0.252,0.963,-0.191
43.324,-0.258,0.965,-0.197
43.334,-0.264,0.955,-0.199
43.343,-0.260,0.941,-0.203
43.353,-0.258,0.932,-0.205
43.363,-0.260,0.934,-0.211
43.373,-0.270,0.936,-0.219
43.383,-0.273,0.941,-0.221
43.393,-0.266,0.951,-0.232
43.403,-0.260,0.963,-0.234
43.413,-0.264,0.980,-0.244
43.423,-0.258,0.979,-0.248
43.433,-0.250,0.959,-0.242
43.443,-0.254,0.947,-0.242
43.453,-0.256,0.938,-0.246
43.463,-0.256,0.934,-0.250
43.473,-0.258,0.938,-0.244
43.483,-0.258,0.920,-0.242
43.492,-0.252,0.902,-0.244
43.502,-0.254,0.898,-0.248
43.512,-0.254,0.893,-0.250
43.522,-0.250,0.879,-0.252
43.532,-0.252,0.879,-0.248
43.542,-0.264,0.883,-0.258
43.552,-0.258,0.875,-0.256
43.562,-0.252,0.871,-0.256
43.572,-0.266,0.863,-0.262
43.582,-0.277,0.857,-0.268
43.592,-0.289,0.859,-0.264
43.602,-0.299,0.873,-0.270
43.612,-0.307,0.883,-0.270
43.622,-0.312,0.885,-0.270
43.632,-0.320,0.891,-0.270
43.642,-0.334,0.898,-0.271
43.651,-0.338,0.895,-0.266
43.661,-0.334,0.887,-0.270
43.671,-0.332,0.881,-0.266
43.681,-0.342,0.875,-0.266
43.691,-0.354,0.879,-0.270
43.701,-0.367,0.887,-0.268
43.711,-0.389,0.889,-0.270
43.721,-0.396,0.896,-0.266
43.731,-0.412,0.916,-0.266
43.741,-0.430,0.928,-0.268
43.751,-0.439,0.939,-0.273
43.761,-0.434,0.945,-0.270
43.771,-0.420,0.945,-0.260
43.781,-0.416,0.945,-0.260
43.791,-0.412,0.938,-0.252
43.801,-0.414,0.932,-0.238
43.810,-0.410,0.926,-0.230
43.820,-0.402,0.914,-0.219
43.830,-0.396,0.910,-0.217
43.840,-0.396,0.918,-0.213
43.850,-0.393,0.924,-0.211
43.860,-0.395,0.922,-0.209
43.870,-0.398,0.912,-0.199
43.880,-0.402,0.914,-0.195
43.890,-0.404,0.912,-0.184
43.900,-0.398,0.902,-0.184
43.910,-0.396,0.896,-0.170
43.920,-0.395,0.883,-0.162
43.930,-0.398,0.881,-0.158
43.940,-0.393,0.898,-0.162
43.950,-0.383,0.896,-0.158
43.959,-0.385,0.889,-0.152
43.969,-0.395,0.898,-0.156
43.979,-0.396,0.900,-0.148
43.989,-0.406,0.898,-0.148
43.999,-0.404,0.891,-0.148
44.009,-0.406,0.883,-0.141
44.019,-0.408,0.879,-0.141
44.029,-0.398,0.883,-0.143
44.039,-0.402,0.883,-0.145
44.049,-0.406,0.881,-0.139
44.059,-0.410,0.881,-0.143
44.069,-0.414,0.887,-0.145
44.079,-0.416,0.887,-0.148
44.089,-0.420,0.881,-0.143
44.099,-0.424,0.885,-0.146
44.109,-0.426,0.891,-0.146
44.118,-0.426,0.895,-0.148
44.128,-0.430,0.900,-0.150
44.138,-0.424,0.902,-0.150
44.148,-0.432,0.908,-0.150
44.158,-0.432,0.910,-0.154
44.168,-0.439,0.914,-0.158
44.178,-0.434,0.920,-0.154
44.188,-0.436,0.920,-0.156
44.198,-0.438,0.918,-0.156
44.208,-0.439,0.918,-0.160
44.218,-0.439,0.922,-0.164
44.228,-0.438,0.918,-0.164
44.238,-0.436,0.916,-0.168
44.248,-0.428,0.912,-0.162
44.258,-0.434,0.912,-0.166
44.268,-0.432,0.914,-0.168
44.277,-0.422,0.908,-0.168
44.287,-0.424,0.902,-0.162
44.297,-0.426,0.904,-0.160
44.307,-0.410,0.895,-0.162
44.317,-0.404,0.891,-0.164
44.327,-0.402,0.887,-0.166
44.337,-0.412,0.881,-0.172
44.347,-0.410,0.869,-0.174
44.357,-0.400,0.867,-0.170
44.367,-0.404,0.869,-0.170
44.377,-0.402,0.867,-0.170
44.387,-0.398,0.873,-0.176
44.397,-0.400,0.873,-0.176
44.407,-0.404,0.873,-0.178
44.417,-0.404,0.873,-0.184
44.426,-0.400,0.875,-0.186
44.436,-0.402,0.875,-0.191
44.446,-0.406,0.873,-0.191
44.456,-0.414,0.879,-0.193
44.466,-0.416,0.881,-0.201
44.476,-0.418,0.885,-0.199
44.486,-0.434,0.904,-0.201
44.496,-0.443,0.902,-0.207
44.506,-0.438,0.893,-0.207
44.516,-0.434,0.893,-0.209
44.526,-0.445,0.900,-0.211
44.536,-0.436,0.896,-0.217
44.546,-0.441,0.904,-0.211
44.556,-0.441,0.910,-0.209
44.566,-0.447,0.906,-0.201
44.576,-0.453,0.906,-0.205
44.585,-0.447,0.906,-0.197
44.595,-0.453,0.908,-0.201
44.605,-0.447,0.900,-0.201
44.615,-0.443,0.887,-0.195
44.625,-0.467,0.875,-0.201
44.635,-0.453,0.883,-0.193
44.645,-0.482,0.885,-0.189
44.655,-0.479,0.873,-0.195
44.665,-0.463,0.883,-0.178
44.675,-0.482,0.877,-0.186
44.685,-0.488,0.861,-0.186
44.695,-0.482,0.855,-0.178
44.705,-0.484,0.844,-0.182
44.715,-0.482,0.838,-0.178
44.725,-0.486,0.834,-0.180
44.734,-0.492,0.832,-0.174
44.744,-0.512,0.830,-0.186
44.754,-0.502,0.834,-0.189
44.764,-0.500,0.838,-0.189
44.774,-0.508,0.848,-0.193
44.784,-0.500,0.846,-0.197
44.794,-0.500,0.857,-0.197
44.804,-0.504,0.855,-0.209
44.814,-0.500,0.859,-0.207
44.824,-0.492,0.877,-0.209
44.834,-0.484,0.883,-0.209
44.844,-0.475,0.883,-0.211
44.854,-0.480,0.893,-0.207
44.864,-0.479,0.891,-0.209
44.874,-0.484,0.891,-0.189
44.884,-0.482,0.891,-0.199
44.893,-0.482,0.883,-0.189
44.903,-0.488,0.873,-0.184
44.913,-0.486,0.875,-0.178
44.923,-0.496,0.873,-0.166
44.933,-0.502,0.861,-0.162
44.943,-0.498,0.855,-0.158
44.953,-0.508,0.848,-0.148
44.963,-0.518,0.840,-0.143
44.973,-0.521,0.840,-0.141
44.983,-0.529,0.840,-0.135
44.993,-0.521,0.840,-0.123
45.003,-0.525,0.838,-0.117
45.013,-0.531,0.838,-0.117
45.023,-0.529,0.826,-0.115
45.033,-0.539,0.824,-0.107
45.043,-0.551,0.824,-0.111
45.052,-0.553,0.824,-0.104
45.062,-0.561,0.840,-0.102
45.072,-0.566,0.838,-0.104
45.082,-0.562,0.840,-0.100
45.092,-0.564,0.840,-0.100
45.102,-0.566,0.846,-0.098
45.112,-0.564,0.846,-0.094
45.122,-0.564,0.850,-0.096
45.132,-0.570,0.855,-0.090
45.142,-0.572,0.861,-0.090
45.152,-0.578,0.854,-0.090
45.162,-0.580,0.850,-0.086
45.172,-0.574,0.842,-0.086
45.182,-0.572,0.844,-0.082
45.192,-0.576,0.846,-0.080
45.201,-0.572,0.832,-0.078
45.211,-0.568,0.828,-0.072
45.221,-0.568,0.836,-0.078
45.231,-0.566,0.830,-0.072
45.241,-0.557,0.824,-0.070
45.251,-0.562,0.824,-0.068
45.261,-0.566,0.834,-0.068
45.271,-0.564,0.832,-0.070
45.281,-0.572,0.820,-0.070
45.291,-0.578,0.822,-0.080
45.301,-0.582,0.830,-0.082
45.311,-0.582,0.828,-0.092
45.321,-0.584,0.826,-0.096
45.331,-0.584,0.828,-0.104
45.341,-0.584,0.836,-0.105
45.351,-0.580,0.838,-0.105
45.360,-0.576,0.838,-0.111
45.370,-0.574,0.832,-0.113
45.380,-0.584,0.830,-0.123
45.390,-0.580,0.820,-0.125
45.400,-0.582,0.832,-0.127
45.410,-0.584,0.832,-0.131
45.420,-0.578,0.830,-0.133
45.430,-0.576,0.830,-0.139
45.440,-0.584,0.826,-0.143
45.450,-0.586,0.828,-0.150
45.460,-0.578,0.822,-0.146
45.470,-0.576,0.826,-0.154
45.480,-0.578,0.820,-0.156
45.490,-0.580,0.809,-0.156
45.500,-0.582,0.811,-0.154
45.510,-0.592,0.811,-0.158
45.519,-0.588,0.809,-0.166
45.529,-0.590,0.811,-0.164
45.539,-0.594,0.816,-0.164
45.549,-0.584,0.818,-0.168
45.559,-0.588,0.811,-0.164
45.569,-0.598,0.809,-0.164
45.579,-0.605,0.801,-0.170
45.589,-0.611,0.801,-0.172
45.599,-0.611,0.801,-0.176
45.609,-0.604,0.809,-0.174
45.619,-0.598,0.816,-0.178
45.629,-0.594,0.811,-0.178
45.639,-0.598,0.803,-0.184
45.649,-0.600,0.812,-0.184
45.659,-0.604,0.812,-0.186
45.668,-0.598,0.807,-0.188
45.678,-0.592,0.805,-0.182
45.688,-0.592,0.807,-0.186
45.698,-0.594,0.805,-0.184
45.708,-0.594,0.807,-0.180
45.718,-0.602,0.809,-0.174
45.728,-0.596,0.803,-0.174
45.738,-0.605,0.805,-0.174
45.748,-0.602,0.805,-0.176
45.758,-0.600,0.803,-0.166
45.768,-0.600,0.809,-0.168
45.778,-0.592,0.811,-0.164
45.788,-0.596,0.797,-0.162
45.798,-0.590,0.793,-0.154
45.808,-0.590,0.799,-0.158
45.818,-0.600,0.801,-0.152
45.827,-0.602,0.801,-0.158
45.837,-0.600,0.805,-0.154
45.847,-0.604,0.805,-0.152
45.857,-0.602,0.809,-0.150
45.867,-0.604,0.809,-0.146
45.877,-0.613,0.807,-0.145
45.887,-0.615,0.805,-0.143
45.897,-0.625,0.805,-0.141
45.907,-0.633,0.795,-0.137
45.917,-0.629,0.787,-0.139
45.927,-0.633,0.789,-0.135
45.937,-0.633,0.789,-0.137
45.947,-0.629,0.785,-0.143
45.957,-0.629,0.791,-0.141
45.967,-0.619,0.793,-0.145
45.977,-0.621,0.799,-0.145
45.986,-0.625,0.809,-0.148
45.996,-0.619,0.803,-0.146
46.006,-0.619,0.805,-0.150
46.016,-0.619,0.803,-0.148
46.026,-0.619,0.799,-0.148
46.036,-0.611,0.797,-0.152
46.046,-0.605,0.801,-0.150
46.056,-0.605,0.807,-0.146
46.066,-0.611,0.807,-0.145
46.076,-0.611,0.801,-0.146
46.086,-0.600,0.803,-0.145
46.096,-0.602,0.809,-0.143
46.106,-0.605,0.803,-0.148
46.116,-0.602,0.799,-0.145
46.126,-0.600,0.793,-0.146
46.135,-0.602,0.801,-0.145
46.145,-0.605,0.811,-0.145
46.155,-0.607,0.814,-0.146
46.165,-0.607,0.809,-0.146
46.175,-0.602,0.812,-0.145
46.185,-0.602,0.805,-0.143
46.195,-0.594,0.805,-0.145
46.205,-0.588,0.803,-0.143
46.215,-0.600,0.809,-0.145
46.225,-0.604,0.805,-0.146
46.235,-0.600,0.812,-0.145
46.245,-0.600,0.818,-0.146
46.255,-0.592,0.814,-0.146
46.265,-0.584,0.811,-0.143
46.275,-0.590,0.811,-0.145
46.285,-0.594,0.814,-0.146
46.294,-0.590,0.811,-0.150
46.304,-0.586,0.814,-0.150
46.314,-0.588,0.814,-0.154
46.324,-0.582,0.816,-0.154
46.334,-0.576,0.820,-0.150
46.344,-0.580,0.822,-0.154
46.354,-0.576,0.811,-0.152
46.364,-0.572,0.814,-0.152
46.374,-0.572,0.824,-0.154
46.384,-0.568,0.818,-0.156
46.394,-0.561,0.824,-0.150
46.404,-0.568,0.832,-0.158
46.414,-0.568,0.822,-0.154
46.424,-0.566,0.826,-0.154
46.434,-0.568,0.826,-0.156
46.443,-0.561,0.820,-0.154
46.453,-0.561,0.826,-0.156
46.463,-0.564,0.828,-0.158
46.473,-0.564,0.820,-0.158
46.483,-0.562,0.818,-0.162
46.493,-0.564,0.816,-0.158
46.503,-0.559,0.832,-0.166
46.513,-0.557,0.830,-0.160
46.523,-0.561,0.824,-0.158
46.533,-0.564,0.830,-0.168
46.543,-0.557,0.836,-0.164
46.553,-0.553,0.836,-0.164
46.563,-0.566,0.834,-0.170
46.573,-0.568,0.832,-0.166
46.583,-0.566,0.822,-0.168
46.593,-0.566,0.838,-0.168
46.602,-0.557,0.846,-0.170
46.612,-0.549,0.834,-0.168
46.622,-0.539,0.832,-0.166
46.632,-0.543,0.834,-0.170
46.642,-0.539,0.822,-0.170
46.652,-0.545,0.820,-0.170
46.662,-0.537,0.828,-0.172
46.672,-0.533,0.824,-0.174
46.682,-0.541,0.828,-0.172
46.692,-0.541,0.830,-0.176
46.702,-0.543,0.822,-0.174
46.712,-0.547,0.822,-0.180
46.722,-0.545,0.830,-0.182
46.732,-0.545,0.842,-0.182
46.742,-0.549,0.840,-0.182
46.752,-0.553,0.842,-0.184
46.761,-0.551,0.842,-0.184
46.771,-0.547,0.836,-0.182
46.781,-0.545,0.838,-0.186
46.791,-0.549,0.840,-0.182
46.801,-0.559,0.846,-0.186
46.811,-0.557,0.834,-0.184
46.821,-0.543,0.848,-0.180
46.831,-0.537,0.842,-0.180
46.841,-0.531,0.834,-0.176
46.851,-0.527,0.832,-0.174
46.861,-0.547,0.840,-0.176
46.871,-0.541,0.842,-0.180
46.881,-0.531,0.832,-0.168
46.891,-0.537,0.840,-0.178
46.901,-0.537,0.846,-0.176
46.910,-0.525,0.838,-0.174
46.920,-0.525,0.836,-0.170
46.930,-0.529,0.840,-0.176
46.940,-0.521,0.834,-0.174
46.950,-0.525,0.840,-0.172
46.960,-0.529,0.842,-0.180
46.970,-0.521,0.842,-0.182
46.980,-0.523,0.855,-0.180
46.990,-0.518,0.850,-0.182
47.000,-0.506,0.850,-0.178
47.010,-0.506,0.848,-0.178
47.020,-0.506,0.844,-0.180
47.030,-0.500,0.844,-0.182
47.040,-0.510,0.852,-0.186
47.050,-0.508,0.850,-0.188
47.060,-0.504,0.859,-0.188
47.069,-0.512,0.859,-0.191
47.079,-0.518,0.854,-0.188
47.089,-0.520,0.848,-0.193
47.099,-0.521,0.848,-0.188
47.109,-0.514,0.852,-0.189
47.119,-0.520,0.854,-0.186
47.129,-0.520,0.854,-0.188
47.139,-0.510,0.846,-0.182
47.149,-0.521,0.852,-0.182
47.159,-0.523,0.854,-0.184
47.169,-0.523,0.852,-0.184
47.179,-0.525,0.854,-0.184
47.189,-0.514,0.846,-0.180
47.199,-0.508,0.854,-0.178
47.209,-0.512,0.854,-0.184
47.219,-0.512,0.852,-0.180
47.228,-0.508,0.854,-0.178
47.238,-0.510,0.854,-0.174
47.248,-0.512,0.854,-0.178
47.258,-0.492,0.855,-0.178
47.268,-0.492,0.861,-0.178
47.278,-0.500,0.857,-0.180
47.288,-0.494,0.846,-0.180
47.298,-0.494,0.850,-0.178
47.308,-0.510,0.865,-0.180
47.318,-0.504,0.871,-0.172
47.328,-0.498,0.869,-0.170
47.338,-0.500,0.857,-0.174
47.348,-0.504,0.852,-0.174
47.358,-0.508,0.852,-0.170
47.368,-0.500,0.855,-0.172
47.377,-0.506,0.855,-0.174
47.387,-0.500,0.854,-0.168
47.397,-0.500,0.865,-0.172
47.407,-0.508,0.867,-0.174
47.417,-0.506,0.859,-0.172
47.427,-0.492,0.861,-0.168
47.437,-0.488,0.863,-0.172
47.447,-0.490,0.855,-0.164
47.457,-0.498,0.861,-0.174
47.467,-0.498,0.857,-0.174
47.477,-0.496,0.857,-0.174
47.487,-0.496,0.859,-0.174
47.497,-0.484,0.855,-0.176
47.507,-0.488,0.859,-0.172
47.517,-0.494,0.863,-0.174
47.527,-0.480,0.867,-0.178
47.536,-0.477,0.865,-0.178
47.546,-0.482,0.865,-0.176
47.556,-0.488,0.863,-0.174
47.566,-0.494,0.859,-0.178
47.576,-0.496,0.871,-0.182
47.586,-0.486,0.867,-0.174
47.596,-0.484,0.863,-0.170
47.606,-0.488,0.869,-0.174
47.616,-0.496,0.867,-0.176
47.626,-0.488,0.861,-0.170
47.636,-0.484,0.861,-0.176
47.646,-0.480,0.852,-0.172
47.656,-0.486,0.855,-0.180
47.666,-0.494,0.859,-0.178
47.676,-0.494,0.859,-0.178
47.686,-0.486,0.863,-0.176
47.695,-0.492,0.875,-0.180
47.705,-0.492,0.865,-0.182
47.715,-0.488,0.865,-0.184
47.725,-0.488,0.863,-0.180
47.735,-0.492,0.863,-0.188
47.745,-0.486,0.863,-0.186
47.755,-0.484,0.861,-0.186
47.765,-0.488,0.865,-0.186
47.775,-0.486,0.865,-0.188
47.785,-0.482,0.869,-0.189
47.795,-0.484,0.865,-0.189
47.805,-0.473,0.863,-0.186
47.815,-0.475,0.877,-0.188
47.825,-0.480,0.871,-0.189
47.835,-0.475,0.863,-0.197
47.844,-0.463,0.861,-0.188
47.854,-0.484,0.877,-0.197
47.864,-0.482,0.877,-0.193
47.874,-0.471,0.867,-0.188
47.884,-0.463,0.873,-0.191
47.894,-0.475,0.873,-0.189
47.904,-0.482,0.865,-0.195
47.914,-0.473,0.863,-0.193
47.924,-0.477,0.865,-0.195
47.934,-0.477,0.867,-0.191
47.944,-0.461,0.867,-0.191
47.954,-0.469,0.879,-0.195
47.964,-0.471,0.869,-0.193
47.974,-0.459,0.869,-0.191
47.984,-0.475,0.881,-0.188
47.994,-0.482,0.865,-0.195
48.003,-0.475,0.859,-0.191
48.013,-0.471,0.873,-0.191
48.023,-0.477,0.881,-0.197
48.033,-0.475,0.875,-0.191
48.043,-0.463,0.873,-0.193
48.053,-0.475,0.875,-0.188
48.063,-0.475,0.865,-0.195
48.073,-0.477,0.861,-0.191
48.083,-0.479,0.871,-0.199
48.093,-0.479,0.865,-0.199
48.103,-0.471,0.865,-0.193
48.113,-0.467,0.875,-0.195
48.123,-0.477,0.879,-0.191
48.133,-0.473,0.869,-0.195
48.143,-0.461,0.867,-0.191
48.153,-0.467,0.869,-0.199
48.162,-0.459,0.861,-0.193
48.172,-0.451,0.875,-0.191
48.182,-0.459,0.871,-0.188
48.192,-0.473,0.881,-0.193
48.202,-0.479,0.873,-0.195
48.212,-0.477,0.871,-0.193
48.222,-0.467,0.871,-0.191
48.232,-0.475,0.865,-0.189
48.242,-0.477,0.869,-0.193
48.252,-0.473,0.877,-0.189
48.262,-0.475,0.863,-0.197
48.272,-0.473,0.863,-0.188
48.282,-0.471,0.881,-0.189
48.292,-0.473,0.883,-0.188
48.302,-0.463,0.879,-0.188
48.311,-0.469,0.879,-0.189
48.321,-0.459,0.869,-0.180
48.331,-0.463,0.871,-0.189
48.341,-0.467,0.869,-0.188
48.351,-0.471,0.863,-0.184
48.361,-0.465,0.871,-0.189
48.371,-0.463,0.873,-0.189
48.381,-0.467,0.877,-0.189
48.391,-0.469,0.877,-0.191
48.401,-0.463,0.867,-0.189
48.411,-0.459,0.871,-0.193
48.421,-0.461,0.879,-0.193
48.431,-0.457,0.877,-0.193
48.441,-0.463,0.871,-0.195
48.451,-0.453,0.871,-0.193
48.461,-0.457,0.879,-0.193
48.470,-0.447,0.871,-0.201
48.480,-0.453,0.875,-0.191
48.490,-0.457,0.883,-0.199
48.500,-0.467,0.881,-0.197
48.510,-0.461,0.873,-0.193
48.520,-0.453,0.879,-0.191
48.530,-0.453,0.881,-0.189
48.540,-0.463,0.883,-0.197
48.550,-0.461,0.885,-0.186
48.560,-0.451,0.881,-0.191
48.570,-0.453,0.877,-0.188
48.580,-0.439,0.869,-0.186
48.590,-0.449,0.883,-0.182
48.600,-0.457,0.881,-0.189
48.610,-0.451,0.873,-0.184
48.620,-0.447,0.877,-0.180
48.629,-0.445,0.879,-0.184
48.639,-0.439,0.875,-0.180
48.649,-0.449,0.883,-0.186
48.659,-0.453,0.871,-0.182
48.669,-0.445,0.883,-0.184
48.679,-0.441,0.879,-0.186
48.689,-0.451,0.881,-0.191
48.699,-0.455,0.891,-0.191
48.709,-0.457,0.895,-0.188
48.719,-0.449,0.891,-0.189
48.729,-0.449,0.900,-0.186
48.739,-0.447,0.883,-0.188
48.749,-0.439,0.869,-0.186
48.759,-0.432,0.865,-0.188
48.769,-0.445,0.867,-0.186
48.778,-0.451,0.875,-0.193
48.788,-0.447,0.877,-0.186
48.798,-0.445,0.887,-0.184
48.808,-0.447,0.887,-0.186
48.818,-0.439,0.883,-0.186
48.828,-0.451,0.877,-0.188
48.838,-0.457,0.869,-0.191
48.848,-0.447,0.881,-0.186
48.858,-0.443,0.885,-0.195
48.868,-0.436,0.875,-0.186
48.878,-0.436,0.891,-0.191
48.888,-0.445,0.881,-0.199
48.898,-0.434,0.879,-0.193
48.908,-0.432,0.885,-0.195
48.918,-0.447,0.877,-0.197
48.928,-0.447,0.885,-0.197
48.937,-0.453,0.885,-0.199
48.947,-0.451,0.871,-0.193
48.957,-0.438,0.889,-0.195
48.967,-0.445,0.896,-0.195
48.977,-0.447,0.873,-0.195
48.987,-0.434,0.867,-0.186
48.997,-0.441,0.889,-0.195
49.007,-0.426,0.877,-0.193
49.017,-0.430,0.887,-0.197
49.027,-0.438,0.885,-0.197
49.037,-0.428,0.867,-0.197
49.047,-0.428,0.887,-0.199
49.057,-0.439,0.891,-0.201
49.067,-0.439,0.877,-0.205
49.077,-0.443,0.879,-0.201
49.086,-0.447,0.881,-0.207
49.096,-0.438,0.879,-0.199
49.106,-0.428,0.889,-0.199
49.116,-0.436,0.889,-0.201
49.126,-0.445,0.885,-0.203
49.136,-0.438,0.879,-0.209
49.146,-0.439,0.877,-0.203
49.156,-0.441,0.883,-0.199
49.166,-0.432,0.883,-0.205
49.176,-0.439,0.883,-0.205
49.186,-0.439,0.881,-0.203
49.196,-0.439,0.881,-0.205
49.206,-0.436,0.887,-0.207
49.216,-0.432,0.881,-0.209
49.226,-0.430,0.885,-0.207
49.236,-0.436,0.885,-0.217
49.245,-0.436,0.879,-0.211
49.255,-0.434,0.887,-0.213
49.265,-0.416,0.877,-0.209
49.275,-0.428,0.881,-0.207
49.285,-0.441,0.883,-0.209
49.295,-0.451,0.879,-0.203
49.305,-0.457,0.891,-0.205
49.315,-0.457,0.887,-0.207
49.325,-0.441,0.871,-0.203
49.335,-0.424,0.875,-0.201
49.345,-0.420,0.885,-0.203
49.355,-0.428,0.877,-0.201
49.365,-0.436,0.881,-0.201
49.375,-0.455,0.885,-0.209
49.385,-0.455,0.883,-0.213
49.395,-0.445,0.877,-0.207
49.404,-0.447,0.887,-0.203
49.414,-0.445,0.885,-0.207
49.424,-0.441,0.867,-0.201
49.434,-0.418,0.863,-0.199
49.444,-0.428,0.873,-0.203
49.454,-0.438,0.875,-0.207
49.464,-0.459,0.885,-0.207
49.474,-0.471,0.883,-0.219
49.484,-0.480,0.877,-0.213
49.494,-0.484,0.869,-0.215
