df_hash,22ZHK4.MC7JBY
device,HZ2X61
project_hash,29R7
project_name,istanbul_aydin_university
person_hash,29R7.0QNP
person_label,V38
date_time_start,2025-10-27_13-06-31.896000_+03
date_time_start_unix,1761555991.896
date_time_end,2025-10-27_13-14-49.110000_+03
length_difference_noticed,no

time,acc_x,acc_y,acc_z
5.007,-0.598,0.803,-0.164
5.017,-0.600,0.801,-0.164
5.027,-0.598,0.799,-0.166
5.037,-0.596,0.797,-0.168
5.047,-0.600,0.801,-0.164
5.057,-0.605,0.803,-0.164
5.067,-0.604,0.805,-0.166
5.077,-0.607,0.807,-0.168
5.087,-0.607,0.801,-0.168
5.097,-0.602,0.809,-0.166
5.107,-0.598,0.812,-0.168
5.117,-0.600,0.812,-0.164
5.126,-0.600,0.809,-0.166
5.136,-0.596,0.805,-0.164
5.146,-0.598,0.805,-0.162
5.156,-0.602,0.801,-0.164
5.166,-0.600,0.803,-0.166
5.176,-0.607,0.807,-0.168
5.186,-0.609,0.803,-0.170
5.196,-0.609,0.807,-0.170
5.206,-0.609,0.803,-0.168
5.216,-0.607,0.799,-0.168
5.226,-0.607,0.799,-0.170
5.236,-0.602,0.797,-0.168
5.246,-0.602,0.797,-0.170
5.255,-0.604,0.799,-0.168
5.265,-0.605,0.801,-0.166
5.275,-0.607,0.803,-0.166
5.285,-0.609,0.807,-0.168
5.295,-0.609,0.807,-0.168
5.305,-0.611,0.803,-0.170
5.315,-0.611,0.805,-0.168
5.325,-0.609,0.801,-0.170
5.335,-0.605,0.797,-0.172
5.345,-0.609,0.801,-0.166
5.355,-0.611,0.801,-0.168
5.365,-0.607,0.799,-0.166
5.375,-0.609,0.803,-0.168
5.384,-0.611,0.797,-0.170
5.394,-0.615,0.795,-0.174
5.404,-0.613,0.795,-0.172
5.414,-0.615,0.795,-0.172
5.424,-0.619,0.797,-0.174
5.434,-0.621,0.797,-0.176
5.444,-0.617,0.795,-0.174
5.454,-0.615,0.797,-0.176
5.464,-0.613,0.797,-0.168
5.474,-0.609,0.793,-0.170
5.484,-0.607,0.795,-0.174
5.494,-0.605,0.793,-0.172
5.504,-0.611,0.795,-0.172
5.513,-0.611,0.799,-0.168
5.523,-0.611,0.795,-0.168
5.533,-0.605,0.797,-0.168
5.543,-0.609,0.797,-0.170
5.553,-0.611,0.797,-0.170
5.563,-0.609,0.799,-0.174
5.573,-0.613,0.795,-0.176
5.583,-0.613,0.795,-0.172
5.593,-0.615,0.799,-0.176
5.603,-0.613,0.801,-0.172
5.613,-0.611,0.799,-0.170
5.623,-0.609,0.799,-0.172
5.633,-0.611,0.797,-0.172
5.642,-0.611,0.799,-0.170
5.652,-0.609,0.799,-0.172
5.662,-0.604,0.797,-0.168
5.672,-0.607,0.797,-0.170
5.682,-0.609,0.793,-0.168
5.692,-0.609,0.799,-0.170
5.702,-0.617,0.807,-0.174
5.712,-0.613,0.807,-0.168
5.722,-0.611,0.809,-0.172
5.732,-0.609,0.799,-0.170
5.742,-0.609,0.791,-0.170
5.752,-0.609,0.791,-0.170
5.762,-0.615,0.795,-0.176
5.771,-0.619,0.797,-0.172
5.781,-0.617,0.797,-0.172
5.791,-0.617,0.801,-0.168
5.801,-0.617,0.801,-0.170
5.811,-0.613,0.797,-0.168
5.821,-0.611,0.797,-0.168
5.831,-0.609,0.795,-0.166
5.841,-0.605,0.793,-0.170
5.851,-0.607,0.793,-0.166
5.861,-0.604,0.793,-0.166
5.871,-0.609,0.799,-0.166
5.881,-0.607,0.795,-0.172
5.891,-0.611,0.799,-0.164
5.900,-0.613,0.803,-0.170
5.910,-0.611,0.799,-0.170
5.920,-0.609,0.795,-0.170
5.930,-0.613,0.801,-0.168
5.940,-0.613,0.803,-0.170
5.950,-0.617,0.801,-0.170
5.960,-0.611,0.801,-0.168
5.970,-0.609,0.795,-0.170
5.980,-0.609,0.797,-0.166
5.990,-0.609,0.799,-0.168
6.000,-0.611,0.799,-0.164
6.010,-0.609,0.803,-0.168
6.020,-0.613,0.803,-0.166
6.029,-0.609,0.801,-0.164
6.039,-0.607,0.797,-0.164
6.049,-0.604,0.797,-0.164
6.059,-0.607,0.797,-0.164
6.069,-0.605,0.799,-0.168
6.079,-0.607,0.801,-0.164
6.089,-0.607,0.799,-0.164
6.099,-0.604,0.801,-0.170
6.109,-0.605,0.801,-0.166
6.119,-0.607,0.805,-0.164
6.129,-0.605,0.805,-0.168
6.139,-0.602,0.803,-0.164
6.149,-0.602,0.803,-0.170
6.158,-0.605,0.801,-0.164
6.168,-0.605,0.803,-0.166
6.178,-0.607,0.805,-0.168
6.188,-0.605,0.803,-0.168
6.198,-0.607,0.801,-0.170
6.208,-0.607,0.801,-0.170
6.218,-0.605,0.805,-0.170
6.228,-0.607,0.805,-0.164
6.238,-0.604,0.801,-0.168
6.248,-0.600,0.797,-0.168
6.258,-0.600,0.795,-0.166
6.268,-0.604,0.805,-0.168
6.278,-0.607,0.812,-0.166
6.287,-0.605,0.812,-0.168
6.297,-0.605,0.809,-0.168
6.307,-0.602,0.805,-0.168
6.317,-0.602,0.795,-0.170
6.327,-0.604,0.795,-0.168
6.337,-0.607,0.801,-0.172
6.347,-0.607,0.805,-0.168
6.357,-0.607,0.809,-0.170
6.367,-0.605,0.803,-0.168
6.377,-0.605,0.805,-0.166
6.387,-0.605,0.797,-0.166
6.397,-0.605,0.795,-0.168
6.407,-0.604,0.799,-0.168
6.416,-0.600,0.797,-0.164
6.426,-0.604,0.801,-0.164
6.436,-0.604,0.803,-0.164
6.446,-0.604,0.803,-0.162
6.456,-0.605,0.801,-0.162
6.466,-0.604,0.807,-0.170
6.476,-0.605,0.805,-0.166
6.486,-0.609,0.803,-0.166
6.496,-0.605,0.799,-0.168
6.506,-0.609,0.803,-0.168
6.516,-0.611,0.807,-0.162
6.526,-0.611,0.809,-0.170
6.536,-0.605,0.803,-0.170
6.545,-0.607,0.801,-0.170
6.555,-0.604,0.795,-0.170
6.565,-0.609,0.799,-0.170
6.575,-0.609,0.805,-0.170
6.585,-0.609,0.805,-0.166
6.595,-0.609,0.809,-0.170
6.605,-0.604,0.809,-0.170
6.615,-0.604,0.805,-0.168
6.625,-0.600,0.801,-0.168
6.635,-0.602,0.801,-0.168
6.645,-0.598,0.801,-0.168
6.655,-0.602,0.801,-0.170
6.665,-0.604,0.805,-0.168
6.674,-0.605,0.803,-0.166
6.684,-0.605,0.803,-0.174
6.694,-0.605,0.797,-0.168
6.704,-0.607,0.801,-0.172
6.714,-0.607,0.803,-0.170
6.724,-0.607,0.801,-0.174
6.734,-0.604,0.799,-0.172
6.744,-0.604,0.801,-0.172
6.754,-0.602,0.799,-0.172
6.764,-0.604,0.801,-0.170
6.774,-0.604,0.797,-0.170
6.784,-0.602,0.803,-0.170
6.794,-0.604,0.799,-0.172
6.803,-0.604,0.801,-0.174
6.813,-0.605,0.793,-0.176
6.823,-0.605,0.797,-0.170
6.833,-0.609,0.801,-0.174
6.843,-0.607,0.807,-0.176
6.853,-0.609,0.809,-0.178
6.863,-0.609,0.807,-0.174
6.873,-0.605,0.797,-0.178
6.883,-0.604,0.795,-0.174
6.893,-0.604,0.795,-0.178
6.903,-0.605,0.795,-0.178
6.913,-0.607,0.801,-0.176
6.923,-0.607,0.803,-0.176
6.932,-0.605,0.801,-0.176
6.942,-0.605,0.803,-0.172
6.952,-0.605,0.801,-0.176
6.962,-0.604,0.793,-0.176
6.972,-0.604,0.795,-0.178
6.982,-0.604,0.797,-0.180
6.992,-0.605,0.795,-0.178
7.002,-0.605,0.795,-0.178
7.012,-0.607,0.797,-0.180
7.022,-0.611,0.799,-0.180
7.032,-0.609,0.801,-0.182
7.042,-0.611,0.799,-0.182
7.052,-0.609,0.799,-0.182
7.061,-0.609,0.801,-0.178
7.071,-0.604,0.795,-0.180
7.081,-0.605,0.801,-0.180
7.091,-0.609,0.799,-0.184
7.101,-0.605,0.801,-0.184
7.111,-0.607,0.799,-0.180
7.121,-0.604,0.797,-0.184
7.131,-0.605,0.793,-0.186
7.141,-0.607,0.795,-0.186
7.151,-0.607,0.795,-0.184
7.161,-0.613,0.793,-0.188
7.171,-0.611,0.795,-0.188
7.181,-0.611,0.793,-0.189
7.190,-0.609,0.795,-0.188
7.200,-0.607,0.795,-0.188
7.210,-0.605,0.795,-0.189
7.220,-0.604,0.791,-0.189
7.230,-0.604,0.797,-0.188
7.240,-0.604,0.797,-0.189
7.250,-0.604,0.795,-0.191
7.260,-0.604,0.795,-0.188
7.270,-0.604,0.797,-0.184
7.280,-0.607,0.797,-0.193
7.290,-0.607,0.801,-0.191
7.300,-0.607,0.799,-0.191
7.310,-0.607,0.799,-0.191
7.319,-0.609,0.795,-0.193
7.329,-0.607,0.795,-0.193
7.339,-0.607,0.793,-0.193
7.349,-0.609,0.793,-0.197
7.359,-0.609,0.793,-0.199
7.369,-0.609,0.789,-0.195
7.379,-0.609,0.793,-0.195
7.389,-0.609,0.791,-0.199
7.399,-0.613,0.797,-0.197
7.409,-0.605,0.793,-0.195
7.419,-0.602,0.793,-0.197
7.429,-0.602,0.791,-0.193
7.439,-0.604,0.793,-0.193
7.448,-0.604,0.801,-0.197
7.458,-0.607,0.805,-0.199
7.468,-0.605,0.801,-0.193
7.478,-0.605,0.793,-0.197
7.488,-0.605,0.795,-0.199
7.498,-0.605,0.791,-0.199
7.508,-0.605,0.789,-0.197
7.518,-0.609,0.791,-0.197
7.528,-0.613,0.793,-0.199
7.538,-0.609,0.793,-0.201
7.548,-0.609,0.793,-0.197
7.558,-0.605,0.789,-0.199
7.568,-0.609,0.785,-0.199
7.577,-0.609,0.785,-0.201
7.587,-0.607,0.785,-0.199
7.597,-0.607,0.789,-0.195
7.607,-0.607,0.789,-0.197
7.617,-0.611,0.793,-0.197
7.627,-0.609,0.791,-0.197
7.637,-0.611,0.793,-0.201
7.647,-0.609,0.793,-0.199
7.657,-0.613,0.793,-0.195
7.667,-0.611,0.791,-0.201
7.677,-0.613,0.791,-0.199
7.687,-0.611,0.783,-0.197
7.697,-0.613,0.789,-0.201
7.706,-0.613,0.795,-0.199
7.716,-0.605,0.793,-0.197
7.726,-0.613,0.793,-0.195
7.736,-0.609,0.791,-0.199
7.746,-0.607,0.789,-0.195
7.756,-0.605,0.787,-0.193
7.766,-0.609,0.791,-0.197
7.776,-0.609,0.791,-0.197
7.786,-0.611,0.793,-0.197
7.796,-0.609,0.793,-0.197
7.806,-0.611,0.793,-0.197
7.816,-0.609,0.791,-0.195
7.826,-0.605,0.789,-0.195
7.835,-0.609,0.789,-0.197
7.845,-0.607,0.789,-0.197
7.855,-0.607,0.791,-0.195
7.865,-0.609,0.791,-0.195
7.875,-0.609,0.793,-0.197
7.885,-0.611,0.791,-0.197
7.895,-0.611,0.791,-0.197
7.905,-0.609,0.793,-0.195
7.915,-0.607,0.793,-0.195
7.925,-0.607,0.791,-0.193
7.935,-0.609,0.789,-0.193
7.945,-0.607,0.789,-0.195
7.955,-0.607,0.789,-0.197
7.964,-0.611,0.787,-0.197
7.974,-0.611,0.789,-0.197
7.984,-0.611,0.791,-0.195
7.994,-0.613,0.791,-0.197
8.004,-0.611,0.791,-0.199
8.014,-0.609,0.793,-0.197
8.024,-0.611,0.789,-0.195
8.034,-0.609,0.791,-0.197
8.044,-0.609,0.795,-0.195
8.054,-0.607,0.793,-0.193
8.064,-0.605,0.791,-0.191
8.074,-0.611,0.791,-0.193
8.084,-0.609,0.789,-0.193
8.093,-0.611,0.791,-0.193
8.103,-0.611,0.789,-0.195
8.113,-0.611,0.789,-0.193
8.123,-0.613,0.789,-0.195
8.133,-0.611,0.789,-0.195
8.143,-0.613,0.789,-0.195
8.153,-0.613,0.791,-0.191
8.163,-0.611,0.791,-0.195
8.173,-0.611,0.785,-0.193
8.183,-0.609,0.789,-0.191
8.193,-0.613,0.795,-0.189
8.203,-0.609,0.799,-0.191
8.213,-0.611,0.799,-0.191
8.222,-0.609,0.793,-0.195
8.232,-0.605,0.789,-0.189
8.242,-0.607,0.787,-0.193
8.252,-0.611,0.787,-0.191
8.262,-0.611,0.789,-0.189
8.272,-0.617,0.791,-0.191
8.282,-0.615,0.793,-0.193
8.292,-0.613,0.787,-0.191
8.302,-0.609,0.783,-0.191
8.312,-0.609,0.783,-0.193
8.322,-0.611,0.785,-0.191
8.332,-0.609,0.785,-0.189
8.342,-0.613,0.789,-0.189
8.351,-0.613,0.795,-0.191
8.361,-0.609,0.795,-0.193
8.371,-0.613,0.797,-0.191
8.381,-0.613,0.797,-0.193
8.391,-0.607,0.795,-0.191
8.401,-0.609,0.793,-0.189
8.411,-0.611,0.793,-0.193
8.421,-0.611,0.793,-0.191
8.431,-0.609,0.787,-0.191
8.441,-0.611,0.791,-0.191
8.451,-0.615,0.797,-0.193
8.461,-0.613,0.793,-0.189
8.471,-0.609,0.793,-0.191
8.480,-0.609,0.789,-0.191
8.490,-0.609,0.789,-0.191
8.500,-0.611,0.787,-0.191
8.510,-0.613,0.789,-0.193
8.520,-0.611,0.791,-0.193
8.530,-0.611,0.791,-0.191
8.540,-0.613,0.789,-0.191
8.550,-0.611,0.789,-0.191
8.560,-0.613,0.789,-0.191
8.570,-0.611,0.789,-0.189
8.580,-0.609,0.789,-0.191
8.590,-0.611,0.789,-0.189
8.600,-0.611,0.791,-0.193
8.609,-0.607,0.791,-0.189
8.619,-0.609,0.791,-0.191
8.629,-0.607,0.791,-0.191
8.639,-0.611,0.793,-0.191
8.649,-0.611,0.791,-0.191
8.659,-0.609,0.791,-0.193
8.669,-0.609,0.791,-0.191
8.679,-0.613,0.789,-0.195
8.689,-0.615,0.791,-0.195
8.699,-0.613,0.793,-0.193
8.709,-0.615,0.793,-0.193
8.719,-0.615,0.791,-0.195
8.729,-0.617,0.791,-0.193
8.738,-0.611,0.789,-0.195
8.748,-0.611,0.789,-0.189
8.758,-0.611,0.785,-0.195
8.768,-0.611,0.785,-0.193
8.778,-0.613,0.789,-0.193
8.788,-0.613,0.791,-0.191
8.798,-0.613,0.791,-0.191
8.808,-0.613,0.789,-0.195
8.818,-0.613,0.789,-0.193
8.828,-0.615,0.789,-0.195
8.838,-0.619,0.791,-0.195
8.848,-0.615,0.789,-0.197
8.858,-0.617,0.789,-0.197
8.867,-0.615,0.785,-0.195
8.877,-0.613,0.789,-0.195
8.887,-0.613,0.785,-0.191
8.897,-0.613,0.791,-0.195
8.907,-0.619,0.785,-0.195
8.917,-0.617,0.785,-0.193
8.927,-0.617,0.787,-0.193
8.937,-0.615,0.787,-0.195
8.947,-0.615,0.785,-0.195
8.957,-0.617,0.783,-0.195
8.967,-0.613,0.785,-0.195
8.977,-0.615,0.789,-0.193
8.987,-0.617,0.785,-0.199
8.996,-0.615,0.785,-0.201
9.006,-0.619,0.781,-0.199
9.016,-0.621,0.787,-0.197
9.026,-0.617,0.787,-0.197
9.036,-0.619,0.795,-0.197
9.046,-0.619,0.795,-0.193
9.056,-0.617,0.789,-0.195
9.066,-0.611,0.785,-0.197
9.076,-0.615,0.781,-0.197
9.086,-0.615,0.783,-0.197
9.096,-0.619,0.783,-0.197
9.106,-0.621,0.783,-0.197
9.116,-0.621,0.787,-0.197
9.125,-0.625,0.783,-0.199
9.135,-0.621,0.781,-0.195
9.145,-0.619,0.779,-0.197
9.155,-0.617,0.779,-0.195
9.165,-0.619,0.777,-0.199
9.175,-0.619,0.779,-0.197
9.185,-0.621,0.785,-0.197
9.195,-0.617,0.783,-0.195
9.205,-0.619,0.787,-0.197
9.215,-0.617,0.787,-0.197
9.225,-0.615,0.787,-0.195
9.235,-0.617,0.785,-0.195
9.245,-0.617,0.783,-0.193
9.254,-0.615,0.785,-0.195
9.264,-0.623,0.783,-0.195
9.274,-0.617,0.785,-0.197
9.284,-0.623,0.789,-0.197
9.294,-0.619,0.791,-0.199
9.304,-0.619,0.787,-0.199
9.314,-0.615,0.781,-0.197
9.324,-0.617,0.779,-0.195
9.334,-0.615,0.781,-0.195
9.344,-0.615,0.785,-0.199
9.354,-0.619,0.789,-0.195
9.364,-0.621,0.793,-0.195
9.374,-0.617,0.789,-0.195
9.383,-0.615,0.787,-0.193
9.393,-0.615,0.785,-0.193
9.403,-0.617,0.783,-0.195
9.413,-0.613,0.785,-0.193
9.423,-0.615,0.785,-0.193
9.433,-0.613,0.783,-0.195
9.443,-0.613,0.789,-0.195
9.453,-0.617,0.787,-0.191
9.463,-0.617,0.789,-0.195
9.473,-0.617,0.785,-0.193
9.483,-0.617,0.785,-0.193
9.493,-0.621,0.787,-0.197
9.503,-0.623,0.787,-0.195
9.512,-0.619,0.785,-0.197
9.522,-0.619,0.785,-0.197
9.532,-0.619,0.783,-0.193
9.542,-0.619,0.785,-0.193
9.552,-0.621,0.785,-0.193
9.562,-0.617,0.787,-0.191
9.572,-0.623,0.785,-0.193
9.582,-0.621,0.785,-0.193
9.592,-0.617,0.783,-0.193
9.602,-0.621,0.785,-0.195
9.612,-0.621,0.781,-0.189
9.622,-0.617,0.789,-0.189
9.632,-0.623,0.785,-0.193
9.641,-0.617,0.787,-0.191
9.651,-0.619,0.787,-0.191
9.661,-0.621,0.783,-0.193
9.671,-0.621,0.783,-0.191
9.681,-0.621,0.785,-0.195
9.691,-0.621,0.785,-0.193
9.701,-0.621,0.785,-0.191
9.711,-0.623,0.785,-0.195
9.721,-0.621,0.785,-0.193
9.731,-0.621,0.785,-0.189
9.741,-0.619,0.783,-0.189
9.751,-0.621,0.783,-0.193
9.761,-0.619,0.779,-0.191
9.770,-0.621,0.781,-0.191
9.780,-0.623,0.785,-0.189
9.790,-0.627,0.789,-0.195
9.800,-0.623,0.785,-0.191
9.810,-0.623,0.781,-0.193
9.820,-0.623,0.779,-0.189
9.830,-0.619,0.777,-0.191
9.840,-0.621,0.787,-0.189
9.850,-0.625,0.793,-0.195
9.860,-0.625,0.793,-0.191
9.870,-0.623,0.783,-0.189
9.880,-0.619,0.781,-0.191
9.890,-0.621,0.773,-0.195
9.899,-0.625,0.777,-0.189
9.909,-0.631,0.785,-0.189
9.919,-0.625,0.787,-0.191
9.929,-0.629,0.789,-0.188
9.939,-0.627,0.789,-0.189
9.949,-0.625,0.783,-0.189
9.959,-0.621,0.779,-0.189
9.969,-0.619,0.781,-0.189
9.979,-0.619,0.779,-0.188
9.989,-0.619,0.781,-0.188
9.999,-0.619,0.783,-0.189
10.009,-0.625,0.783,-0.189
10.019,-0.623,0.779,-0.188
10.028,-0.625,0.781,-0.191
10.038,-0.627,0.781,-0.188
10.048,-0.627,0.785,-0.189
10.058,-0.629,0.787,-0.189
10.068,-0.627,0.785,-0.189
10.078,-0.623,0.775,-0.186
10.088,-0.625,0.783,-0.188
10.098,-0.625,0.789,-0.191
10.108,-0.623,0.789,-0.189
10.118,-0.623,0.787,-0.191
10.128,-0.623,0.783,-0.189
10.138,-0.621,0.781,-0.191
10.148,-0.621,0.783,-0.191
10.157,-0.623,0.789,-0.189
10.167,-0.623,0.789,-0.186
10.177,-0.625,0.795,-0.186
10.187,-0.619,0.789,-0.186
10.197,-0.615,0.785,-0.182
10.207,-0.615,0.783,-0.186
10.217,-0.615,0.783,-0.189
10.227,-0.613,0.781,-0.188
10.237,-0.617,0.785,-0.184
10.247,-0.615,0.787,-0.186
10.257,-0.623,0.789,-0.189
10.267,-0.623,0.789,-0.188
10.277,-0.621,0.791,-0.182
10.286,-0.623,0.787,-0.188
10.296,-0.619,0.787,-0.188
10.306,-0.621,0.783,-0.189
10.316,-0.619,0.785,-0.189
10.326,-0.621,0.785,-0.189
10.336,-0.619,0.787,-0.188
10.346,-0.619,0.785,-0.186
10.356,-0.619,0.785,-0.186
10.366,-0.617,0.785,-0.184
10.376,-0.621,0.787,-0.184
10.386,-0.621,0.787,-0.189
10.396,-0.619,0.789,-0.186
10.406,-0.619,0.785,-0.188
10.415,-0.619,0.787,-0.186
10.425,-0.619,0.785,-0.184
10.435,-0.621,0.787,-0.186
10.445,-0.619,0.789,-0.182
10.455,-0.619,0.789,-0.186
10.465,-0.615,0.787,-0.182
10.475,-0.613,0.783,-0.180
10.485,-0.611,0.785,-0.184
10.495,-0.621,0.791,-0.184
10.505,-0.613,0.795,-0.182
10.515,-0.617,0.795,-0.186
10.525,-0.619,0.795,-0.186
10.535,-0.617,0.789,-0.186
10.544,-0.617,0.781,-0.186
10.554,-0.619,0.783,-0.184
10.564,-0.617,0.787,-0.184
10.574,-0.619,0.793,-0.184
10.584,-0.619,0.793,-0.184
10.594,-0.621,0.795,-0.186
10.604,-0.613,0.791,-0.186
10.614,-0.615,0.787,-0.184
10.624,-0.611,0.785,-0.184
10.634,-0.615,0.783,-0.184
10.644,-0.611,0.785,-0.182
10.654,-0.613,0.789,-0.182
10.664,-0.619,0.789,-0.184
10.673,-0.619,0.793,-0.180
10.683,-0.619,0.791,-0.186
10.693,-0.623,0.793,-0.184
10.703,-0.619,0.793,-0.186
10.713,-0.621,0.795,-0.182
10.723,-0.617,0.789,-0.188
10.733,-0.619,0.785,-0.184
10.743,-0.619,0.789,-0.188
10.753,-0.617,0.793,-0.182
10.763,-0.613,0.797,-0.184
10.773,-0.611,0.791,-0.184
10.783,-0.613,0.787,-0.180
10.793,-0.613,0.789,-0.184
10.802,-0.615,0.791,-0.182
10.812,-0.617,0.793,-0.182
10.822,-0.617,0.795,-0.182
10.832,-0.615,0.795,-0.182
10.842,-0.615,0.791,-0.184
10.852,-0.611,0.787,-0.184
10.862,-0.609,0.789,-0.182
10.872,-0.609,0.791,-0.184
10.882,-0.609,0.793,-0.182
10.892,-0.613,0.795,-0.182
10.902,-0.613,0.795,-0.186
10.912,-0.615,0.795,-0.186
10.922,-0.615,0.795,-0.184
10.931,-0.615,0.793,-0.188
10.941,-0.619,0.789,-0.184
10.951,-0.611,0.791,-0.180
10.961,-0.609,0.789,-0.182
10.971,-0.613,0.791,-0.182
10.981,-0.613,0.789,-0.182
10.991,-0.613,0.789,-0.182
11.001,-0.609,0.789,-0.182
11.011,-0.619,0.791,-0.184
11.021,-0.615,0.793,-0.178
11.031,-0.615,0.795,-0.184
11.041,-0.613,0.795,-0.180
11.051,-0.611,0.799,-0.186
11.060,-0.615,0.789,-0.184
11.070,-0.609,0.783,-0.182
11.080,-0.611,0.797,-0.180
11.090,-0.613,0.799,-0.180
11.100,-0.613,0.805,-0.180
11.110,-0.611,0.801,-0.180
11.120,-0.611,0.797,-0.180
11.130,-0.609,0.793,-0.184
11.140,-0.611,0.781,-0.180
11.150,-0.617,0.787,-0.180
11.160,-0.619,0.795,-0.178
11.170,-0.623,0.795,-0.184
11.180,-0.621,0.795,-0.180
11.189,-0.619,0.793,-0.178
11.199,-0.615,0.787,-0.178
11.209,-0.615,0.785,-0.178
11.219,-0.611,0.789,-0.176
11.229,-0.611,0.783,-0.176
11.239,-0.613,0.787,-0.176
11.249,-0.615,0.789,-0.178
11.259,-0.615,0.791,-0.176
11.269,-0.615,0.793,-0.174
11.279,-0.615,0.793,-0.178
11.289,-0.617,0.793,-0.180
11.299,-0.613,0.793,-0.180
11.309,-0.617,0.793,-0.186
11.318,-0.621,0.789,-0.180
11.328,-0.619,0.789,-0.180
11.338,-0.613,0.787,-0.182
11.348,-0.621,0.799,-0.180
11.358,-0.617,0.799,-0.180
11.368,-0.615,0.795,-0.182
11.378,-0.613,0.795,-0.178
11.388,-0.611,0.791,-0.184
11.398,-0.613,0.793,-0.182
11.408,-0.613,0.795,-0.182
11.418,-0.613,0.801,-0.180
11.428,-0.617,0.799,-0.178
11.438,-0.611,0.797,-0.180
11.447,-0.611,0.795,-0.180
11.457,-0.607,0.791,-0.182
11.467,-0.609,0.791,-0.180
11.477,-0.609,0.793,-0.182
11.487,-0.611,0.793,-0.180
11.497,-0.613,0.791,-0.182
11.507,-0.613,0.793,-0.182
11.517,-0.615,0.791,-0.180
11.527,-0.617,0.791,-0.184
11.537,-0.617,0.791,-0.182
11.547,-0.615,0.791,-0.182
11.557,-0.615,0.793,-0.180
11.567,-0.613,0.791,-0.182
11.576,-0.611,0.791,-0.182
11.586,-0.613,0.793,-0.184
11.596,-0.613,0.793,-0.184
11.606,-0.613,0.793,-0.180
11.616,-0.615,0.795,-0.180
11.626,-0.615,0.797,-0.178
11.636,-0.613,0.793,-0.182
11.646,-0.611,0.789,-0.178
11.656,-0.613,0.793,-0.180
11.666,-0.609,0.799,-0.178
11.676,-0.613,0.801,-0.174
11.686,-0.619,0.801,-0.180
11.696,-0.613,0.793,-0.180
11.705,-0.607,0.787,-0.182
11.715,-0.613,0.783,-0.182
11.725,-0.621,0.781,-0.180
11.735,-0.619,0.789,-0.184
11.745,-0.621,0.793,-0.180
11.755,-0.623,0.791,-0.180
11.765,-0.623,0.791,-0.184
11.775,-0.621,0.787,-0.180
11.785,-0.617,0.785,-0.178
11.795,-0.615,0.785,-0.180
11.805,-0.617,0.783,-0.182
11.815,-0.619,0.789,-0.182
11.825,-0.619,0.791,-0.180
11.834,-0.619,0.797,-0.180
11.844,-0.615,0.795,-0.182
11.854,-0.617,0.795,-0.182
11.864,-0.615,0.797,-0.182
11.874,-0.615,0.795,-0.178
11.884,-0.611,0.793,-0.176
11.894,-0.611,0.791,-0.180
11.904,-0.611,0.787,-0.184
11.914,-0.609,0.779,-0.182
11.924,-0.617,0.785,-0.182
11.934,-0.623,0.795,-0.178
11.944,-0.621,0.795,-0.186
11.954,-0.621,0.795,-0.184
11.963,-0.619,0.789,-0.188
11.973,-0.621,0.789,-0.188
11.983,-0.619,0.791,-0.188
11.993,-0.623,0.789,-0.188
12.003,-0.619,0.791,-0.182
12.013,-0.617,0.795,-0.184
12.023,-0.617,0.795,-0.184
12.033,-0.609,0.793,-0.180
12.043,-0.611,0.789,-0.182
12.053,-0.609,0.789,-0.182
12.063,-0.611,0.791,-0.180
12.073,-0.611,0.791,-0.180
12.083,-0.609,0.791,-0.182
12.092,-0.611,0.791,-0.182
12.102,-0.611,0.791,-0.182
12.112,-0.611,0.789,-0.182
12.122,-0.615,0.793,-0.188
12.132,-0.615,0.793,-0.186
12.142,-0.619,0.793,-0.186
12.152,-0.615,0.791,-0.188
12.162,-0.615,0.791,-0.186
12.172,-0.615,0.789,-0.186
12.182,-0.617,0.787,-0.188
12.192,-0.619,0.789,-0.184
12.202,-0.611,0.791,-0.188
12.212,-0.619,0.791,-0.186
12.221,-0.617,0.791,-0.184
12.231,-0.611,0.791,-0.184
12.241,-0.613,0.785,-0.188
12.251,-0.613,0.785,-0.182
12.261,-0.615,0.789,-0.184
12.271,-0.615,0.791,-0.189
12.281,-0.615,0.795,-0.184
12.291,-0.619,0.793,-0.186
12.301,-0.617,0.791,-0.182
12.311,-0.617,0.787,-0.184
12.321,-0.619,0.783,-0.184
12.331,-0.619,0.783,-0.184
12.340,-0.621,0.785,-0.189
12.350,-0.621,0.785,-0.188
12.360,-0.621,0.785,-0.186
12.370,-0.619,0.791,-0.184
12.380,-0.619,0.789,-0.188
12.390,-0.617,0.785,-0.188
12.400,-0.617,0.785,-0.186
12.410,-0.615,0.787,-0.188
12.420,-0.615,0.783,-0.188
12.430,-0.615,0.791,-0.186
12.440,-0.611,0.793,-0.184
12.450,-0.615,0.791,-0.186
12.460,-0.611,0.791,-0.184
12.469,-0.613,0.791,-0.184
12.479,-0.615,0.793,-0.184
12.489,-0.613,0.791,-0.186
12.499,-0.617,0.791,-0.189
12.509,-0.617,0.787,-0.188
12.519,-0.617,0.791,-0.189
12.529,-0.619,0.793,-0.188
12.539,-0.615,0.795,-0.188
12.549,-0.615,0.793,-0.188
12.559,-0.615,0.791,-0.189
12.569,-0.613,0.787,-0.188
12.579,-0.611,0.787,-0.189
12.589,-0.615,0.789,-0.188
12.598,-0.617,0.789,-0.186
12.608,-0.611,0.793,-0.189
12.618,-0.613,0.795,-0.189
12.628,-0.613,0.793,-0.188
12.638,-0.613,0.791,-0.188
12.648,-0.611,0.791,-0.188
12.658,-0.607,0.791,-0.188
12.668,-0.611,0.791,-0.189
12.678,-0.609,0.791,-0.189
12.688,-0.615,0.793,-0.186
12.698,-0.609,0.791,-0.193
12.708,-0.609,0.793,-0.188
12.718,-0.609,0.795,-0.186
12.727,-0.609,0.797,-0.188
12.737,-0.609,0.795,-0.191
12.747,-0.609,0.799,-0.189
12.757,-0.607,0.797,-0.188
12.767,-0.607,0.793,-0.193
12.777,-0.607,0.793,-0.191
12.787,-0.609,0.791,-0.193
12.797,-0.611,0.795,-0.189
12.807,-0.611,0.797,-0.189
12.817,-0.609,0.797,-0.191
12.827,-0.607,0.795,-0.189
12.837,-0.607,0.799,-0.189
12.847,-0.607,0.795,-0.191
12.856,-0.609,0.795,-0.189
12.866,-0.607,0.797,-0.191
12.876,-0.611,0.795,-0.191
12.886,-0.611,0.795,-0.191
12.896,-0.607,0.793,-0.188
12.906,-0.609,0.795,-0.189
12.916,-0.605,0.795,-0.189
12.926,-0.607,0.793,-0.188
12.936,-0.605,0.795,-0.186
12.946,-0.607,0.793,-0.184
12.956,-0.607,0.791,-0.188
12.966,-0.609,0.795,-0.188
12.976,-0.611,0.791,-0.186
12.985,-0.613,0.793,-0.189
12.995,-0.611,0.789,-0.186
13.005,-0.611,0.793,-0.186
13.015,-0.609,0.797,-0.186
13.025,-0.611,0.799,-0.188
13.035,-0.611,0.799,-0.188
13.045,-0.607,0.793,-0.188
13.055,-0.607,0.793,-0.186
13.065,-0.611,0.789,-0.188
13.075,-0.607,0.789,-0.184
13.085,-0.611,0.791,-0.188
13.095,-0.619,0.793,-0.188
13.105,-0.617,0.795,-0.186
13.114,-0.613,0.793,-0.186
13.124,-0.615,0.789,-0.188
13.134,-0.613,0.785,-0.189
13.144,-0.613,0.785,-0.191
13.154,-0.611,0.789,-0.186
13.164,-0.613,0.791,-0.188
13.174,-0.609,0.791,-0.186
13.184,-0.611,0.797,-0.184
13.194,-0.613,0.797,-0.184
13.204,-0.613,0.789,-0.188
13.214,-0.613,0.795,-0.184
13.224,-0.609,0.793,-0.189
13.234,-0.613,0.791,-0.182
13.243,-0.615,0.791,-0.188
13.253,-0.615,0.787,-0.184
13.263,-0.613,0.787,-0.188
13.273,-0.617,0.793,-0.188
13.283,-0.613,0.793,-0.189
13.293,-0.613,0.793,-0.186
13.303,-0.613,0.793,-0.186
13.313,-0.615,0.787,-0.189
13.323,-0.617,0.787,-0.186
13.333,-0.619,0.787,-0.191
13.343,-0.615,0.791,-0.189
13.353,-0.617,0.793,-0.189
13.363,-0.613,0.793,-0.189
13.372,-0.613,0.791,-0.188
13.382,-0.611,0.789,-0.188
13.392,-0.615,0.789,-0.184
13.402,-0.613,0.789,-0.188
13.412,-0.611,0.793,-0.186
13.422,-0.613,0.793,-0.189
13.432,-0.613,0.793,-0.188
13.442,-0.613,0.789,-0.188
13.452,-0.613,0.789,-0.188
13.462,-0.611,0.791,-0.191
13.472,-0.611,0.789,-0.188
13.482,-0.615,0.789,-0.191
13.492,-0.615,0.789,-0.189
13.501,-0.619,0.791,-0.191
13.511,-0.615,0.793,-0.189
13.521,-0.619,0.791,-0.191
13.531,-0.615,0.793,-0.193
13.541,-0.613,0.791,-0.191
13.551,-0.611,0.791,-0.191
13.561,-0.611,0.785,-0.191
13.571,-0.613,0.793,-0.184
13.581,-0.613,0.795,-0.188
13.591,-0.607,0.795,-0.188
13.601,-0.609,0.789,-0.184
13.611,-0.613,0.793,-0.188
13.621,-0.613,0.791,-0.188
13.630,-0.609,0.793,-0.188
13.640,-0.613,0.791,-0.188
13.650,-0.619,0.791,-0.189
13.660,-0.621,0.793,-0.188
13.670,-0.623,0.789,-0.189
13.680,-0.617,0.791,-0.188
13.690,-0.615,0.791,-0.189
13.700,-0.617,0.785,-0.188
13.710,-0.615,0.787,-0.186
13.720,-0.619,0.791,-0.186
13.730,-0.617,0.789,-0.184
13.740,-0.615,0.791,-0.188
13.750,-0.619,0.787,-0.186
13.759,-0.613,0.785,-0.186
13.769,-0.611,0.791,-0.186
13.779,-0.613,0.795,-0.184
13.789,-0.613,0.801,-0.186
13.799,-0.613,0.801,-0.186
13.809,-0.611,0.795,-0.189
13.819,-0.609,0.791,-0.188
13.829,-0.607,0.785,-0.188
13.839,-0.613,0.787,-0.188
13.849,-0.617,0.793,-0.186
13.859,-0.617,0.797,-0.186
13.869,-0.621,0.799,-0.184
13.879,-0.617,0.795,-0.186
13.888,-0.619,0.791,-0.188
13.898,-0.615,0.787,-0.188
13.908,-0.613,0.785,-0.186
13.918,-0.611,0.785,-0.186
13.928,-0.613,0.789,-0.186
13.938,-0.611,0.791,-0.186
13.948,-0.611,0.793,-0.188
13.958,-0.611,0.793,-0.188
13.968,-0.613,0.795,-0.186
13.978,-0.613,0.797,-0.186
13.988,-0.611,0.795,-0.191
13.998,-0.611,0.795,-0.188
14.008,-0.613,0.789,-0.191
14.017,-0.611,0.787,-0.191
14.027,-0.611,0.793,-0.186
14.037,-0.615,0.797,-0.186
14.047,-0.613,0.801,-0.186
14.057,-0.613,0.795,-0.189
14.067,-0.607,0.791,-0.188
14.077,-0.607,0.789,-0.189
14.087,-0.609,0.791,-0.188
14.097,-0.613,0.793,-0.188
14.107,-0.611,0.799,-0.189
14.117,-0.611,0.799,-0.186
14.127,-0.609,0.795,-0.184
14.137,-0.605,0.791,-0.182
14.146,-0.605,0.793,-0.182
14.156,-0.607,0.791,-0.184
14.166,-0.604,0.787,-0.182
14.176,-0.605,0.795,-0.186
14.186,-0.607,0.795,-0.186
14.196,-0.611,0.795,-0.188
14.206,-0.611,0.793,-0.186
14.216,-0.613,0.795,-0.186
14.226,-0.611,0.797,-0.188
14.236,-0.611,0.793,-0.188
14.246,-0.611,0.795,-0.184
14.256,-0.611,0.797,-0.184
14.266,-0.613,0.795,-0.186
14.275,-0.611,0.795,-0.186
14.285,-0.609,0.791,-0.184
14.295,-0.611,0.795,-0.186
14.305,-0.609,0.795,-0.186
14.315,-0.611,0.795,-0.184
14.325,-0.611,0.795,-0.184
14.335,-0.615,0.795,-0.184
14.345,-0.613,0.797,-0.186
14.355,-0.615,0.795,-0.186
14.365,-0.615,0.793,-0.186
14.375,-0.615,0.795,-0.186
14.385,-0.611,0.791,-0.184
14.395,-0.613,0.791,-0.182
14.404,-0.615,0.797,-0.188
14.414,-0.611,0.793,-0.184
14.424,-0.607,0.789,-0.184
14.434,-0.609,0.789,-0.184
14.444,-0.611,0.795,-0.180
14.454,-0.615,0.799,-0.182
14.464,-0.613,0.797,-0.184
14.474,-0.615,0.799,-0.184
14.484,-0.613,0.799,-0.184
14.494,-0.611,0.791,-0.182
14.504,-0.611,0.789,-0.186
14.514,-0.613,0.787,-0.184
14.524,-0.617,0.793,-0.186
14.533,-0.617,0.795,-0.178
14.543,-0.617,0.793,-0.180
14.553,-0.615,0.793,-0.180
14.563,-0.613,0.793,-0.182
14.573,-0.605,0.793,-0.178
14.583,-0.604,0.791,-0.178
14.593,-0.604,0.789,-0.176
14.603,-0.607,0.789,-0.178
14.613,-0.604,0.793,-0.178
14.623,-0.609,0.793,-0.178
14.633,-0.615,0.799,-0.180
14.643,-0.615,0.799,-0.184
14.653,-0.613,0.799,-0.182
14.662,-0.611,0.797,-0.184
14.672,-0.613,0.797,-0.184
14.682,-0.615,0.797,-0.184
14.692,-0.609,0.789,-0.186
14.702,-0.613,0.795,-0.182
14.712,-0.611,0.803,-0.180
14.722,-0.607,0.799,-0.182
14.732,-0.604,0.795,-0.180
14.742,-0.602,0.791,-0.178
14.752,-0.607,0.795,-0.182
14.762,-0.607,0.797,-0.178
14.772,-0.607,0.801,-0.182
14.782,-0.609,0.805,-0.180
14.791,-0.611,0.805,-0.182
14.801,-0.607,0.801,-0.176
14.811,-0.605,0.797,-0.182
14.821,-0.607,0.791,-0.178
14.831,-0.605,0.795,-0.182
14.841,-0.604,0.795,-0.182
14.851,-0.609,0.799,-0.180
14.861,-0.607,0.799,-0.178
14.871,-0.605,0.799,-0.182
14.881,-0.607,0.797,-0.182
14.891,-0.607,0.799,-0.178
14.901,-0.605,0.801,-0.182
14.911,-0.605,0.797,-0.180
14.920,-0.604,0.799,-0.178
14.930,-0.604,0.799,-0.180
14.940,-0.605,0.797,-0.178
14.950,-0.607,0.797,-0.182
14.960,-0.605,0.801,-0.182
14.970,-0.607,0.795,-0.182
14.980,-0.609,0.799,-0.182
14.990,-0.607,0.793,-0.184
15.000,-0.607,0.799,-0.182
15.010,-0.609,0.801,-0.180
15.020,-0.609,0.803,-0.182
15.030,-0.607,0.799,-0.182
15.040,-0.604,0.801,-0.180
15.049,-0.600,0.791,-0.178
15.059,-0.604,0.793,-0.178
15.069,-0.607,0.801,-0.180
15.079,-0.602,0.809,-0.178
15.089,-0.607,0.805,-0.178
15.099,-0.607,0.805,-0.178
15.109,-0.605,0.799,-0.180
15.119,-0.602,0.793,-0.182
15.129,-0.607,0.789,-0.184
15.139,-0.611,0.793,-0.180
15.149,-0.615,0.799,-0.182
15.159,-0.611,0.799,-0.178
15.169,-0.609,0.801,-0.182
15.178,-0.613,0.801,-0.180
15.188,-0.605,0.791,-0.178
15.198,-0.604,0.793,-0.180
15.208,-0.602,0.793,-0.178
15.218,-0.605,0.793,-0.176
15.228,-0.605,0.795,-0.178
15.238,-0.607,0.797,-0.176
15.248,-0.609,0.801,-0.176
15.258,-0.604,0.799,-0.178
15.268,-0.607,0.801,-0.176
15.278,-0.607,0.799,-0.178
15.288,-0.605,0.801,-0.182
15.298,-0.609,0.799,-0.182
15.307,-0.609,0.797,-0.182
15.317,-0.605,0.795,-0.182
15.327,-0.611,0.801,-0.180
15.337,-0.613,0.805,-0.182
15.347,-0.609,0.801,-0.178
15.357,-0.607,0.801,-0.182
15.367,-0.605,0.793,-0.180
15.377,-0.604,0.791,-0.186
15.387,-0.605,0.793,-0.180
15.397,-0.607,0.799,-0.184
15.407,-0.607,0.805,-0.180
15.417,-0.607,0.805,-0.178
15.427,-0.604,0.803,-0.180
15.436,-0.602,0.799,-0.180
15.446,-0.600,0.795,-0.180
15.456,-0.600,0.795,-0.178
15.466,-0.600,0.799,-0.178
15.476,-0.604,0.799,-0.178
15.486,-0.607,0.801,-0.180
15.496,-0.604,0.801,-0.178
15.506,-0.600,0.803,-0.180
15.516,-0.604,0.799,-0.182
15.526,-0.604,0.803,-0.182
15.536,-0.605,0.803,-0.180
15.546,-0.600,0.805,-0.180
15.556,-0.602,0.799,-0.182
15.565,-0.602,0.799,-0.184
15.575,-0.607,0.799,-0.180
15.585,-0.605,0.801,-0.180
15.595,-0.607,0.799,-0.186
15.605,-0.604,0.799,-0.184
15.615,-0.609,0.801,-0.182
15.625,-0.607,0.799,-0.182
15.635,-0.607,0.799,-0.182
15.645,-0.605,0.799,-0.184
15.655,-0.607,0.799,-0.184
15.665,-0.607,0.795,-0.186
15.675,-0.605,0.793,-0.182
15.685,-0.607,0.797,-0.180
15.694,-0.604,0.803,-0.178
15.704,-0.607,0.809,-0.180
15.714,-0.605,0.809,-0.178
15.724,-0.605,0.803,-0.176
15.734,-0.598,0.797,-0.176
15.744,-0.604,0.791,-0.174
15.754,-0.605,0.791,-0.176
15.764,-0.611,0.793,-0.178
15.774,-0.609,0.795,-0.178
15.784,-0.613,0.793,-0.178
15.794,-0.615,0.799,-0.178
15.804,-0.615,0.797,-0.180
15.814,-0.613,0.797,-0.182
15.823,-0.611,0.793,-0.180
15.833,-0.613,0.791,-0.180
15.843,-0.611,0.795,-0.182
15.853,-0.611,0.795,-0.178
15.863,-0.609,0.797,-0.178
15.873,-0.611,0.797,-0.180
15.883,-0.607,0.799,-0.176
15.893,-0.609,0.799,-0.180
15.903,-0.605,0.801,-0.174
15.913,-0.605,0.799,-0.176
15.923,-0.605,0.799,-0.178
15.933,-0.605,0.797,-0.178
15.943,-0.611,0.789,-0.178
15.952,-0.611,0.793,-0.180
15.962,-0.617,0.801,-0.182
15.972,-0.615,0.801,-0.182
15.982,-0.613,0.799,-0.180
15.992,-0.615,0.795,-0.184
16.002,-0.611,0.795,-0.180
16.012,-0.611,0.793,-0.180
16.022,-0.607,0.797,-0.180
16.032,-0.613,0.803,-0.180
16.042,-0.611,0.799,-0.180
16.052,-0.611,0.799,-0.178
16.062,-0.609,0.799,-0.180
16.072,-0.607,0.793,-0.176
16.081,-0.605,0.795,-0.178
16.091,-0.605,0.797,-0.178
16.101,-0.605,0.801,-0.178
16.111,-0.604,0.797,-0.176
16.121,-0.605,0.801,-0.178
16.131,-0.605,0.799,-0.180
16.141,-0.605,0.797,-0.178
16.151,-0.605,0.797,-0.182
16.161,-0.607,0.799,-0.180
16.171,-0.611,0.799,-0.180
16.181,-0.607,0.799,-0.178
16.191,-0.611,0.795,-0.178
16.201,-0.609,0.797,-0.180
16.210,-0.611,0.801,-0.182
16.220,-0.607,0.799,-0.180
16.230,-0.605,0.799,-0.182
16.240,-0.607,0.799,-0.178
16.250,-0.609,0.797,-0.178
16.260,-0.605,0.797,-0.178
16.270,-0.605,0.797,-0.182
16.280,-0.604,0.797,-0.180
16.290,-0.607,0.799,-0.178
16.300,-0.605,0.795,-0.180
16.310,-0.607,0.797,-0.176
16.320,-0.609,0.797,-0.180
16.330,-0.611,0.797,-0.178
16.339,-0.611,0.801,-0.178
16.349,-0.613,0.801,-0.176
16.359,-0.611,0.803,-0.184
16.369,-0.609,0.797,-0.184
16.379,-0.605,0.795,-0.178
16.389,-0.605,0.797,-0.178
16.399,-0.607,0.805,-0.178
16.409,-0.607,0.807,-0.180
16.419,-0.609,0.809,-0.178
16.429,-0.607,0.803,-0.176
16.439,-0.607,0.795,-0.182
16.449,-0.607,0.793,-0.180
16.459,-0.607,0.795,-0.184
16.468,-0.609,0.791,-0.184
16.478,-0.609,0.799,-0.178
16.488,-0.611,0.799,-0.180
16.498,-0.609,0.799,-0.180
16.508,-0.613,0.793,-0.182
16.518,-0.609,0.791,-0.184
16.528,-0.607,0.791,-0.180
16.538,-0.609,0.795,-0.180
16.548,-0.609,0.795,-0.182
16.558,-0.607,0.797,-0.180
16.568,-0.607,0.799,-0.180
16.578,-0.607,0.801,-0.180
16.588,-0.607,0.801,-0.180
16.597,-0.607,0.801,-0.178
16.607,-0.607,0.799,-0.178
16.617,-0.607,0.797,-0.180
16.627,-0.609,0.803,-0.180
16.637,-0.611,0.799,-0.180
16.647,-0.607,0.793,-0.178
16.657,-0.611,0.801,-0.182
16.667,-0.609,0.801,-0.180
16.677,-0.607,0.801,-0.180
16.687,-0.605,0.799,-0.180
16.697,-0.607,0.797,-0.180
16.707,-0.607,0.797,-0.184
16.717,-0.605,0.795,-0.180
16.726,-0.609,0.799,-0.182
16.736,-0.609,0.801,-0.182
16.746,-0.609,0.803,-0.180
16.756,-0.607,0.801,-0.178
16.766,-0.605,0.799,-0.178
16.776,-0.605,0.797,-0.182
16.786,-0.605,0.797,-0.178
16.796,-0.607,0.797,-0.178
16.806,-0.605,0.799,-0.178
16.816,-0.605,0.799,-0.176
16.826,-0.602,0.801,-0.182
16.836,-0.602,0.799,-0.178
16.846,-0.605,0.797,-0.180
16.855,-0.604,0.799,-0.174
16.865,-0.604,0.797,-0.180
16.875,-0.605,0.797,-0.184
16.885,-0.605,0.797,-0.180
16.895,-0.611,0.799,-0.180
16.905,-0.607,0.799,-0.180
16.915,-0.609,0.799,-0.180
16.925,-0.609,0.799,-0.180
16.935,-0.613,0.797,-0.180
16.945,-0.609,0.799,-0.182
16.955,-0.605,0.799,-0.184
16.965,-0.605,0.799,-0.180
16.975,-0.604,0.801,-0.180
16.984,-0.604,0.799,-0.178
16.994,-0.605,0.801,-0.180
17.004,-0.605,0.799,-0.184
17.014,-0.609,0.799,-0.184
17.024,-0.607,0.799,-0.180
17.034,-0.609,0.799,-0.182
17.044,-0.607,0.799,-0.178
17.054,-0.609,0.797,-0.182
17.064,-0.609,0.797,-0.184
17.074,-0.607,0.797,-0.182
17.084,-0.609,0.795,-0.182
17.094,-0.611,0.795,-0.184
17.104,-0.609,0.797,-0.182
17.113,-0.611,0.795,-0.182
17.123,-0.611,0.791,-0.178
17.133,-0.611,0.797,-0.180
17.143,-0.611,0.803,-0.178
17.153,-0.613,0.805,-0.182
17.163,-0.613,0.807,-0.182
17.173,-0.611,0.797,-0.180
17.183,-0.607,0.793,-0.180
17.193,-0.607,0.791,-0.180
17.203,-0.609,0.791,-0.182
17.213,-0.613,0.793,-0.182
17.223,-0.615,0.797,-0.184
17.233,-0.617,0.799,-0.184
17.242,-0.613,0.797,-0.180
17.252,-0.613,0.793,-0.182
17.262,-0.609,0.789,-0.184
17.272,-0.607,0.791,-0.180
17.282,-0.609,0.791,-0.178
17.292,-0.609,0.793,-0.178
17.302,-0.609,0.795,-0.178
17.312,-0.613,0.793,-0.180
17.322,-0.609,0.799,-0.178
17.332,-0.613,0.799,-0.182
17.342,-0.613,0.797,-0.178
17.352,-0.611,0.799,-0.180
17.362,-0.613,0.797,-0.178
17.371,-0.611,0.791,-0.182
17.381,-0.609,0.791,-0.178
17.391,-0.607,0.793,-0.178
17.401,-0.613,0.797,-0.178
17.411,-0.609,0.799,-0.180
17.421,-0.611,0.797,-0.180
17.431,-0.611,0.797,-0.180
17.441,-0.611,0.793,-0.180
17.451,-0.611,0.789,-0.180
17.461,-0.611,0.793,-0.182
17.471,-0.611,0.797,-0.182
17.481,-0.609,0.801,-0.176
17.491,-0.607,0.797,-0.180
17.500,-0.605,0.797,-0.180
17.510,-0.607,0.797,-0.180
17.520,-0.605,0.797,-0.182
17.530,-0.607,0.797,-0.180
17.540,-0.609,0.795,-0.184
17.550,-0.611,0.799,-0.180
17.560,-0.607,0.797,-0.180
17.570,-0.605,0.799,-0.180
17.580,-0.609,0.801,-0.182
17.590,-0.607,0.799,-0.180
17.600,-0.607,0.797,-0.182
17.610,-0.607,0.797,-0.184
17.620,-0.611,0.795,-0.184
17.629,-0.613,0.795,-0.184
17.639,-0.613,0.795,-0.182
17.649,-0.613,0.795,-0.184
17.659,-0.611,0.797,-0.189
17.669,-0.611,0.795,-0.184
17.679,-0.609,0.793,-0.184
17.689,-0.619,0.793,-0.184
17.699,-0.615,0.791,-0.186
17.709,-0.611,0.793,-0.182
17.719,-0.613,0.795,-0.182
17.729,-0.611,0.793,-0.186
17.739,-0.611,0.791,-0.186
17.749,-0.609,0.791,-0.184
17.758,-0.615,0.793,-0.182
17.768,-0.613,0.791,-0.184
17.778,-0.611,0.795,-0.182
17.788,-0.617,0.793,-0.182
17.798,-0.617,0.793,-0.186
17.808,-0.613,0.795,-0.184
17.818,-0.617,0.789,-0.184
17.828,-0.617,0.785,-0.186
17.838,-0.615,0.787,-0.186
17.848,-0.617,0.783,-0.180
17.858,-0.615,0.795,-0.180
17.868,-0.619,0.801,-0.184
17.878,-0.619,0.803,-0.184
17.887,-0.621,0.797,-0.182
17.897,-0.617,0.787,-0.182
17.907,-0.615,0.785,-0.182
17.917,-0.619,0.785,-0.184
17.927,-0.617,0.789,-0.180
17.937,-0.623,0.791,-0.180
17.947,-0.621,0.795,-0.180
17.957,-0.619,0.793,-0.180
17.967,-0.619,0.791,-0.178
17.977,-0.617,0.787,-0.184
17.987,-0.617,0.785,-0.178
17.997,-0.617,0.787,-0.180
18.007,-0.615,0.789,-0.178
18.016,-0.615,0.791,-0.182
18.026,-0.617,0.789,-0.178
18.036,-0.617,0.791,-0.178
18.046,-0.613,0.791,-0.184
18.056,-0.617,0.797,-0.178
18.066,-0.617,0.799,-0.178
18.076,-0.619,0.795,-0.180
18.086,-0.615,0.789,-0.184
18.096,-0.611,0.787,-0.180
18.106,-0.615,0.795,-0.180
18.116,-0.617,0.793,-0.178
18.126,-0.619,0.799,-0.182
18.136,-0.617,0.797,-0.180
18.145,-0.617,0.795,-0.182
18.155,-0.615,0.791,-0.182
18.165,-0.617,0.791,-0.178
18.175,-0.619,0.795,-0.178
18.185,-0.615,0.795,-0.178
18.195,-0.615,0.791,-0.178
18.205,-0.611,0.795,-0.178
18.215,-0.609,0.795,-0.176
18.225,-0.609,0.789,-0.180
18.235,-0.611,0.791,-0.178
18.245,-0.611,0.795,-0.180
18.255,-0.611,0.793,-0.178
18.265,-0.611,0.793,-0.178
18.274,-0.611,0.793,-0.178
18.284,-0.611,0.793,-0.180
18.294,-0.615,0.795,-0.180
18.304,-0.613,0.793,-0.182
18.314,-0.615,0.795,-0.184
18.324,-0.617,0.797,-0.182
18.334,-0.613,0.793,-0.182
18.344,-0.615,0.795,-0.182
18.354,-0.613,0.793,-0.184
18.364,-0.613,0.793,-0.186
18.374,-0.611,0.793,-0.184
18.384,-0.615,0.795,-0.182
18.394,-0.613,0.795,-0.184
18.403,-0.611,0.791,-0.182
18.413,-0.607,0.791,-0.180
18.423,-0.613,0.793,-0.182
18.433,-0.611,0.793,-0.184
18.443,-0.611,0.791,-0.184
18.453,-0.615,0.795,-0.182
18.463,-0.617,0.797,-0.184
18.473,-0.613,0.793,-0.186
18.483,-0.613,0.787,-0.186
18.493,-0.611,0.787,-0.182
18.503,-0.615,0.799,-0.180
18.513,-0.613,0.801,-0.186
18.523,-0.611,0.799,-0.182
18.532,-0.611,0.797,-0.184
18.542,-0.611,0.795,-0.184
18.552,-0.611,0.789,-0.186
18.562,-0.611,0.785,-0.186
18.572,-0.615,0.793,-0.184
18.582,-0.615,0.793,-0.186
18.592,-0.619,0.795,-0.184
18.602,-0.617,0.797,-0.186
18.612,-0.617,0.791,-0.184
18.622,-0.615,0.787,-0.186
18.632,-0.611,0.787,-0.188
18.642,-0.611,0.789,-0.182
18.652,-0.609,0.789,-0.180
18.661,-0.611,0.793,-0.184
18.671,-0.609,0.791,-0.184
18.681,-0.615,0.793,-0.184
18.691,-0.613,0.795,-0.182
18.701,-0.615,0.797,-0.184
18.711,-0.617,0.797,-0.184
18.721,-0.619,0.793,-0.182
18.731,-0.617,0.789,-0.186
18.741,-0.615,0.793,-0.186
18.751,-0.619,0.797,-0.180
18.761,-0.615,0.797,-0.184
18.771,-0.613,0.795,-0.184
18.781,-0.611,0.793,-0.186
18.790,-0.613,0.793,-0.184
18.800,-0.611,0.795,-0.186
18.810,-0.613,0.795,-0.182
18.820,-0.615,0.801,-0.184
18.830,-0.611,0.799,-0.184
18.840,-0.609,0.797,-0.180
18.850,-0.607,0.793,-0.178
18.860,-0.604,0.793,-0.184
18.870,-0.607,0.793,-0.180
18.880,-0.607,0.797,-0.184
18.890,-0.605,0.795,-0.180
18.900,-0.607,0.797,-0.180
18.910,-0.607,0.797,-0.182
18.919,-0.609,0.801,-0.178
18.929,-0.611,0.799,-0.180
18.939,-0.609,0.799,-0.178
18.949,-0.611,0.795,-0.182
18.959,-0.607,0.795,-0.184
18.969,-0.611,0.797,-0.182
18.979,-0.611,0.797,-0.184
18.989,-0.607,0.793,-0.184
18.999,-0.607,0.795,-0.182
19.009,-0.611,0.795,-0.182
19.019,-0.613,0.797,-0.180
19.029,-0.613,0.799,-0.180
19.039,-0.613,0.799,-0.182
19.048,-0.611,0.799,-0.182
19.058,-0.607,0.797,-0.182
19.068,-0.605,0.791,-0.186
19.078,-0.607,0.795,-0.182
19.088,-0.607,0.803,-0.182
19.098,-0.609,0.805,-0.180
19.108,-0.609,0.805,-0.180
19.118,-0.609,0.805,-0.182
19.128,-0.607,0.797,-0.182
19.138,-0.609,0.787,-0.184
19.148,-0.613,0.789,-0.182
19.158,-0.617,0.795,-0.182
19.168,-0.613,0.799,-0.184
19.177,-0.615,0.797,-0.180
19.187,-0.615,0.795,-0.178
19.197,-0.613,0.791,-0.182
19.207,-0.609,0.789,-0.180
19.217,-0.605,0.789,-0.182
19.227,-0.605,0.787,-0.178
19.237,-0.609,0.789,-0.180
19.247,-0.609,0.789,-0.178
19.257,-0.609,0.795,-0.180
19.267,-0.613,0.795,-0.180
19.277,-0.617,0.797,-0.180
19.287,-0.615,0.797,-0.180
19.297,-0.617,0.799,-0.182
19.306,-0.617,0.797,-0.182
19.316,-0.609,0.787,-0.180
19.326,-0.613,0.793,-0.184
19.336,-0.617,0.799,-0.182
19.346,-0.613,0.799,-0.182
19.356,-0.613,0.801,-0.182
19.366,-0.609,0.791,-0.184
19.376,-0.609,0.793,-0.182
19.386,-0.611,0.795,-0.180
19.396,-0.611,0.801,-0.180
19.406,-0.611,0.803,-0.184
19.416,-0.609,0.801,-0.184
19.426,-0.607,0.799,-0.180
19.435,-0.609,0.795,-0.182
19.445,-0.611,0.795,-0.182
19.455,-0.607,0.797,-0.180
19.465,-0.607,0.793,-0.180
19.475,-0.609,0.797,-0.180
19.485,-0.611,0.793,-0.180
19.495,-0.607,0.793,-0.182
19.505,-0.609,0.793,-0.180
19.515,-0.609,0.795,-0.178
19.525,-0.611,0.797,-0.180
19.535,-0.611,0.799,-0.184
19.545,-0.609,0.797,-0.180
19.555,-0.611,0.795,-0.182
19.564,-0.609,0.795,-0.178
19.574,-0.607,0.793,-0.186
19.584,-0.607,0.797,-0.186
19.594,-0.609,0.799,-0.180
19.604,-0.609,0.797,-0.180
19.614,-0.609,0.801,-0.184
19.624,-0.605,0.793,-0.178
19.634,-0.607,0.793,-0.184
19.644,-0.609,0.797,-0.180
19.654,-0.609,0.805,-0.178
19.664,-0.611,0.807,-0.182
19.674,-0.611,0.809,-0.178
19.684,-0.607,0.805,-0.184
19.693,-0.604,0.793,-0.182
19.703,-0.607,0.789,-0.180
19.713,-0.611,0.789,-0.182
19.723,-0.611,0.797,-0.178
19.733,-0.613,0.801,-0.184
19.743,-0.615,0.801,-0.182
19.753,-0.613,0.799,-0.180
19.763,-0.613,0.793,-0.182
19.773,-0.605,0.787,-0.180
19.783,-0.605,0.789,-0.180
19.793,-0.605,0.793,-0.178
19.803,-0.607,0.793,-0.180
19.813,-0.607,0.793,-0.178
19.822,-0.607,0.795,-0.176
19.832,-0.611,0.799,-0.180
19.842,-0.611,0.799,-0.180
19.852,-0.611,0.799,-0.180
19.862,-0.613,0.797,-0.182
19.872,-0.611,0.799,-0.182
19.882,-0.611,0.793,-0.186
19.892,-0.611,0.795,-0.182
19.902,-0.613,0.803,-0.182
19.912,-0.611,0.803,-0.182
19.922,-0.609,0.799,-0.182
19.932,-0.604,0.795,-0.184
19.942,-0.607,0.795,-0.182
19.951,-0.607,0.799,-0.186
19.961,-0.605,0.801,-0.184
19.971,-0.609,0.803,-0.182
19.981,-0.605,0.805,-0.180
19.991,-0.605,0.803,-0.178
20.001,-0.604,0.799,-0.180
20.011,-0.605,0.797,-0.180
20.021,-0.604,0.795,-0.178
20.031,-0.604,0.797,-0.180
20.041,-0.607,0.799,-0.180
20.051,-0.607,0.799,-0.180
20.061,-0.605,0.803,-0.182
20.071,-0.607,0.801,-0.180
20.080,-0.604,0.799,-0.182
20.090,-0.605,0.801,-0.184
20.100,-0.605,0.801,-0.184
20.110,-0.605,0.803,-0.182
20.120,-0.605,0.797,-0.186
20.130,-0.607,0.803,-0.186
20.140,-0.604,0.799,-0.182
20.150,-0.605,0.801,-0.182
20.160,-0.605,0.801,-0.180
20.170,-0.600,0.807,-0.182
20.180,-0.602,0.801,-0.178
20.190,-0.602,0.801,-0.182
20.200,-0.602,0.793,-0.178
20.209,-0.602,0.795,-0.180
20.219,-0.600,0.799,-0.180
20.229,-0.609,0.807,-0.182
20.239,-0.607,0.809,-0.180
20.249,-0.605,0.803,-0.180
20.259,-0.605,0.795,-0.182
20.269,-0.605,0.791,-0.182
20.279,-0.609,0.793,-0.184
20.289,-0.607,0.795,-0.184
20.299,-0.611,0.799,-0.184
20.309,-0.613,0.797,-0.184
20.319,-0.611,0.799,-0.182
20.329,-0.609,0.797,-0.182
20.338,-0.607,0.797,-0.184
20.348,-0.609,0.793,-0.184
20.358,-0.605,0.795,-0.184
20.368,-0.605,0.797,-0.182
20.378,-0.605,0.797,-0.180
20.388,-0.607,0.797,-0.182
20.398,-0.607,0.799,-0.184
20.408,-0.609,0.799,-0.180
20.418,-0.607,0.799,-0.186
20.428,-0.607,0.797,-0.184
20.438,-0.611,0.797,-0.186
20.448,-0.613,0.795,-0.188
20.458,-0.611,0.793,-0.184
20.467,-0.615,0.799,-0.182
20.477,-0.613,0.801,-0.184
20.487,-0.609,0.801,-0.184
20.497,-0.605,0.799,-0.182
20.507,-0.604,0.795,-0.188
20.517,-0.604,0.795,-0.182
20.527,-0.602,0.795,-0.184
20.537,-0.602,0.797,-0.184
20.547,-0.605,0.801,-0.182
20.557,-0.607,0.801,-0.188
20.567,-0.609,0.801,-0.184
20.577,-0.604,0.797,-0.182
20.587,-0.604,0.797,-0.188
20.596,-0.602,0.797,-0.186
20.606,-0.605,0.799,-0.186
20.616,-0.604,0.797,-0.188
20.626,-0.604,0.799,-0.188
20.636,-0.605,0.803,-0.188
20.646,-0.605,0.801,-0.189
20.656,-0.602,0.801,-0.186
20.666,-0.605,0.801,-0.186
20.676,-0.604,0.801,-0.188
20.686,-0.600,0.801,-0.188
20.696,-0.604,0.801,-0.189
20.706,-0.604,0.801,-0.188
20.716,-0.605,0.803,-0.188
20.725,-0.604,0.801,-0.188
20.735,-0.604,0.801,-0.189
20.745,-0.605,0.801,-0.188
20.755,-0.602,0.797,-0.191
20.765,-0.604,0.799,-0.189
20.775,-0.604,0.799,-0.186
20.785,-0.605,0.801,-0.184
20.795,-0.604,0.797,-0.188
20.805,-0.604,0.793,-0.188
20.815,-0.602,0.797,-0.186
20.825,-0.605,0.805,-0.188
20.835,-0.605,0.809,-0.188
20.845,-0.609,0.807,-0.184
20.854,-0.604,0.805,-0.188
20.864,-0.602,0.797,-0.188
20.874,-0.602,0.795,-0.189
20.884,-0.604,0.793,-0.189
20.894,-0.607,0.795,-0.186
20.904,-0.607,0.795,-0.188
20.914,-0.611,0.797,-0.188
20.924,-0.607,0.801,-0.186
20.934,-0.605,0.797,-0.184
20.944,-0.607,0.795,-0.186
20.954,-0.604,0.793,-0.186
20.964,-0.609,0.795,-0.188
20.974,-0.607,0.793,-0.188
20.983,-0.605,0.793,-0.186
20.993,-0.604,0.799,-0.182
21.003,-0.607,0.799,-0.186
21.013,-0.605,0.803,-0.186
21.023,-0.609,0.801,-0.184
21.033,-0.609,0.799,-0.182
21.043,-0.607,0.801,-0.186
21.053,-0.609,0.797,-0.188
21.063,-0.609,0.793,-0.188
21.073,-0.607,0.799,-0.186
21.083,-0.611,0.803,-0.184
21.093,-0.609,0.799,-0.188
21.103,-0.605,0.801,-0.186
21.112,-0.605,0.797,-0.184
21.122,-0.605,0.795,-0.186
21.132,-0.607,0.793,-0.184
21.142,-0.604,0.797,-0.188
21.152,-0.609,0.801,-0.182
21.162,-0.607,0.801,-0.184
21.172,-0.605,0.801,-0.184
21.182,-0.604,0.797,-0.184
21.192,-0.604,0.797,-0.186
21.202,-0.602,0.797,-0.184
21.212,-0.602,0.799,-0.182
21.222,-0.602,0.799,-0.182
21.232,-0.602,0.801,-0.182
21.241,-0.604,0.803,-0.184
21.251,-0.604,0.799,-0.184
21.261,-0.602,0.801,-0.186
21.271,-0.604,0.797,-0.182
21.281,-0.604,0.803,-0.182
21.291,-0.605,0.803,-0.186
21.301,-0.605,0.799,-0.188
21.311,-0.604,0.797,-0.184
21.321,-0.605,0.799,-0.184
21.331,-0.607,0.797,-0.186
21.341,-0.604,0.799,-0.186
21.351,-0.607,0.799,-0.184
21.360,-0.605,0.803,-0.186
21.370,-0.605,0.803,-0.188
21.380,-0.605,0.801,-0.188
21.390,-0.605,0.801,-0.186
21.400,-0.604,0.797,-0.182
21.410,-0.602,0.797,-0.184
21.420,-0.605,0.799,-0.186
21.430,-0.609,0.805,-0.189
21.440,-0.604,0.799,-0.186
21.450,-0.607,0.801,-0.186
21.460,-0.605,0.799,-0.184
21.470,-0.607,0.801,-0.184
21.480,-0.604,0.809,-0.184
21.489,-0.605,0.807,-0.182
21.499,-0.604,0.801,-0.184
21.509,-0.602,0.801,-0.184
21.519,-0.602,0.793,-0.184
21.529,-0.604,0.795,-0.186
21.539,-0.607,0.795,-0.186
21.549,-0.611,0.803,-0.188
21.559,-0.607,0.803,-0.186
21.569,-0.609,0.801,-0.184
21.579,-0.607,0.797,-0.186
21.589,-0.607,0.797,-0.189
21.599,-0.605,0.793,-0.186
21.609,-0.600,0.793,-0.186
21.618,-0.604,0.797,-0.188
21.628,-0.600,0.797,-0.186
21.638,-0.604,0.801,-0.184
21.648,-0.604,0.803,-0.184
21.658,-0.604,0.805,-0.184
21.668,-0.605,0.801,-0.182
21.678,-0.604,0.803,-0.184
21.688,-0.605,0.801,-0.188
21.698,-0.605,0.799,-0.188
21.708,-0.604,0.795,-0.186
21.718,-0.605,0.797,-0.186
21.728,-0.611,0.803,-0.184
21.738,-0.609,0.803,-0.184
21.747,-0.609,0.803,-0.186
21.757,-0.605,0.795,-0.188
21.767,-0.607,0.793,-0.186
21.777,-0.604,0.791,-0.186
21.787,-0.605,0.797,-0.186
21.797,-0.605,0.801,-0.182
21.807,-0.607,0.805,-0.184
21.817,-0.605,0.801,-0.184
21.827,-0.604,0.801,-0.184
21.837,-0.600,0.797,-0.186
21.847,-0.600,0.795,-0.186
21.857,-0.598,0.797,-0.182
21.867,-0.604,0.797,-0.182
21.876,-0.605,0.801,-0.186
21.886,-0.604,0.801,-0.182
21.896,-0.604,0.805,-0.186
21.906,-0.605,0.801,-0.186
21.916,-0.604,0.801,-0.184
21.926,-0.604,0.797,-0.188
21.936,-0.604,0.801,-0.182
21.946,-0.605,0.801,-0.188
21.956,-0.607,0.797,-0.186
21.966,-0.609,0.797,-0.188
21.976,-0.605,0.797,-0.188
21.986,-0.607,0.801,-0.184
21.996,-0.605,0.799,-0.186
22.005,-0.607,0.799,-0.186
22.015,-0.605,0.801,-0.186
22.025,-0.602,0.803,-0.184
22.035,-0.604,0.799,-0.184
22.045,-0.605,0.801,-0.184
22.055,-0.604,0.801,-0.182
22.065,-0.602,0.799,-0.184
22.075,-0.604,0.801,-0.182
22.085,-0.604,0.799,-0.186
22.095,-0.607,0.801,-0.184
22.105,-0.607,0.803,-0.186
22.115,-0.605,0.801,-0.188
22.125,-0.605,0.797,-0.186
22.134,-0.604,0.797,-0.186
22.144,-0.602,0.795,-0.182
22.154,-0.602,0.803,-0.184
22.164,-0.604,0.809,-0.182
22.174,-0.604,0.809,-0.182
22.184,-0.605,0.803,-0.186
22.194,-0.605,0.797,-0.186
22.204,-0.600,0.795,-0.186
22.214,-0.605,0.795,-0.186
22.224,-0.605,0.799,-0.186
22.234,-0.607,0.801,-0.182
22.244,-0.607,0.801,-0.186
22.254,-0.607,0.801,-0.184
22.263,-0.604,0.793,-0.184
22.273,-0.604,0.791,-0.184
22.283,-0.607,0.793,-0.186
22.293,-0.607,0.791,-0.188
22.303,-0.605,0.799,-0.186
22.313,-0.602,0.801,-0.184
22.323,-0.604,0.799,-0.182
22.333,-0.605,0.801,-0.182
22.343,-0.604,0.803,-0.182
22.353,-0.605,0.803,-0.182
22.363,-0.605,0.803,-0.186
22.373,-0.605,0.799,-0.186
22.383,-0.600,0.793,-0.186
22.392,-0.609,0.799,-0.186
22.402,-0.609,0.803,-0.186
22.412,-0.605,0.803,-0.186
22.422,-0.605,0.799,-0.186
22.432,-0.604,0.799,-0.184
22.442,-0.605,0.797,-0.186
22.452,-0.604,0.795,-0.188
22.462,-0.602,0.799,-0.184
22.472,-0.604,0.803,-0.184
22.482,-0.605,0.807,-0.186
22.492,-0.604,0.803,-0.186
22.502,-0.604,0.801,-0.188
22.512,-0.598,0.797,-0.188
22.521,-0.600,0.795,-0.186
22.531,-0.602,0.803,-0.186
22.541,-0.600,0.803,-0.186
22.551,-0.598,0.803,-0.184
22.561,-0.598,0.803,-0.186
22.571,-0.602,0.805,-0.186
22.581,-0.602,0.805,-0.184
22.591,-0.600,0.801,-0.184
22.601,-0.605,0.799,-0.186
22.611,-0.604,0.797,-0.186
22.621,-0.604,0.797,-0.188
22.631,-0.605,0.797,-0.186
22.641,-0.607,0.801,-0.188
22.650,-0.609,0.799,-0.189
22.660,-0.605,0.799,-0.189
22.670,-0.605,0.797,-0.186
22.680,-0.604,0.799,-0.186
22.690,-0.604,0.797,-0.184
22.700,-0.604,0.799,-0.188
22.710,-0.604,0.803,-0.182
22.720,-0.602,0.801,-0.184
22.730,-0.600,0.799,-0.186
22.740,-0.604,0.801,-0.186
22.750,-0.605,0.801,-0.182
22.760,-0.604,0.797,-0.186
22.770,-0.604,0.801,-0.186
22.779,-0.604,0.799,-0.188
22.789,-0.605,0.799,-0.186
22.799,-0.607,0.799,-0.184
22.809,-0.609,0.797,-0.188
22.819,-0.607,0.793,-0.186
22.829,-0.609,0.803,-0.188
22.839,-0.607,0.795,-0.189
22.849,-0.607,0.797,-0.186
22.859,-0.609,0.795,-0.189
22.869,-0.607,0.797,-0.184
22.879,-0.604,0.803,-0.182
22.889,-0.604,0.809,-0.186
22.899,-0.604,0.805,-0.184
22.908,-0.604,0.799,-0.184
22.918,-0.602,0.793,-0.184
22.928,-0.604,0.789,-0.188
22.938,-0.605,0.793,-0.184
22.948,-0.609,0.797,-0.188
22.958,-0.611,0.799,-0.186
22.968,-0.613,0.805,-0.188
22.978,-0.611,0.801,-0.188
22.988,-0.607,0.797,-0.188
22.998,-0.604,0.793,-0.188
23.008,-0.604,0.789,-0.186
23.018,-0.602,0.791,-0.188
23.028,-0.602,0.795,-0.186
23.037,-0.604,0.797,-0.186
23.047,-0.600,0.801,-0.186
23.057,-0.605,0.805,-0.186
23.067,-0.604,0.803,-0.180
23.077,-0.605,0.801,-0.180
23.087,-0.604,0.801,-0.186
23.097,-0.605,0.799,-0.184
23.107,-0.602,0.791,-0.186
23.117,-0.607,0.797,-0.184
23.127,-0.609,0.799,-0.186
23.137,-0.609,0.801,-0.188
23.147,-0.611,0.803,-0.182
23.157,-0.607,0.799,-0.184
23.166,-0.609,0.791,-0.189
23.176,-0.605,0.793,-0.188
23.186,-0.607,0.797,-0.186
23.196,-0.605,0.799,-0.188
23.206,-0.604,0.803,-0.188
23.216,-0.605,0.801,-0.186
23.226,-0.602,0.803,-0.184
23.236,-0.602,0.799,-0.184
23.246,-0.604,0.799,-0.184
23.256,-0.602,0.799,-0.184
23.266,-0.602,0.801,-0.184
23.276,-0.602,0.803,-0.182
23.286,-0.605,0.803,-0.188
23.295,-0.604,0.803,-0.186
23.305,-0.605,0.797,-0.184
23.315,-0.605,0.797,-0.186
23.325,-0.605,0.795,-0.186
23.335,-0.607,0.797,-0.188
23.345,-0.609,0.799,-0.186
23.355,-0.609,0.797,-0.188
23.365,-0.609,0.795,-0.188
23.375,-0.607,0.795,-0.191
23.385,-0.604,0.797,-0.188
23.395,-0.607,0.797,-0.186
23.405,-0.602,0.799,-0.186
23.415,-0.604,0.801,-0.184
23.424,-0.605,0.797,-0.184
23.434,-0.604,0.801,-0.188
23.444,-0.607,0.803,-0.182
23.454,-0.605,0.801,-0.188
23.464,-0.607,0.801,-0.184
23.474,-0.609,0.801,-0.189
23.484,-0.607,0.801,-0.184
23.494,-0.605,0.801,-0.184
23.504,-0.604,0.803,-0.186
23.514,-0.605,0.801,-0.182
23.524,-0.604,0.795,-0.186
23.534,-0.605,0.797,-0.184
23.544,-0.605,0.795,-0.186
23.553,-0.605,0.797,-0.184
23.563,-0.609,0.801,-0.186
23.573,-0.607,0.801,-0.188
23.583,-0.605,0.797,-0.188
23.593,-0.605,0.795,-0.188
23.603,-0.605,0.799,-0.184
23.613,-0.605,0.803,-0.182
23.623,-0.605,0.811,-0.182
23.633,-0.605,0.807,-0.182
23.643,-0.602,0.801,-0.186
23.653,-0.602,0.793,-0.182
23.663,-0.605,0.789,-0.184
23.673,-0.609,0.793,-0.182
23.682,-0.609,0.799,-0.182
23.692,-0.609,0.801,-0.184
23.702,-0.613,0.805,-0.184
23.712,-0.607,0.801,-0.182
23.722,-0.607,0.799,-0.184
23.732,-0.607,0.795,-0.182
23.742,-0.604,0.793,-0.184
23.752,-0.604,0.791,-0.184
23.762,-0.604,0.797,-0.178
23.772,-0.605,0.797,-0.180
23.782,-0.605,0.799,-0.182
23.792,-0.607,0.799,-0.178
23.802,-0.607,0.801,-0.184
23.811,-0.609,0.801,-0.182
23.821,-0.611,0.803,-0.182
23.831,-0.607,0.797,-0.182
23.841,-0.602,0.795,-0.180
23.851,-0.609,0.801,-0.182
23.861,-0.605,0.803,-0.182
23.871,-0.605,0.805,-0.182
23.881,-0.609,0.801,-0.184
23.891,-0.607,0.797,-0.184
23.901,-0.607,0.797,-0.182
23.911,-0.604,0.799,-0.186
23.921,-0.605,0.803,-0.180
23.931,-0.605,0.807,-0.180
23.940,-0.605,0.803,-0.180
23.950,-0.604,0.805,-0.182
23.960,-0.604,0.801,-0.180
23.970,-0.602,0.797,-0.180
23.980,-0.602,0.801,-0.180
23.990,-0.604,0.801,-0.180
24.000,-0.604,0.799,-0.182
24.010,-0.605,0.803,-0.178
24.020,-0.607,0.803,-0.178
24.030,-0.609,0.803,-0.182
24.040,-0.605,0.799,-0.178
24.050,-0.609,0.801,-0.178
24.060,-0.609,0.801,-0.184
24.069,-0.607,0.803,-0.182
24.079,-0.605,0.799,-0.180
24.089,-0.605,0.799,-0.184
24.099,-0.605,0.801,-0.184
24.109,-0.604,0.801,-0.180
24.119,-0.607,0.801,-0.180
24.129,-0.605,0.805,-0.180
24.139,-0.605,0.801,-0.178
24.149,-0.607,0.801,-0.180
24.159,-0.607,0.799,-0.180
24.169,-0.604,0.799,-0.180
24.179,-0.605,0.799,-0.180
24.189,-0.607,0.799,-0.180
24.198,-0.605,0.801,-0.180
24.208,-0.605,0.803,-0.182
24.218,-0.607,0.795,-0.180
24.228,-0.602,0.795,-0.178
24.238,-0.609,0.803,-0.180
24.248,-0.605,0.809,-0.182
24.258,-0.607,0.805,-0.180
24.268,-0.605,0.805,-0.180
24.278,-0.604,0.801,-0.178
24.288,-0.602,0.797,-0.180
24.298,-0.607,0.791,-0.178
24.308,-0.609,0.799,-0.182
24.318,-0.609,0.803,-0.178
24.327,-0.611,0.803,-0.180
24.337,-0.613,0.805,-0.180
24.347,-0.611,0.797,-0.178
24.357,-0.605,0.795,-0.178
24.367,-0.602,0.793,-0.178
24.377,-0.600,0.795,-0.180
24.387,-0.604,0.793,-0.178
24.397,-0.602,0.793,-0.176
24.407,-0.605,0.799,-0.178
24.417,-0.609,0.797,-0.178
24.427,-0.607,0.799,-0.178
24.437,-0.611,0.799,-0.180
24.447,-0.611,0.805,-0.180
24.456,-0.611,0.799,-0.182
24.466,-0.607,0.797,-0.182
24.476,-0.611,0.801,-0.178
24.486,-0.611,0.803,-0.182
24.496,-0.607,0.805,-0.182
24.506,-0.605,0.803,-0.182
24.516,-0.602,0.795,-0.184
24.526,-0.604,0.797,-0.182
24.536,-0.605,0.803,-0.178
24.546,-0.602,0.801,-0.180
24.556,-0.605,0.805,-0.184
24.566,-0.604,0.803,-0.180
24.576,-0.604,0.801,-0.178
24.585,-0.600,0.801,-0.180
24.595,-0.600,0.797,-0.180
24.605,-0.602,0.797,-0.178
24.615,-0.604,0.799,-0.180
24.625,-0.607,0.801,-0.178
24.635,-0.604,0.803,-0.176
24.645,-0.607,0.805,-0.178
24.655,-0.605,0.803,-0.178
24.665,-0.605,0.801,-0.178
24.675,-0.602,0.801,-0.178
24.685,-0.600,0.799,-0.174
24.695,-0.598,0.797,-0.178
24.705,-0.602,0.799,-0.178
24.714,-0.602,0.801,-0.180
24.724,-0.604,0.801,-0.182
24.734,-0.605,0.805,-0.180
24.744,-0.605,0.805,-0.178
24.754,-0.605,0.803,-0.184
24.764,-0.604,0.803,-0.180
24.774,-0.604,0.805,-0.178
24.784,-0.602,0.799,-0.182
24.794,-0.602,0.801,-0.178
24.804,-0.600,0.799,-0.182
24.814,-0.598,0.795,-0.178
24.824,-0.604,0.805,-0.180
24.834,-0.602,0.809,-0.178
24.843,-0.604,0.812,-0.180
24.853,-0.609,0.814,-0.176
24.863,-0.604,0.807,-0.178
24.873,-0.602,0.797,-0.178
24.883,-0.604,0.795,-0.180
24.893,-0.605,0.797,-0.180
24.903,-0.607,0.801,-0.174
24.913,-0.605,0.801,-0.174
24.923,-0.602,0.805,-0.176
24.933,-0.607,0.803,-0.176
24.943,-0.605,0.799,-0.176
24.953,-0.602,0.793,-0.178
24.963,-0.604,0.795,-0.178
24.972,-0.604,0.797,-0.176
24.982,-0.602,0.799,-0.178
24.992,-0.600,0.801,-0.174
25.002,-0.602,0.801,-0.176
25.012,-0.600,0.801,-0.178
25.022,-0.605,0.801,-0.176
25.032,-0.609,0.805,-0.180
25.042,-0.607,0.803,-0.180
25.052,-0.609,0.799,-0.178
25.062,-0.607,0.797,-0.182
25.072,-0.609,0.805,-0.180
25.082,-0.611,0.805,-0.180
25.092,-0.611,0.809,-0.178
25.101,-0.604,0.803,-0.180
25.111,-0.604,0.801,-0.178
25.121,-0.604,0.799,-0.178
25.131,-0.600,0.797,-0.178
25.141,-0.604,0.801,-0.180
25.151,-0.604,0.799,-0.178
25.161,-0.605,0.803,-0.184
25.171,-0.607,0.801,-0.180
25.181,-0.607,0.803,-0.178
25.191,-0.605,0.803,-0.182
25.201,-0.604,0.805,-0.180
25.211,-0.602,0.803,-0.182
25.221,-0.604,0.807,-0.180
25.230,-0.602,0.801,-0.182
25.240,-0.602,0.799,-0.180
25.250,-0.604,0.801,-0.184
25.260,-0.602,0.801,-0.178
25.270,-0.605,0.801,-0.182
25.280,-0.607,0.801,-0.178
25.290,-0.605,0.801,-0.178
25.300,-0.605,0.803,-0.182
25.310,-0.607,0.803,-0.182
25.320,-0.604,0.803,-0.182
25.330,-0.604,0.799,-0.184
25.340,-0.602,0.795,-0.180
25.350,-0.604,0.795,-0.182
25.359,-0.605,0.797,-0.182
25.369,-0.604,0.797,-0.184
25.379,-0.605,0.793,-0.184
25.389,-0.607,0.797,-0.180
25.399,-0.611,0.803,-0.180
25.409,-0.609,0.807,-0.180
25.419,-0.611,0.807,-0.184
25.429,-0.607,0.807,-0.184
25.439,-0.605,0.799,-0.180
25.449,-0.602,0.795,-0.184
25.459,-0.607,0.789,-0.186
25.469,-0.609,0.795,-0.184
25.479,-0.609,0.799,-0.184
25.488,-0.611,0.801,-0.186
25.498,-0.615,0.805,-0.184
25.508,-0.611,0.801,-0.180
25.518,-0.609,0.801,-0.184
25.528,-0.605,0.795,-0.182
25.538,-0.604,0.793,-0.180
25.548,-0.602,0.795,-0.180
25.558,-0.602,0.793,-0.182
25.568,-0.604,0.797,-0.182
25.578,-0.602,0.799,-0.180
25.588,-0.605,0.799,-0.180
25.598,-0.609,0.801,-0.180
25.608,-0.609,0.805,-0.186
25.617,-0.611,0.799,-0.184
25.627,-0.609,0.801,-0.186
25.637,-0.611,0.797,-0.184
25.647,-0.605,0.793,-0.182
25.657,-0.611,0.799,-0.178
25.667,-0.607,0.801,-0.182
25.677,-0.604,0.799,-0.182
25.687,-0.604,0.799,-0.182
25.697,-0.604,0.797,-0.182
25.707,-0.604,0.797,-0.184
25.717,-0.604,0.801,-0.186
25.727,-0.607,0.805,-0.180
25.737,-0.605,0.807,-0.184
25.746,-0.604,0.807,-0.180
25.756,-0.604,0.801,-0.184
25.766,-0.604,0.797,-0.182
25.776,-0.602,0.799,-0.184
25.786,-0.602,0.799,-0.182
25.796,-0.604,0.801,-0.184
25.806,-0.604,0.799,-0.182
25.816,-0.604,0.803,-0.184
25.826,-0.602,0.805,-0.180
25.836,-0.604,0.805,-0.182
25.846,-0.602,0.803,-0.180
25.856,-0.602,0.803,-0.180
25.866,-0.600,0.801,-0.182
25.875,-0.598,0.799,-0.180
25.885,-0.604,0.799,-0.182
25.895,-0.602,0.799,-0.186
25.905,-0.604,0.801,-0.186
25.915,-0.604,0.801,-0.188
25.925,-0.607,0.803,-0.188
25.935,-0.607,0.805,-0.182
25.945,-0.605,0.803,-0.184
25.955,-0.604,0.801,-0.182
25.965,-0.604,0.809,-0.180
25.975,-0.602,0.807,-0.184
25.985,-0.598,0.801,-0.184
25.995,-0.598,0.799,-0.180
26.004,-0.602,0.799,-0.180
26.014,-0.600,0.803,-0.180
26.024,-0.602,0.812,-0.180
26.034,-0.604,0.814,-0.180
26.044,-0.604,0.811,-0.182
26.054,-0.605,0.803,-0.178
26.064,-0.604,0.797,-0.184
26.074,-0.604,0.799,-0.184
26.084,-0.602,0.797,-0.184
26.094,-0.605,0.799,-0.188
26.104,-0.605,0.799,-0.184
26.114,-0.609,0.801,-0.184
26.124,-0.607,0.797,-0.182
26.133,-0.604,0.797,-0.178
26.143,-0.607,0.799,-0.180
26.153,-0.604,0.799,-0.182
26.163,-0.604,0.799,-0.184
26.173,-0.600,0.797,-0.182
26.183,-0.600,0.801,-0.182
26.193,-0.600,0.803,-0.180
26.203,-0.600,0.803,-0.182
26.213,-0.602,0.799,-0.184
26.223,-0.604,0.801,-0.182
26.233,-0.607,0.803,-0.184
26.243,-0.609,0.801,-0.184
26.253,-0.611,0.797,-0.186
26.262,-0.609,0.797,-0.182
26.272,-0.615,0.805,-0.180
26.282,-0.607,0.803,-0.182
26.292,-0.605,0.801,-0.180
26.302,-0.602,0.803,-0.182
26.312,-0.602,0.797,-0.180
26.322,-0.602,0.795,-0.182
26.332,-0.602,0.801,-0.180
26.342,-0.605,0.803,-0.182
26.352,-0.607,0.805,-0.186
26.362,-0.605,0.807,-0.186
26.372,-0.605,0.803,-0.180
26.382,-0.605,0.801,-0.184
26.391,-0.604,0.803,-0.182
26.401,-0.600,0.801,-0.182
26.411,-0.600,0.801,-0.182
26.421,-0.602,0.803,-0.178
26.431,-0.602,0.801,-0.182
26.441,-0.604,0.799,-0.186
26.451,-0.602,0.799,-0.180
26.461,-0.604,0.797,-0.184
26.471,-0.604,0.799,-0.184
26.481,-0.605,0.801,-0.182
26.491,-0.604,0.803,-0.182
26.501,-0.604,0.803,-0.184
26.511,-0.604,0.803,-0.184
26.520,-0.605,0.799,-0.184
26.530,-0.605,0.803,-0.184
26.540,-0.604,0.801,-0.186
26.550,-0.604,0.797,-0.182
26.560,-0.607,0.799,-0.184
26.570,-0.605,0.801,-0.184
26.580,-0.607,0.801,-0.180
26.590,-0.602,0.801,-0.184
26.600,-0.605,0.801,-0.186
26.610,-0.607,0.803,-0.182
26.620,-0.604,0.805,-0.182
26.630,-0.607,0.803,-0.182
26.640,-0.604,0.801,-0.182
26.649,-0.605,0.799,-0.182
26.659,-0.604,0.797,-0.182
26.669,-0.604,0.797,-0.182
26.679,-0.605,0.797,-0.184
26.689,-0.605,0.801,-0.182
26.699,-0.607,0.801,-0.184
26.709,-0.607,0.799,-0.184
26.719,-0.607,0.799,-0.184
26.729,-0.607,0.797,-0.182
26.739,-0.607,0.799,-0.182
26.749,-0.609,0.799,-0.184
26.759,-0.607,0.801,-0.184
26.769,-0.605,0.795,-0.186
26.778,-0.605,0.793,-0.182
26.788,-0.602,0.795,-0.184
26.798,-0.605,0.803,-0.186
26.808,-0.605,0.811,-0.182
26.818,-0.607,0.809,-0.182
26.828,-0.605,0.803,-0.182
26.838,-0.600,0.797,-0.182
26.848,-0.604,0.793,-0.188
26.858,-0.605,0.797,-0.184
26.868,-0.609,0.795,-0.188
26.878,-0.607,0.803,-0.182
26.888,-0.609,0.803,-0.182
26.898,-0.609,0.797,-0.182
26.907,-0.609,0.795,-0.184
26.917,-0.605,0.793,-0.182
26.927,-0.605,0.793,-0.186
26.937,-0.605,0.797,-0.182
26.947,-0.605,0.799,-0.184
26.957,-0.604,0.799,-0.182
26.967,-0.605,0.801,-0.180
26.977,-0.605,0.801,-0.180
26.987,-0.605,0.801,-0.180
26.997,-0.605,0.801,-0.178
27.007,-0.604,0.799,-0.184
27.017,-0.605,0.801,-0.184
27.027,-0.609,0.799,-0.188
27.036,-0.605,0.797,-0.184
27.046,-0.607,0.799,-0.184
27.056,-0.611,0.805,-0.184
27.066,-0.609,0.803,-0.182
27.076,-0.605,0.803,-0.184
27.086,-0.604,0.795,-0.184
27.096,-0.600,0.795,-0.184
27.106,-0.605,0.797,-0.186
27.116,-0.604,0.799,-0.184
27.126,-0.604,0.805,-0.184
27.136,-0.605,0.807,-0.182
27.146,-0.604,0.805,-0.182
27.156,-0.600,0.803,-0.182
27.165,-0.602,0.799,-0.184
27.175,-0.600,0.799,-0.184
27.185,-0.600,0.801,-0.186
27.195,-0.602,0.801,-0.180
27.205,-0.604,0.805,-0.182
27.215,-0.602,0.801,-0.182
27.225,-0.604,0.801,-0.186
27.235,-0.605,0.805,-0.182
27.245,-0.602,0.799,-0.182
27.255,-0.604,0.801,-0.180
27.265,-0.605,0.801,-0.184
27.275,-0.605,0.801,-0.186
27.285,-0.605,0.803,-0.184
27.294,-0.600,0.799,-0.186
27.304,-0.605,0.797,-0.184
27.314,-0.605,0.797,-0.184
27.324,-0.605,0.799,-0.188
27.334,-0.607,0.799,-0.182
27.344,-0.607,0.803,-0.186
27.354,-0.604,0.803,-0.188
27.364,-0.607,0.805,-0.186
27.374,-0.602,0.807,-0.186
27.384,-0.604,0.803,-0.180
27.394,-0.604,0.797,-0.184
27.404,-0.605,0.797,-0.184
27.414,-0.605,0.799,-0.184
27.423,-0.605,0.801,-0.182
27.433,-0.604,0.799,-0.184
27.443,-0.607,0.799,-0.186
27.453,-0.605,0.803,-0.188
27.463,-0.605,0.801,-0.182
27.473,-0.607,0.799,-0.182
27.483,-0.605,0.797,-0.186
27.493,-0.607,0.797,-0.184
27.503,-0.607,0.795,-0.180
27.513,-0.611,0.795,-0.186
27.523,-0.605,0.799,-0.184
27.533,-0.607,0.797,-0.184
27.543,-0.609,0.795,-0.186
27.552,-0.607,0.797,-0.184
27.562,-0.605,0.793,-0.182
27.572,-0.607,0.799,-0.182
27.582,-0.609,0.799,-0.184
27.592,-0.607,0.799,-0.186
27.602,-0.607,0.799,-0.186
27.612,-0.607,0.797,-0.188
27.622,-0.607,0.795,-0.186
27.632,-0.609,0.799,-0.184
27.642,-0.607,0.801,-0.186
27.652,-0.607,0.801,-0.189
27.662,-0.605,0.795,-0.189
27.672,-0.605,0.793,-0.186
27.681,-0.607,0.799,-0.184
27.691,-0.605,0.805,-0.184
27.701,-0.607,0.807,-0.184
27.711,-0.607,0.803,-0.184
27.721,-0.605,0.801,-0.182
27.731,-0.604,0.793,-0.186
27.741,-0.604,0.791,-0.188
27.751,-0.605,0.795,-0.188
27.761,-0.609,0.797,-0.186
27.771,-0.613,0.799,-0.184
27.781,-0.615,0.799,-0.188
27.791,-0.613,0.801,-0.188
27.801,-0.611,0.795,-0.184
27.810,-0.607,0.795,-0.186
27.820,-0.607,0.795,-0.186
27.830,-0.604,0.795,-0.186
27.840,-0.605,0.797,-0.184
27.850,-0.604,0.795,-0.180
27.860,-0.607,0.799,-0.180
27.870,-0.605,0.799,-0.180
27.880,-0.605,0.803,-0.184
27.890,-0.609,0.805,-0.182
27.900,-0.604,0.803,-0.184
27.910,-0.607,0.801,-0.184
27.920,-0.611,0.801,-0.182
27.930,-0.609,0.793,-0.184
27.939,-0.613,0.797,-0.186
27.949,-0.611,0.801,-0.182
27.959,-0.609,0.803,-0.182
27.969,-0.609,0.799,-0.184
27.979,-0.602,0.797,-0.186
27.989,-0.605,0.795,-0.186
27.999,-0.607,0.793,-0.182
28.009,-0.605,0.795,-0.184
28.019,-0.605,0.803,-0.182
28.029,-0.607,0.805,-0.182
28.039,-0.607,0.801,-0.182
28.049,-0.605,0.801,-0.184
28.059,-0.604,0.797,-0.182
28.068,-0.604,0.797,-0.182
28.078,-0.602,0.797,-0.184
28.088,-0.602,0.799,-0.182
28.098,-0.605,0.799,-0.182
28.108,-0.605,0.801,-0.180
28.118,-0.607,0.801,-0.182
28.128,-0.607,0.797,-0.182
28.138,-0.607,0.795,-0.182
28.148,-0.609,0.799,-0.182
28.158,-0.605,0.797,-0.186
28.168,-0.609,0.799,-0.184
28.178,-0.611,0.801,-0.182
28.188,-0.609,0.797,-0.184
28.197,-0.611,0.799,-0.184
28.207,-0.611,0.795,-0.186
28.217,-0.613,0.795,-0.182
28.227,-0.611,0.795,-0.186
28.237,-0.609,0.799,-0.184
28.247,-0.609,0.799,-0.178
28.257,-0.607,0.797,-0.182
28.267,-0.605,0.797,-0.182
28.277,-0.607,0.799,-0.186
28.287,-0.607,0.799,-0.184
28.297,-0.609,0.797,-0.184
28.307,-0.611,0.797,-0.184
28.317,-0.611,0.795,-0.184
28.326,-0.609,0.799,-0.186
28.336,-0.609,0.797,-0.184
28.346,-0.605,0.799,-0.186
28.356,-0.609,0.797,-0.180
28.366,-0.607,0.797,-0.180
28.376,-0.607,0.795,-0.180
28.386,-0.607,0.793,-0.182
28.396,-0.609,0.795,-0.184
28.406,-0.607,0.793,-0.182
28.416,-0.611,0.795,-0.184
28.426,-0.613,0.797,-0.184
28.436,-0.613,0.795,-0.184
28.446,-0.611,0.797,-0.188
28.455,-0.611,0.797,-0.186
28.465,-0.609,0.797,-0.184
28.475,-0.609,0.797,-0.186
28.485,-0.609,0.797,-0.184
28.495,-0.609,0.797,-0.180
28.505,-0.607,0.795,-0.186
28.515,-0.605,0.789,-0.184
28.525,-0.609,0.795,-0.186
28.535,-0.611,0.805,-0.182
28.545,-0.613,0.805,-0.182
28.555,-0.613,0.805,-0.186
28.565,-0.611,0.807,-0.186
28.575,-0.611,0.797,-0.186
28.584,-0.609,0.791,-0.188
28.594,-0.611,0.789,-0.186
28.604,-0.611,0.797,-0.186
28.614,-0.613,0.801,-0.184
28.624,-0.613,0.799,-0.184
28.634,-0.613,0.799,-0.182
28.644,-0.609,0.797,-0.182
28.654,-0.605,0.793,-0.180
28.664,-0.605,0.793,-0.178
28.674,-0.607,0.791,-0.184
28.684,-0.605,0.793,-0.182
28.694,-0.605,0.793,-0.180
28.704,-0.607,0.793,-0.180
28.713,-0.613,0.795,-0.182
28.723,-0.611,0.797,-0.182
28.733,-0.613,0.799,-0.182
28.743,-0.615,0.797,-0.182
28.753,-0.615,0.795,-0.182
28.763,-0.617,0.797,-0.184
28.773,-0.613,0.789,-0.184
28.783,-0.613,0.793,-0.186
28.793,-0.617,0.801,-0.180
28.803,-0.611,0.801,-0.182
28.813,-0.611,0.799,-0.180
28.823,-0.607,0.793,-0.182
28.833,-0.611,0.793,-0.182
28.842,-0.611,0.795,-0.182
28.852,-0.609,0.797,-0.182
28.862,-0.615,0.801,-0.182
28.872,-0.613,0.803,-0.180
28.882,-0.611,0.801,-0.184
28.892,-0.607,0.797,-0.184
28.902,-0.607,0.793,-0.184
28.912,-0.605,0.797,-0.178
28.922,-0.605,0.795,-0.178
28.932,-0.609,0.793,-0.178
28.942,-0.609,0.795,-0.180
28.952,-0.611,0.795,-0.182
28.962,-0.609,0.795,-0.182
28.971,-0.611,0.793,-0.182
28.981,-0.613,0.795,-0.182
28.991,-0.611,0.795,-0.182
29.001,-0.613,0.793,-0.186
29.011,-0.611,0.791,-0.182
29.021,-0.613,0.791,-0.182
29.031,-0.613,0.793,-0.186
29.041,-0.613,0.795,-0.184
29.051,-0.611,0.795,-0.184
29.061,-0.611,0.797,-0.186
29.071,-0.611,0.797,-0.184
29.081,-0.611,0.795,-0.182
29.091,-0.613,0.795,-0.184
29.100,-0.609,0.795,-0.186
29.110,-0.613,0.795,-0.182
29.120,-0.611,0.797,-0.188
29.130,-0.613,0.795,-0.188
29.140,-0.609,0.797,-0.186
29.150,-0.613,0.795,-0.180
29.160,-0.611,0.799,-0.184
29.170,-0.613,0.799,-0.186
29.180,-0.615,0.799,-0.184
29.190,-0.611,0.793,-0.188
29.200,-0.611,0.789,-0.186
29.210,-0.609,0.789,-0.186
29.220,-0.611,0.797,-0.184
29.229,-0.609,0.799,-0.186
29.239,-0.611,0.799,-0.184
29.249,-0.609,0.799,-0.184
29.259,-0.605,0.797,-0.186
29.269,-0.607,0.789,-0.184
29.279,-0.609,0.787,-0.186
29.289,-0.613,0.791,-0.186
29.299,-0.613,0.797,-0.186
29.309,-0.613,0.801,-0.184
29.319,-0.609,0.799,-0.186
29.329,-0.609,0.799,-0.186
29.339,-0.607,0.797,-0.186
29.349,-0.607,0.793,-0.184
29.358,-0.600,0.789,-0.186
29.368,-0.605,0.791,-0.184
29.378,-0.607,0.793,-0.184
29.388,-0.605,0.795,-0.188
29.398,-0.609,0.799,-0.186
29.408,-0.607,0.797,-0.191
29.418,-0.611,0.799,-0.188
29.428,-0.611,0.799,-0.188
29.438,-0.609,0.795,-0.188
29.448,-0.609,0.797,-0.188
29.458,-0.609,0.795,-0.191
29.468,-0.607,0.791,-0.189
29.478,-0.609,0.797,-0.188
29.487,-0.611,0.799,-0.186
29.497,-0.609,0.801,-0.186
29.507,-0.609,0.799,-0.188
29.517,-0.605,0.795,-0.186
29.527,-0.607,0.795,-0.189
29.537,-0.605,0.795,-0.188
29.547,-0.609,0.797,-0.189
29.557,-0.609,0.801,-0.188
29.567,-0.607,0.801,-0.188
29.577,-0.605,0.799,-0.186
29.587,-0.604,0.801,-0.189
29.597,-0.605,0.799,-0.189
29.607,-0.605,0.795,-0.184
29.616,-0.604,0.795,-0.186
29.626,-0.604,0.795,-0.184
29.636,-0.604,0.797,-0.188
29.646,-0.605,0.799,-0.188
29.656,-0.604,0.797,-0.186
29.666,-0.605,0.797,-0.188
29.676,-0.607,0.799,-0.186
29.686,-0.607,0.793,-0.189
29.696,-0.613,0.795,-0.191
29.706,-0.609,0.795,-0.189
29.716,-0.607,0.797,-0.191
29.726,-0.609,0.797,-0.188
29.736,-0.607,0.795,-0.189
29.745,-0.609,0.797,-0.189
29.755,-0.605,0.795,-0.188
29.765,-0.605,0.797,-0.186
29.775,-0.609,0.795,-0.186
29.785,-0.604,0.795,-0.188
29.795,-0.605,0.795,-0.189
29.805,-0.607,0.797,-0.188
29.815,-0.605,0.797,-0.188
29.825,-0.609,0.797,-0.184
29.835,-0.607,0.801,-0.188
29.845,-0.611,0.799,-0.186
29.855,-0.611,0.799,-0.189
29.865,-0.609,0.795,-0.188
29.874,-0.609,0.789,-0.188
29.884,-0.609,0.795,-0.189
29.894,-0.609,0.797,-0.189
29.904,-0.609,0.803,-0.188
29.914,-0.609,0.803,-0.188
29.924,-0.609,0.801,-0.186
29.934,-0.605,0.793,-0.186
29.944,-0.609,0.795,-0.186
29.954,-0.609,0.793,-0.184
29.964,-0.609,0.797,-0.186
29.974,-0.611,0.795,-0.184
29.984,-0.609,0.797,-0.188
29.994,-0.615,0.795,-0.184
30.003,-0.611,0.793,-0.188
30.013,-0.611,0.789,-0.186
30.023,-0.611,0.791,-0.186
30.033,-0.609,0.793,-0.184
30.043,-0.609,0.793,-0.186
30.053,-0.607,0.799,-0.184
30.063,-0.611,0.795,-0.182
30.073,-0.609,0.799,-0.186
30.083,-0.607,0.797,-0.184
30.093,-0.607,0.799,-0.186
30.103,-0.609,0.801,-0.186
30.113,-0.609,0.795,-0.184
30.123,-0.611,0.799,-0.184
30.132,-0.609,0.791,-0.186
30.142,-0.607,0.789,-0.184
30.152,-0.609,0.797,-0.188
30.162,-0.613,0.799,-0.186
30.172,-0.611,0.799,-0.184
30.182,-0.609,0.797,-0.188
30.192,-0.607,0.791,-0.188
30.202,-0.607,0.791,-0.186
30.212,-0.609,0.795,-0.186
30.222,-0.609,0.797,-0.188
30.232,-0.609,0.801,-0.186
30.242,-0.611,0.801,-0.184
30.251,-0.607,0.797,-0.186
30.261,-0.609,0.797,-0.184
30.271,-0.604,0.795,-0.188
30.281,-0.604,0.797,-0.184
30.291,-0.605,0.797,-0.184
30.301,-0.605,0.797,-0.184
30.311,-0.605,0.801,-0.182
30.321,-0.604,0.799,-0.186
30.331,-0.607,0.799,-0.182
30.341,-0.607,0.797,-0.184
30.351,-0.607,0.797,-0.186
30.361,-0.604,0.799,-0.182
30.371,-0.605,0.797,-0.186
30.380,-0.607,0.799,-0.186
30.390,-0.605,0.793,-0.184
30.400,-0.607,0.795,-0.189
30.410,-0.605,0.797,-0.188
30.420,-0.605,0.795,-0.188
30.430,-0.607,0.797,-0.186
30.440,-0.609,0.797,-0.188
30.450,-0.607,0.799,-0.186
30.460,-0.605,0.795,-0.184
30.470,-0.605,0.799,-0.189
30.480,-0.605,0.799,-0.186
30.490,-0.607,0.795,-0.186
30.500,-0.609,0.799,-0.188
30.509,-0.604,0.801,-0.191
30.519,-0.607,0.799,-0.186
30.529,-0.605,0.799,-0.186
30.539,-0.605,0.795,-0.188
30.549,-0.604,0.799,-0.188
30.559,-0.605,0.801,-0.189
30.569,-0.609,0.801,-0.189
30.579,-0.609,0.799,-0.189
30.589,-0.604,0.795,-0.189
30.599,-0.607,0.791,-0.188
30.609,-0.607,0.789,-0.191
30.619,-0.609,0.793,-0.191
30.629,-0.611,0.797,-0.189
30.638,-0.613,0.801,-0.189
30.648,-0.613,0.797,-0.188
30.658,-0.615,0.797,-0.189
30.668,-0.607,0.791,-0.191
30.678,-0.605,0.787,-0.188
30.688,-0.605,0.791,-0.191
30.698,-0.609,0.789,-0.191
30.708,-0.609,0.793,-0.188
30.718,-0.609,0.795,-0.186
30.728,-0.609,0.793,-0.188
30.738,-0.607,0.797,-0.186
30.748,-0.607,0.801,-0.191
30.758,-0.605,0.797,-0.188
30.767,-0.609,0.795,-0.188
30.777,-0.609,0.795,-0.191
30.787,-0.607,0.795,-0.189
30.797,-0.607,0.791,-0.189
30.807,-0.609,0.795,-0.189
30.817,-0.611,0.803,-0.188
30.827,-0.611,0.803,-0.188
30.837,-0.609,0.799,-0.189
30.847,-0.607,0.795,-0.195
30.857,-0.607,0.791,-0.191
30.867,-0.605,0.791,-0.189
30.877,-0.607,0.795,-0.191
30.887,-0.607,0.799,-0.188
30.896,-0.609,0.803,-0.189
30.906,-0.607,0.801,-0.189
30.916,-0.607,0.799,-0.191
30.926,-0.607,0.797,-0.189
30.936,-0.607,0.795,-0.191
30.946,-0.604,0.795,-0.188
30.956,-0.604,0.797,-0.186
30.966,-0.607,0.793,-0.188
30.976,-0.604,0.799,-0.188
30.986,-0.602,0.803,-0.189
30.996,-0.604,0.799,-0.191
31.006,-0.605,0.795,-0.188
31.016,-0.609,0.797,-0.189
31.025,-0.607,0.797,-0.189
31.035,-0.607,0.795,-0.189
31.045,-0.609,0.795,-0.191
31.055,-0.607,0.797,-0.191
31.065,-0.609,0.795,-0.189
31.075,-0.607,0.799,-0.189
31.085,-0.605,0.793,-0.189
31.095,-0.607,0.797,-0.193
31.105,-0.605,0.799,-0.191
31.115,-0.611,0.799,-0.189
31.125,-0.607,0.799,-0.191
31.135,-0.607,0.797,-0.191
31.145,-0.605,0.797,-0.189
31.154,-0.602,0.795,-0.188
31.164,-0.604,0.797,-0.189
31.174,-0.607,0.795,-0.193
31.184,-0.607,0.795,-0.186
31.194,-0.609,0.795,-0.189
31.204,-0.611,0.799,-0.189
31.214,-0.607,0.795,-0.191
31.224,-0.613,0.793,-0.189
31.234,-0.607,0.793,-0.189
31.244,-0.609,0.799,-0.189
31.254,-0.607,0.801,-0.189
31.264,-0.609,0.801,-0.188
31.274,-0.609,0.801,-0.188
31.283,-0.605,0.791,-0.191
31.293,-0.605,0.791,-0.189
31.303,-0.607,0.789,-0.188
31.313,-0.609,0.791,-0.191
31.323,-0.615,0.799,-0.191
31.333,-0.615,0.799,-0.188
31.343,-0.613,0.799,-0.193
31.353,-0.609,0.795,-0.191
31.363,-0.609,0.789,-0.188
31.373,-0.605,0.787,-0.188
31.383,-0.607,0.789,-0.189
31.393,-0.607,0.793,-0.189
31.403,-0.607,0.795,-0.188
31.412,-0.609,0.797,-0.189
31.422,-0.607,0.797,-0.188
31.432,-0.609,0.801,-0.189
31.442,-0.609,0.799,-0.189
31.452,-0.609,0.799,-0.188
31.462,-0.611,0.797,-0.193
31.472,-0.609,0.795,-0.191
31.482,-0.611,0.793,-0.191
31.492,-0.609,0.789,-0.188
31.502,-0.615,0.799,-0.191
31.512,-0.615,0.797,-0.191
31.522,-0.611,0.799,-0.193
31.532,-0.611,0.793,-0.191
31.541,-0.607,0.791,-0.191
31.551,-0.605,0.789,-0.189
31.561,-0.607,0.791,-0.191
31.571,-0.609,0.793,-0.191
31.581,-0.611,0.799,-0.189
31.591,-0.611,0.797,-0.189
31.601,-0.609,0.797,-0.189
31.611,-0.607,0.795,-0.189
31.621,-0.607,0.793,-0.191
31.631,-0.607,0.795,-0.191
31.641,-0.605,0.795,-0.189
31.651,-0.605,0.793,-0.191
31.661,-0.609,0.797,-0.193
31.670,-0.607,0.795,-0.189
31.680,-0.609,0.797,-0.191
31.690,-0.611,0.793,-0.191
31.700,-0.609,0.795,-0.189
31.710,-0.611,0.793,-0.193
31.720,-0.611,0.795,-0.193
31.730,-0.611,0.791,-0.195
31.740,-0.613,0.789,-0.193
31.750,-0.611,0.793,-0.195
31.760,-0.613,0.791,-0.191
31.770,-0.615,0.791,-0.191
31.780,-0.613,0.791,-0.189
31.790,-0.615,0.793,-0.193
31.799,-0.611,0.797,-0.189
31.809,-0.611,0.793,-0.191
31.819,-0.609,0.795,-0.193
31.829,-0.607,0.793,-0.195
31.839,-0.607,0.791,-0.189
31.849,-0.609,0.793,-0.193
31.859,-0.607,0.791,-0.191
31.869,-0.611,0.791,-0.193
31.879,-0.613,0.791,-0.191
31.889,-0.613,0.791,-0.193
31.899,-0.615,0.793,-0.193
31.909,-0.613,0.791,-0.191
31.919,-0.615,0.793,-0.195
31.928,-0.615,0.791,-0.193
31.938,-0.615,0.789,-0.193
31.948,-0.615,0.787,-0.193
31.958,-0.613,0.789,-0.193
31.968,-0.613,0.793,-0.193
31.978,-0.609,0.797,-0.193
31.988,-0.615,0.801,-0.189
31.998,-0.611,0.793,-0.191
32.008,-0.609,0.789,-0.195
32.018,-0.611,0.787,-0.191
32.028,-0.613,0.787,-0.193
32.038,-0.611,0.789,-0.193
32.048,-0.617,0.795,-0.189
32.057,-0.613,0.799,-0.193
32.067,-0.619,0.793,-0.193
32.077,-0.615,0.793,-0.191
32.087,-0.611,0.787,-0.193
32.097,-0.611,0.783,-0.191
32.107,-0.611,0.787,-0.193
32.117,-0.615,0.789,-0.191
32.127,-0.613,0.791,-0.193
32.137,-0.613,0.795,-0.191
32.147,-0.611,0.793,-0.189
32.157,-0.615,0.793,-0.189
32.167,-0.611,0.795,-0.189
32.177,-0.609,0.791,-0.191
32.186,-0.611,0.793,-0.193
32.196,-0.613,0.793,-0.193
32.206,-0.609,0.789,-0.191
32.216,-0.611,0.791,-0.191
32.226,-0.615,0.797,-0.191
32.236,-0.611,0.797,-0.193
32.246,-0.611,0.799,-0.191
32.256,-0.611,0.793,-0.193
32.266,-0.609,0.789,-0.193
32.276,-0.611,0.791,-0.189
32.286,-0.611,0.791,-0.193
32.296,-0.611,0.797,-0.189
32.306,-0.611,0.797,-0.191
32.315,-0.611,0.797,-0.188
32.325,-0.609,0.795,-0.188
32.335,-0.607,0.793,-0.189
32.345,-0.605,0.793,-0.188
32.355,-0.607,0.797,-0.189
32.365,-0.607,0.793,-0.189
32.375,-0.609,0.795,-0.188
32.385,-0.609,0.793,-0.188
32.395,-0.607,0.795,-0.189
32.405,-0.611,0.795,-0.191
32.415,-0.609,0.793,-0.188
32.425,-0.609,0.793,-0.189
32.435,-0.613,0.793,-0.189
32.444,-0.611,0.795,-0.189
32.454,-0.613,0.795,-0.191
32.464,-0.615,0.789,-0.193
32.474,-0.613,0.793,-0.189
32.484,-0.611,0.793,-0.189
32.494,-0.611,0.793,-0.189
32.504,-0.609,0.791,-0.191
32.514,-0.609,0.793,-0.189
32.524,-0.609,0.793,-0.191
32.534,-0.611,0.791,-0.189
32.544,-0.613,0.795,-0.189
32.554,-0.613,0.797,-0.189
32.564,-0.611,0.795,-0.191
32.573,-0.609,0.793,-0.188
32.583,-0.611,0.793,-0.191
32.593,-0.609,0.793,-0.189
32.603,-0.611,0.795,-0.191
32.613,-0.613,0.795,-0.189
32.623,-0.611,0.797,-0.189
32.633,-0.609,0.795,-0.189
32.643,-0.607,0.791,-0.188
32.653,-0.605,0.791,-0.186
32.663,-0.609,0.797,-0.188
32.673,-0.611,0.797,-0.188
32.683,-0.607,0.803,-0.191
32.693,-0.613,0.799,-0.189
32.702,-0.611,0.797,-0.189
32.712,-0.609,0.793,-0.188
32.722,-0.609,0.787,-0.193
32.732,-0.609,0.787,-0.193
32.742,-0.613,0.789,-0.189
32.752,-0.615,0.795,-0.188
32.762,-0.613,0.801,-0.191
32.772,-0.609,0.797,-0.188
32.782,-0.607,0.797,-0.188
32.792,-0.607,0.793,-0.188
32.802,-0.604,0.789,-0.188
32.812,-0.604,0.789,-0.189
32.822,-0.607,0.791,-0.188
32.831,-0.609,0.793,-0.188
32.841,-0.609,0.793,-0.189
32.851,-0.609,0.795,-0.188
32.861,-0.613,0.795,-0.189
32.871,-0.611,0.797,-0.186
32.881,-0.613,0.795,-0.191
32.891,-0.615,0.797,-0.193
32.901,-0.611,0.795,-0.191
32.911,-0.605,0.789,-0.189
32.921,-0.613,0.797,-0.188
32.931,-0.609,0.799,-0.188
32.941,-0.607,0.797,-0.191
32.951,-0.607,0.793,-0.189
32.960,-0.609,0.791,-0.191
32.970,-0.609,0.793,-0.188
32.980,-0.607,0.797,-0.189
32.990,-0.607,0.795,-0.193
33.000,-0.611,0.799,-0.191
33.010,-0.609,0.797,-0.191
33.020,-0.607,0.799,-0.189
33.030,-0.604,0.797,-0.188
33.040,-0.605,0.795,-0.191
33.050,-0.605,0.795,-0.191
33.060,-0.604,0.797,-0.191
33.070,-0.602,0.793,-0.189
33.080,-0.607,0.797,-0.193
33.089,-0.604,0.795,-0.191
33.099,-0.609,0.803,-0.189
33.109,-0.609,0.803,-0.191
33.119,-0.607,0.799,-0.189
33.129,-0.607,0.799,-0.193
33.139,-0.604,0.799,-0.189
33.149,-0.604,0.799,-0.189
33.159,-0.600,0.801,-0.191
33.169,-0.602,0.799,-0.189
33.179,-0.602,0.799,-0.191
33.189,-0.600,0.795,-0.189
33.199,-0.600,0.797,-0.188
33.209,-0.602,0.801,-0.189
33.218,-0.602,0.805,-0.193
33.228,-0.602,0.805,-0.189
33.238,-0.602,0.799,-0.188
33.248,-0.596,0.801,-0.189
33.258,-0.600,0.797,-0.191
33.268,-0.596,0.791,-0.189
33.278,-0.602,0.795,-0.189
33.288,-0.605,0.803,-0.186
33.298,-0.600,0.803,-0.189
33.308,-0.604,0.803,-0.188
33.318,-0.605,0.807,-0.191
33.328,-0.607,0.803,-0.195
33.338,-0.607,0.801,-0.193
33.347,-0.605,0.793,-0.195
33.357,-0.605,0.795,-0.193
33.367,-0.609,0.801,-0.195
33.377,-0.609,0.797,-0.193
33.387,-0.605,0.801,-0.191
33.397,-0.607,0.801,-0.189
33.407,-0.609,0.799,-0.191
33.417,-0.605,0.797,-0.191
33.427,-0.602,0.793,-0.191
33.437,-0.604,0.793,-0.189
33.447,-0.602,0.791,-0.191
33.457,-0.604,0.793,-0.191
33.467,-0.604,0.793,-0.189
33.476,-0.605,0.797,-0.189
33.486,-0.611,0.799,-0.193
33.496,-0.607,0.799,-0.191
33.506,-0.609,0.797,-0.193
33.516,-0.607,0.795,-0.193
33.526,-0.604,0.793,-0.191
33.536,-0.607,0.799,-0.195
33.546,-0.605,0.803,-0.189
33.556,-0.605,0.799,-0.191
33.566,-0.604,0.797,-0.191
33.576,-0.604,0.795,-0.193
33.586,-0.604,0.795,-0.195
33.596,-0.604,0.797,-0.193
33.605,-0.602,0.801,-0.195
33.615,-0.602,0.803,-0.191
33.625,-0.600,0.803,-0.189
33.635,-0.600,0.801,-0.193
33.645,-0.598,0.797,-0.193
33.655,-0.598,0.797,-0.193
33.665,-0.602,0.795,-0.195
33.675,-0.604,0.797,-0.193
33.685,-0.600,0.799,-0.193
33.695,-0.600,0.799,-0.193
33.705,-0.605,0.801,-0.191
33.715,-0.602,0.801,-0.193
33.725,-0.600,0.801,-0.195
33.734,-0.600,0.805,-0.195
33.744,-0.600,0.803,-0.191
33.754,-0.604,0.807,-0.195
33.764,-0.602,0.805,-0.191
33.774,-0.598,0.809,-0.193
33.784,-0.598,0.803,-0.193
33.794,-0.598,0.801,-0.193
33.804,-0.598,0.801,-0.193
33.814,-0.594,0.799,-0.195
33.824,-0.598,0.801,-0.193
33.834,-0.594,0.803,-0.197
33.844,-0.598,0.807,-0.197
33.854,-0.598,0.805,-0.197
33.863,-0.598,0.801,-0.199
33.873,-0.600,0.801,-0.197
33.883,-0.602,0.807,-0.195
33.893,-0.598,0.809,-0.199
33.903,-0.598,0.809,-0.193
33.913,-0.596,0.812,-0.191
33.923,-0.594,0.807,-0.193
33.933,-0.590,0.797,-0.191
33.943,-0.594,0.793,-0.195
33.953,-0.600,0.793,-0.193
33.963,-0.602,0.797,-0.197
33.973,-0.605,0.803,-0.193
33.983,-0.609,0.803,-0.197
33.992,-0.611,0.801,-0.195
34.002,-0.607,0.799,-0.195
34.012,-0.607,0.795,-0.197
34.022,-0.605,0.795,-0.201
34.032,-0.605,0.793,-0.193
34.042,-0.604,0.793,-0.195
34.052,-0.602,0.793,-0.191
34.062,-0.604,0.791,-0.191
34.072,-0.602,0.793,-0.193
34.082,-0.604,0.793,-0.193
34.092,-0.609,0.793,-0.191
34.102,-0.607,0.797,-0.197
34.112,-0.600,0.795,-0.199
34.121,-0.598,0.793,-0.195
34.131,-0.598,0.791,-0.191
34.141,-0.592,0.789,-0.191
34.151,-0.596,0.795,-0.189
34.161,-0.604,0.801,-0.191
34.171,-0.600,0.793,-0.193
34.181,-0.607,0.797,-0.197
34.191,-0.611,0.797,-0.195
34.201,-0.611,0.797,-0.199
34.211,-0.607,0.799,-0.195
34.221,-0.605,0.799,-0.199
34.231,-0.600,0.803,-0.197
34.241,-0.600,0.803,-0.197
34.250,-0.596,0.807,-0.197
34.260,-0.594,0.803,-0.199
34.270,-0.592,0.805,-0.195
34.280,-0.590,0.805,-0.197
34.290,-0.590,0.809,-0.197
34.300,-0.592,0.811,-0.199
34.310,-0.594,0.807,-0.201
34.320,-0.596,0.812,-0.203
34.330,-0.588,0.809,-0.199
34.340,-0.590,0.811,-0.195
34.350,-0.586,0.811,-0.199
34.360,-0.582,0.811,-0.197
34.370,-0.582,0.814,-0.199
34.379,-0.582,0.814,-0.197
34.389,-0.582,0.814,-0.199
34.399,-0.578,0.814,-0.201
34.409,-0.578,0.812,-0.199
34.419,-0.576,0.812,-0.197
34.429,-0.582,0.812,-0.203
34.439,-0.584,0.809,-0.203
34.449,-0.582,0.809,-0.203
34.459,-0.584,0.809,-0.201
34.469,-0.590,0.811,-0.203
34.479,-0.588,0.811,-0.201
34.489,-0.588,0.809,-0.207
34.499,-0.584,0.809,-0.205
34.508,-0.584,0.812,-0.201
34.518,-0.584,0.816,-0.203
34.528,-0.586,0.818,-0.199
34.538,-0.588,0.814,-0.195
34.548,-0.582,0.812,-0.199
34.558,-0.578,0.807,-0.197
34.568,-0.586,0.803,-0.201
34.578,-0.586,0.801,-0.203
34.588,-0.590,0.801,-0.201
34.598,-0.592,0.803,-0.195
34.608,-0.594,0.805,-0.195
34.618,-0.590,0.809,-0.197
34.628,-0.592,0.805,-0.199
34.637,-0.594,0.805,-0.199
34.647,-0.590,0.801,-0.201
34.657,-0.590,0.797,-0.201
34.667,-0.590,0.797,-0.203
34.677,-0.588,0.801,-0.199
34.687,-0.590,0.805,-0.195
34.697,-0.592,0.803,-0.195
34.707,-0.592,0.805,-0.195
34.717,-0.594,0.805,-0.197
34.727,-0.592,0.811,-0.199
34.737,-0.594,0.807,-0.199
34.747,-0.594,0.807,-0.201
34.757,-0.594,0.803,-0.197
34.766,-0.588,0.803,-0.201
34.776,-0.590,0.807,-0.197
34.786,-0.592,0.812,-0.201
34.796,-0.588,0.807,-0.203
34.806,-0.592,0.807,-0.201
34.816,-0.590,0.807,-0.201
34.826,-0.590,0.803,-0.199
34.836,-0.590,0.805,-0.201
34.846,-0.588,0.807,-0.201
34.856,-0.592,0.807,-0.201
34.866,-0.590,0.809,-0.201
34.876,-0.588,0.805,-0.203
34.886,-0.592,0.805,-0.203
34.895,-0.590,0.803,-0.205
34.905,-0.592,0.803,-0.203
34.915,-0.590,0.805,-0.207
34.925,-0.590,0.803,-0.203
34.935,-0.592,0.807,-0.205
34.945,-0.590,0.805,-0.201
34.955,-0.588,0.805,-0.201
34.965,-0.590,0.809,-0.201
34.975,-0.592,0.809,-0.205
34.985,-0.588,0.807,-0.203
34.995,-0.588,0.805,-0.201
35.005,-0.594,0.807,-0.205
35.015,-0.594,0.803,-0.201
35.024,-0.592,0.805,-0.203
35.034,-0.588,0.805,-0.203
35.044,-0.588,0.803,-0.205
35.054,-0.590,0.803,-0.201
35.064,-0.590,0.805,-0.199
35.074,-0.594,0.805,-0.201
35.084,-0.594,0.805,-0.201
35.094,-0.598,0.807,-0.201
35.104,-0.602,0.809,-0.197
35.114,-0.600,0.809,-0.197
35.124,-0.598,0.805,-0.193
35.134,-0.594,0.805,-0.195
35.144,-0.592,0.797,-0.195
35.153,-0.592,0.789,-0.195
35.163,-0.592,0.787,-0.199
35.173,-0.592,0.789,-0.199
35.183,-0.594,0.793,-0.197
35.193,-0.596,0.801,-0.197
35.203,-0.600,0.801,-0.197
35.213,-0.602,0.803,-0.199
35.223,-0.598,0.803,-0.193
35.233,-0.598,0.803,-0.195
35.243,-0.596,0.799,-0.199
35.253,-0.598,0.799,-0.201
35.263,-0.596,0.805,-0.201
35.273,-0.598,0.803,-0.199
35.282,-0.596,0.803,-0.199
35.292,-0.598,0.805,-0.203
35.302,-0.596,0.801,-0.199
35.312,-0.590,0.799,-0.199
35.322,-0.594,0.805,-0.205
35.332,-0.594,0.809,-0.201
35.342,-0.598,0.807,-0.199
35.352,-0.598,0.803,-0.199
35.362,-0.594,0.803,-0.201
35.372,-0.594,0.795,-0.205
35.382,-0.602,0.795,-0.205
35.392,-0.600,0.797,-0.207
35.402,-0.600,0.799,-0.207
35.411,-0.602,0.801,-0.209
35.421,-0.602,0.797,-0.203
35.431,-0.598,0.797,-0.203
35.441,-0.596,0.799,-0.205
35.451,-0.598,0.797,-0.207
35.461,-0.598,0.793,-0.205
35.471,-0.596,0.793,-0.207
35.481,-0.596,0.799,-0.207
35.491,-0.596,0.795,-0.209
35.501,-0.598,0.799,-0.205
35.511,-0.596,0.803,-0.209
35.521,-0.598,0.801,-0.209
35.531,-0.598,0.803,-0.209
35.540,-0.596,0.805,-0.209
35.550,-0.598,0.801,-0.211
35.560,-0.598,0.799,-0.211
35.570,-0.594,0.795,-0.207
35.580,-0.600,0.797,-0.209
35.590,-0.600,0.803,-0.209
35.600,-0.600,0.805,-0.209
35.610,-0.598,0.801,-0.207
35.620,-0.598,0.799,-0.207
35.630,-0.598,0.797,-0.211
35.640,-0.596,0.795,-0.207
35.650,-0.600,0.795,-0.207
35.660,-0.600,0.797,-0.203
35.669,-0.602,0.801,-0.207
35.679,-0.602,0.797,-0.205
35.689,-0.602,0.795,-0.207
35.699,-0.598,0.795,-0.201
35.709,-0.600,0.795,-0.205
35.719,-0.602,0.797,-0.205
35.729,-0.600,0.797,-0.207
35.739,-0.602,0.795,-0.203
35.749,-0.600,0.795,-0.203
35.759,-0.604,0.795,-0.207
35.769,-0.598,0.795,-0.203
35.779,-0.604,0.793,-0.205
35.789,-0.604,0.791,-0.207
35.798,-0.604,0.793,-0.203
35.808,-0.605,0.793,-0.207
35.818,-0.604,0.791,-0.209
35.828,-0.604,0.791,-0.207
35.838,-0.609,0.791,-0.207
35.848,-0.607,0.793,-0.207
35.858,-0.609,0.791,-0.209
35.868,-0.605,0.793,-0.209
35.878,-0.605,0.791,-0.209
35.888,-0.605,0.789,-0.207
35.898,-0.607,0.791,-0.207
35.908,-0.607,0.791,-0.207
35.918,-0.607,0.791,-0.205
35.927,-0.605,0.789,-0.209
35.937,-0.605,0.793,-0.205
35.947,-0.607,0.793,-0.209
35.957,-0.607,0.789,-0.205
35.967,-0.611,0.791,-0.205
35.977,-0.609,0.793,-0.209
35.987,-0.611,0.793,-0.209
35.997,-0.609,0.789,-0.209
36.007,-0.609,0.791,-0.209
36.017,-0.609,0.789,-0.209
36.027,-0.609,0.789,-0.211
36.037,-0.609,0.787,-0.209
36.047,-0.607,0.787,-0.213
36.056,-0.607,0.789,-0.205
36.066,-0.609,0.785,-0.209
36.076,-0.611,0.787,-0.209
36.086,-0.611,0.787,-0.213
36.096,-0.615,0.785,-0.209
36.106,-0.613,0.787,-0.209
36.116,-0.609,0.789,-0.209
36.126,-0.609,0.787,-0.213
36.136,-0.607,0.789,-0.209
36.146,-0.609,0.789,-0.211
36.156,-0.607,0.789,-0.207
36.166,-0.609,0.789,-0.211
36.176,-0.607,0.797,-0.211
36.185,-0.609,0.793,-0.209
36.195,-0.605,0.791,-0.207
36.205,-0.605,0.789,-0.209
36.215,-0.604,0.797,-0.209
36.225,-0.604,0.803,-0.207
36.235,-0.605,0.801,-0.209
36.245,-0.605,0.799,-0.209
36.255,-0.600,0.795,-0.211
36.265,-0.604,0.789,-0.209
36.275,-0.604,0.791,-0.211
36.285,-0.602,0.787,-0.211
36.295,-0.607,0.791,-0.209
36.305,-0.609,0.793,-0.207
36.314,-0.611,0.793,-0.207
36.324,-0.607,0.789,-0.209
36.334,-0.609,0.791,-0.207
36.344,-0.605,0.787,-0.207
36.354,-0.605,0.793,-0.207
36.364,-0.605,0.791,-0.201
36.374,-0.602,0.791,-0.207
36.384,-0.604,0.795,-0.203
36.394,-0.602,0.795,-0.203
36.404,-0.604,0.793,-0.197
36.414,-0.600,0.797,-0.199
36.424,-0.602,0.795,-0.203
36.434,-0.602,0.797,-0.205
36.443,-0.602,0.797,-0.203
36.453,-0.605,0.797,-0.203
36.463,-0.602,0.793,-0.199
36.473,-0.604,0.797,-0.201
36.483,-0.605,0.801,-0.199
36.493,-0.604,0.799,-0.201
36.503,-0.604,0.799,-0.201
36.513,-0.600,0.793,-0.199
36.523,-0.604,0.789,-0.201
36.533,-0.602,0.791,-0.199
36.543,-0.604,0.791,-0.203
36.553,-0.604,0.795,-0.201
36.563,-0.605,0.801,-0.199
36.572,-0.607,0.799,-0.199
36.582,-0.605,0.797,-0.199
36.592,-0.604,0.793,-0.201
36.602,-0.600,0.795,-0.205
36.612,-0.598,0.793,-0.201
36.622,-0.604,0.797,-0.197
36.632,-0.602,0.797,-0.201
36.642,-0.602,0.795,-0.199
36.652,-0.602,0.797,-0.195
36.662,-0.600,0.799,-0.199
36.672,-0.602,0.795,-0.197
36.682,-0.604,0.793,-0.197
36.692,-0.605,0.795,-0.201
36.701,-0.605,0.795,-0.197
36.711,-0.602,0.793,-0.201
36.721,-0.607,0.793,-0.201
36.731,-0.607,0.795,-0.201
36.741,-0.609,0.795,-0.199
36.751,-0.605,0.793,-0.201
36.761,-0.607,0.793,-0.201
36.771,-0.605,0.795,-0.201
36.781,-0.607,0.795,-0.199
36.791,-0.605,0.795,-0.201
36.801,-0.604,0.797,-0.201
36.811,-0.607,0.797,-0.197
36.821,-0.605,0.793,-0.199
36.830,-0.604,0.793,-0.201
36.840,-0.604,0.797,-0.201
36.850,-0.607,0.799,-0.201
36.860,-0.605,0.797,-0.201
36.870,-0.607,0.795,-0.199
36.880,-0.605,0.793,-0.201
36.890,-0.607,0.793,-0.199
36.900,-0.607,0.791,-0.199
36.910,-0.604,0.791,-0.199
36.920,-0.607,0.793,-0.199
36.930,-0.609,0.791,-0.201
36.940,-0.605,0.791,-0.199
36.950,-0.607,0.795,-0.197
36.959,-0.607,0.795,-0.199
36.969,-0.607,0.793,-0.201
36.979,-0.605,0.791,-0.197
36.989,-0.605,0.793,-0.197
36.999,-0.604,0.793,-0.201
37.009,-0.609,0.791,-0.201
37.019,-0.609,0.795,-0.203
37.029,-0.607,0.791,-0.197
37.039,-0.607,0.791,-0.199
37.049,-0.605,0.791,-0.203
37.059,-0.604,0.797,-0.199
37.069,-0.604,0.801,-0.201
37.079,-0.609,0.803,-0.199
37.088,-0.607,0.801,-0.201
37.098,-0.609,0.797,-0.201
37.108,-0.604,0.789,-0.201
37.118,-0.605,0.791,-0.201
37.128,-0.605,0.791,-0.201
37.138,-0.607,0.795,-0.203
37.148,-0.611,0.795,-0.201
37.158,-0.611,0.793,-0.201
37.168,-0.609,0.795,-0.201
37.178,-0.609,0.793,-0.197
37.188,-0.607,0.787,-0.199
37.198,-0.605,0.787,-0.201
37.208,-0.605,0.789,-0.199
37.217,-0.605,0.789,-0.199
37.227,-0.605,0.793,-0.197
37.237,-0.607,0.795,-0.197
37.247,-0.607,0.795,-0.195
37.257,-0.609,0.797,-0.197
37.267,-0.607,0.795,-0.195
37.277,-0.607,0.795,-0.199
37.287,-0.607,0.795,-0.199
37.297,-0.607,0.793,-0.199
37.307,-0.604,0.791,-0.197
37.317,-0.609,0.795,-0.199
37.327,-0.613,0.795,-0.201
37.337,-0.609,0.799,-0.201
37.346,-0.609,0.795,-0.199
37.356,-0.607,0.793,-0.201
37.366,-0.607,0.791,-0.199
37.376,-0.607,0.787,-0.197
37.386,-0.607,0.787,-0.199
37.396,-0.609,0.791,-0.201
37.406,-0.611,0.791,-0.197
37.416,-0.611,0.793,-0.197
37.426,-0.607,0.795,-0.197
37.436,-0.607,0.791,-0.195
37.446,-0.607,0.793,-0.201
37.456,-0.607,0.791,-0.197
37.466,-0.604,0.791,-0.199
37.475,-0.604,0.791,-0.199
37.485,-0.604,0.793,-0.199
37.495,-0.604,0.795,-0.201
37.505,-0.607,0.795,-0.201
37.515,-0.607,0.797,-0.203
37.525,-0.607,0.793,-0.201
37.535,-0.609,0.795,-0.199
37.545,-0.607,0.795,-0.199
37.555,-0.607,0.795,-0.199
37.565,-0.605,0.795,-0.201
37.575,-0.604,0.795,-0.201
37.585,-0.604,0.789,-0.197
37.595,-0.604,0.795,-0.195
37.604,-0.609,0.795,-0.197
37.614,-0.607,0.797,-0.199
37.624,-0.609,0.795,-0.203
37.634,-0.609,0.791,-0.195
37.644,-0.605,0.797,-0.201
37.654,-0.609,0.793,-0.199
37.664,-0.609,0.795,-0.195
37.674,-0.609,0.793,-0.199
37.684,-0.605,0.793,-0.199
37.694,-0.607,0.793,-0.199
37.704,-0.604,0.793,-0.197
37.714,-0.604,0.795,-0.199
37.724,-0.607,0.795,-0.199
37.733,-0.607,0.795,-0.199
37.743,-0.607,0.795,-0.199
37.753,-0.605,0.795,-0.199
37.763,-0.611,0.797,-0.199
37.773,-0.609,0.793,-0.197
37.783,-0.605,0.795,-0.197
37.793,-0.604,0.793,-0.197
37.803,-0.607,0.793,-0.199
37.813,-0.605,0.793,-0.197
37.823,-0.602,0.789,-0.199
37.833,-0.604,0.791,-0.195
37.843,-0.605,0.799,-0.195
37.853,-0.607,0.803,-0.197
37.862,-0.609,0.805,-0.201
37.872,-0.611,0.801,-0.197
37.882,-0.605,0.799,-0.199
37.892,-0.604,0.787,-0.195
37.902,-0.607,0.789,-0.195
37.912,-0.609,0.795,-0.197
37.922,-0.607,0.797,-0.201
37.932,-0.607,0.799,-0.195
37.942,-0.607,0.801,-0.197
37.952,-0.605,0.799,-0.197
37.962,-0.605,0.795,-0.197
37.972,-0.602,0.791,-0.197
37.982,-0.605,0.791,-0.197
37.991,-0.605,0.793,-0.191
38.001,-0.604,0.793,-0.193
38.011,-0.607,0.795,-0.195
38.021,-0.605,0.795,-0.199
38.031,-0.609,0.797,-0.199
38.041,-0.607,0.795,-0.193
38.051,-0.609,0.799,-0.193
38.061,-0.613,0.797,-0.199
38.071,-0.613,0.795,-0.199
38.081,-0.604,0.789,-0.195
38.091,-0.609,0.797,-0.199
38.101,-0.611,0.797,-0.191
38.111,-0.609,0.795,-0.195
38.120,-0.609,0.797,-0.197
38.130,-0.605,0.797,-0.197
38.140,-0.607,0.791,-0.195
38.150,-0.605,0.795,-0.195
38.160,-0.607,0.795,-0.193
38.170,-0.607,0.795,-0.195
38.180,-0.609,0.799,-0.193
38.190,-0.605,0.799,-0.195
38.200,-0.605,0.799,-0.189
38.210,-0.605,0.795,-0.189
38.220,-0.602,0.797,-0.195
38.230,-0.604,0.797,-0.195
38.240,-0.604,0.795,-0.193
38.249,-0.604,0.795,-0.191
38.259,-0.602,0.797,-0.193
38.269,-0.605,0.797,-0.191
38.279,-0.604,0.797,-0.195
38.289,-0.607,0.797,-0.199
38.299,-0.607,0.801,-0.193
38.309,-0.607,0.799,-0.195
38.319,-0.607,0.799,-0.195
38.329,-0.605,0.793,-0.195
38.339,-0.605,0.795,-0.193
38.349,-0.605,0.797,-0.195
38.359,-0.609,0.795,-0.195
38.369,-0.609,0.795,-0.189
38.378,-0.605,0.797,-0.193
38.388,-0.605,0.797,-0.191
38.398,-0.605,0.793,-0.195
38.408,-0.607,0.797,-0.193
38.418,-0.602,0.797,-0.193
38.428,-0.605,0.799,-0.191
38.438,-0.600,0.795,-0.195
38.448,-0.600,0.795,-0.191
38.458,-0.602,0.797,-0.191
38.468,-0.607,0.805,-0.191
38.478,-0.604,0.807,-0.191
38.488,-0.605,0.805,-0.195
38.498,-0.605,0.805,-0.195
38.507,-0.604,0.801,-0.193
38.517,-0.605,0.797,-0.195
38.527,-0.605,0.789,-0.195
38.537,-0.605,0.795,-0.191
38.547,-0.611,0.801,-0.193
38.557,-0.611,0.801,-0.191
38.567,-0.609,0.801,-0.189
38.577,-0.604,0.795,-0.191
38.587,-0.605,0.791,-0.191
38.597,-0.602,0.795,-0.191
38.607,-0.602,0.791,-0.189
38.617,-0.602,0.793,-0.189
38.627,-0.605,0.795,-0.189
38.636,-0.605,0.795,-0.189
38.646,-0.607,0.795,-0.191
38.656,-0.609,0.797,-0.189
38.666,-0.607,0.797,-0.193
38.676,-0.609,0.795,-0.191
38.686,-0.613,0.799,-0.195
38.696,-0.607,0.791,-0.195
38.706,-0.607,0.795,-0.193
38.716,-0.611,0.801,-0.193
38.726,-0.607,0.801,-0.195
38.736,-0.605,0.803,-0.193
38.746,-0.604,0.793,-0.193
38.756,-0.604,0.793,-0.193
38.765,-0.607,0.799,-0.193
38.775,-0.604,0.801,-0.191
38.785,-0.605,0.801,-0.195
38.795,-0.605,0.801,-0.189
38.805,-0.605,0.799,-0.193
38.815,-0.607,0.795,-0.191
38.825,-0.602,0.797,-0.191
38.835,-0.602,0.793,-0.189
38.845,-0.604,0.795,-0.189
38.855,-0.604,0.797,-0.189
38.865,-0.605,0.795,-0.193
38.875,-0.607,0.801,-0.191
38.885,-0.607,0.795,-0.193
38.894,-0.609,0.799,-0.191
38.904,-0.605,0.795,-0.193
38.914,-0.607,0.795,-0.193
38.924,-0.607,0.797,-0.193
38.934,-0.607,0.795,-0.197
38.944,-0.607,0.797,-0.195
38.954,-0.607,0.795,-0.193
38.964,-0.605,0.797,-0.195
38.974,-0.607,0.797,-0.191
38.984,-0.607,0.795,-0.191
38.994,-0.605,0.797,-0.191
39.004,-0.607,0.797,-0.193
39.013,-0.604,0.791,-0.195
39.023,-0.604,0.799,-0.195
39.033,-0.604,0.801,-0.188
39.043,-0.602,0.807,-0.188
39.053,-0.604,0.805,-0.189
39.063,-0.605,0.805,-0.189
39.073,-0.604,0.801,-0.195
39.083,-0.604,0.795,-0.191
39.093,-0.607,0.791,-0.191
39.103,-0.615,0.795,-0.191
39.113,-0.611,0.803,-0.191
39.123,-0.613,0.803,-0.188
39.133,-0.611,0.799,-0.193
39.143,-0.607,0.797,-0.189
39.152,-0.609,0.791,-0.193
39.162,-0.604,0.789,-0.189
39.172,-0.602,0.789,-0.186
39.182,-0.602,0.791,-0.188
39.192,-0.604,0.793,-0.193
39.202,-0.605,0.793,-0.188
39.212,-0.609,0.795,-0.189
39.222,-0.609,0.799,-0.189
39.232,-0.611,0.799,-0.189
39.242,-0.609,0.797,-0.193
39.252,-0.609,0.799,-0.189
39.262,-0.609,0.795,-0.191
39.271,-0.609,0.791,-0.195
39.281,-0.605,0.795,-0.191
39.291,-0.609,0.803,-0.191
39.301,-0.607,0.803,-0.193
39.311,-0.605,0.803,-0.193
39.321,-0.604,0.795,-0.191
39.331,-0.602,0.793,-0.195
39.341,-0.605,0.799,-0.191
39.351,-0.604,0.801,-0.193
39.361,-0.607,0.801,-0.191
39.371,-0.605,0.803,-0.191
39.381,-0.602,0.799,-0.193
39.391,-0.604,0.797,-0.191
39.400,-0.602,0.797,-0.193
39.410,-0.602,0.795,-0.189
39.420,-0.602,0.801,-0.193
39.430,-0.600,0.799,-0.191
39.440,-0.604,0.799,-0.193
39.450,-0.602,0.801,-0.189
39.460,-0.604,0.797,-0.193
39.470,-0.605,0.799,-0.189
39.480,-0.604,0.797,-0.191
39.490,-0.604,0.799,-0.193
39.500,-0.607,0.797,-0.191
39.510,-0.604,0.797,-0.188
39.520,-0.604,0.795,-0.193
39.529,-0.604,0.797,-0.191
39.539,-0.607,0.803,-0.191
39.549,-0.604,0.803,-0.193
39.559,-0.604,0.799,-0.193
39.569,-0.604,0.797,-0.191
39.579,-0.602,0.795,-0.189
39.589,-0.602,0.801,-0.191
39.599,-0.604,0.805,-0.186
39.609,-0.604,0.809,-0.189
39.619,-0.604,0.805,-0.189
39.629,-0.604,0.799,-0.191
39.639,-0.602,0.793,-0.191
39.649,-0.605,0.793,-0.191
39.658,-0.609,0.797,-0.189
39.668,-0.609,0.801,-0.188
39.678,-0.611,0.803,-0.188
39.688,-0.607,0.797,-0.188
39.698,-0.609,0.795,-0.188
39.708,-0.607,0.791,-0.191
39.718,-0.609,0.789,-0.189
39.728,-0.607,0.787,-0.189
39.738,-0.607,0.793,-0.188
39.748,-0.607,0.793,-0.186
39.758,-0.609,0.797,-0.189
39.768,-0.609,0.799,-0.184
39.778,-0.607,0.799,-0.188
39.787,-0.611,0.799,-0.186
39.797,-0.609,0.797,-0.188
39.807,-0.605,0.797,-0.189
39.817,-0.609,0.795,-0.189
39.827,-0.609,0.799,-0.188
39.837,-0.611,0.791,-0.186
39.847,-0.613,0.795,-0.188
39.857,-0.615,0.803,-0.189
39.867,-0.609,0.801,-0.184
39.877,-0.607,0.803,-0.189
39.887,-0.605,0.793,-0.189
39.897,-0.607,0.791,-0.188
39.907,-0.611,0.793,-0.188
39.916,-0.607,0.797,-0.186
39.926,-0.609,0.799,-0.189
39.936,-0.609,0.801,-0.189
39.946,-0.609,0.799,-0.186
39.956,-0.607,0.797,-0.184
39.966,-0.605,0.793,-0.188
39.976,-0.605,0.797,-0.186
39.986,-0.609,0.799,-0.186
39.996,-0.611,0.799,-0.189
40.006,-0.609,0.797,-0.184
40.016,-0.607,0.801,-0.186
40.026,-0.607,0.795,-0.186
40.036,-0.605,0.797,-0.188
40.045,-0.609,0.793,-0.188
40.055,-0.607,0.795,-0.189
40.065,-0.609,0.793,-0.189
40.075,-0.611,0.791,-0.193
40.085,-0.613,0.793,-0.191
40.095,-0.615,0.795,-0.189
40.105,-0.615,0.793,-0.189
40.115,-0.615,0.797,-0.193
40.125,-0.611,0.795,-0.188
40.135,-0.609,0.793,-0.191
40.145,-0.607,0.795,-0.191
40.155,-0.607,0.797,-0.186
40.165,-0.605,0.797,-0.186
40.174,-0.611,0.801,-0.184
40.184,-0.609,0.805,-0.188
40.194,-0.609,0.805,-0.184
40.204,-0.602,0.795,-0.186
40.214,-0.607,0.789,-0.188
40.224,-0.609,0.787,-0.188
40.234,-0.611,0.785,-0.188
40.244,-0.615,0.791,-0.189
40.254,-0.617,0.795,-0.189
40.264,-0.621,0.793,-0.189
40.274,-0.621,0.793,-0.189
40.284,-0.617,0.791,-0.189
40.294,-0.615,0.789,-0.191
40.303,-0.613,0.787,-0.189
40.313,-0.611,0.791,-0.186
40.323,-0.609,0.791,-0.186
40.333,-0.607,0.795,-0.186
40.343,-0.607,0.797,-0.188
40.353,-0.607,0.797,-0.186
40.363,-0.609,0.801,-0.184
40.373,-0.609,0.797,-0.186
40.383,-0.611,0.801,-0.184
40.393,-0.609,0.801,-0.188
40.403,-0.613,0.799,-0.188
40.413,-0.613,0.795,-0.184
40.423,-0.611,0.795,-0.189
40.432,-0.611,0.801,-0.188
40.442,-0.611,0.799,-0.186
40.452,-0.609,0.799,-0.188
40.462,-0.607,0.797,-0.188
40.472,-0.607,0.793,-0.186
40.482,-0.605,0.795,-0.184
40.492,-0.607,0.797,-0.184
40.502,-0.609,0.797,-0.188
40.512,-0.611,0.797,-0.186
40.522,-0.613,0.801,-0.188
40.532,-0.611,0.797,-0.186
40.542,-0.611,0.795,-0.184
40.552,-0.611,0.791,-0.186
40.561,-0.607,0.791,-0.184
40.571,-0.607,0.791,-0.180
40.581,-0.607,0.791,-0.184
40.591,-0.609,0.797,-0.189
40.601,-0.609,0.795,-0.186
40.611,-0.609,0.797,-0.188
40.621,-0.607,0.797,-0.186
40.631,-0.605,0.793,-0.184
40.641,-0.604,0.799,-0.186
40.651,-0.609,0.799,-0.184
40.661,-0.607,0.801,-0.182
40.671,-0.607,0.799,-0.186
40.681,-0.611,0.797,-0.188
40.690,-0.609,0.797,-0.186
40.700,-0.611,0.803,-0.186
40.710,-0.607,0.797,-0.189
40.720,-0.609,0.799,-0.184
40.730,-0.607,0.799,-0.184
40.740,-0.609,0.795,-0.186
40.750,-0.607,0.799,-0.186
40.760,-0.605,0.797,-0.189
40.770,-0.609,0.799,-0.184
40.780,-0.607,0.793,-0.186
40.790,-0.611,0.799,-0.188
40.800,-0.609,0.799,-0.186
40.810,-0.611,0.795,-0.184
40.819,-0.607,0.797,-0.188
40.829,-0.611,0.793,-0.186
40.839,-0.611,0.799,-0.182
40.849,-0.611,0.795,-0.188
40.859,-0.613,0.793,-0.186
40.869,-0.613,0.793,-0.188
40.879,-0.613,0.791,-0.184
40.889,-0.611,0.793,-0.188
40.899,-0.611,0.795,-0.186
40.909,-0.611,0.793,-0.184
40.919,-0.613,0.795,-0.186
40.929,-0.611,0.793,-0.184
40.939,-0.613,0.799,-0.188
40.948,-0.611,0.797,-0.188
40.958,-0.609,0.799,-0.188
40.968,-0.609,0.799,-0.186
40.978,-0.607,0.801,-0.182
40.988,-0.609,0.797,-0.184
40.998,-0.611,0.801,-0.186
41.008,-0.609,0.799,-0.188
41.018,-0.609,0.803,-0.186
41.028,-0.611,0.799,-0.188
41.038,-0.611,0.799,-0.184
41.048,-0.611,0.799,-0.184
41.058,-0.611,0.791,-0.186
41.068,-0.609,0.793,-0.186
41.077,-0.607,0.795,-0.188
41.087,-0.613,0.795,-0.189
41.097,-0.613,0.797,-0.188
41.107,-0.613,0.801,-0.186
41.117,-0.613,0.799,-0.188
41.127,-0.611,0.795,-0.184
41.137,-0.609,0.789,-0.186
41.147,-0.607,0.799,-0.188
41.157,-0.607,0.801,-0.184
41.167,-0.609,0.805,-0.184
41.177,-0.609,0.803,-0.180
41.187,-0.609,0.795,-0.184
41.197,-0.607,0.795,-0.189
41.206,-0.609,0.793,-0.184
41.216,-0.611,0.791,-0.182
41.226,-0.613,0.801,-0.188
41.236,-0.613,0.797,-0.186
41.246,-0.611,0.801,-0.184
41.256,-0.611,0.795,-0.184
41.266,-0.611,0.791,-0.188
41.276,-0.609,0.791,-0.184
41.286,-0.611,0.797,-0.186
41.296,-0.609,0.793,-0.184
41.306,-0.611,0.795,-0.184
41.316,-0.611,0.799,-0.186
41.326,-0.611,0.799,-0.182
41.335,-0.611,0.799,-0.182
41.345,-0.609,0.795,-0.186
41.355,-0.611,0.799,-0.184
41.365,-0.609,0.795,-0.188
41.375,-0.611,0.799,-0.186
41.385,-0.611,0.797,-0.189
41.395,-0.611,0.797,-0.184
41.405,-0.611,0.797,-0.186
41.415,-0.611,0.799,-0.182
41.425,-0.611,0.803,-0.180
41.435,-0.609,0.799,-0.184
41.445,-0.607,0.797,-0.186
41.455,-0.605,0.797,-0.184
41.464,-0.605,0.795,-0.184
41.474,-0.605,0.793,-0.186
41.484,-0.609,0.795,-0.184
41.494,-0.611,0.801,-0.182
41.504,-0.613,0.801,-0.184
41.514,-0.611,0.799,-0.186
41.524,-0.611,0.797,-0.186
41.534,-0.609,0.799,-0.186
41.544,-0.609,0.799,-0.184
41.554,-0.609,0.797,-0.184
41.564,-0.607,0.799,-0.180
41.574,-0.607,0.797,-0.182
41.584,-0.605,0.797,-0.180
41.593,-0.605,0.799,-0.182
41.603,-0.605,0.799,-0.184
41.613,-0.609,0.799,-0.180
41.623,-0.609,0.795,-0.180
41.633,-0.609,0.797,-0.180
41.643,-0.607,0.795,-0.184
41.653,-0.607,0.795,-0.186
41.663,-0.611,0.797,-0.184
41.673,-0.615,0.795,-0.184
41.683,-0.613,0.795,-0.188
41.693,-0.613,0.797,-0.188
41.703,-0.613,0.797,-0.188
41.713,-0.611,0.797,-0.184
41.722,-0.609,0.799,-0.186
41.732,-0.609,0.799,-0.182
41.742,-0.609,0.797,-0.182
41.752,-0.609,0.797,-0.180
41.762,-0.609,0.805,-0.182
41.772,-0.609,0.797,-0.182
41.782,-0.607,0.799,-0.182
41.792,-0.611,0.797,-0.184
41.802,-0.609,0.797,-0.182
41.812,-0.607,0.797,-0.182
41.822,-0.611,0.793,-0.184
41.832,-0.615,0.797,-0.182
41.842,-0.615,0.793,-0.184
41.851,-0.613,0.793,-0.182
41.861,-0.613,0.793,-0.182
41.871,-0.613,0.795,-0.184
41.881,-0.613,0.791,-0.182
41.891,-0.613,0.791,-0.184
41.901,-0.613,0.789,-0.184
41.911,-0.611,0.795,-0.188
41.921,-0.615,0.793,-0.184
41.931,-0.615,0.791,-0.186
41.941,-0.613,0.795,-0.184
41.951,-0.613,0.791,-0.184
41.961,-0.613,0.795,-0.184
41.971,-0.609,0.799,-0.188
41.980,-0.613,0.795,-0.188
41.990,-0.613,0.797,-0.182
42.000,-0.611,0.797,-0.184
42.010,-0.607,0.801,-0.184
42.020,-0.609,0.803,-0.186
42.030,-0.615,0.803,-0.184
42.040,-0.613,0.803,-0.184
42.050,-0.611,0.797,-0.182
42.060,-0.605,0.797,-0.186
42.070,-0.607,0.789,-0.186
42.080,-0.611,0.789,-0.186
42.090,-0.613,0.793,-0.189
42.100,-0.615,0.795,-0.186
42.109,-0.615,0.797,-0.182
42.119,-0.613,0.793,-0.186
42.129,-0.613,0.793,-0.186
42.139,-0.611,0.793,-0.189
42.149,-0.611,0.789,-0.189
42.159,-0.609,0.791,-0.189
42.169,-0.611,0.793,-0.186
42.179,-0.611,0.799,-0.184
42.189,-0.611,0.797,-0.188
42.199,-0.607,0.799,-0.184
42.209,-0.607,0.799,-0.184
42.219,-0.611,0.799,-0.182
42.229,-0.611,0.797,-0.186
42.238,-0.611,0.801,-0.184
42.248,-0.609,0.799,-0.188
42.258,-0.611,0.795,-0.184
42.268,-0.609,0.793,-0.186
42.278,-0.615,0.799,-0.186
42.288,-0.617,0.803,-0.186
42.298,-0.613,0.803,-0.186
42.308,-0.615,0.797,-0.186
42.318,-0.607,0.793,-0.186
42.328,-0.611,0.793,-0.186
42.338,-0.609,0.793,-0.182
42.348,-0.609,0.797,-0.182
42.358,-0.611,0.799,-0.182
42.367,-0.615,0.801,-0.182
42.377,-0.611,0.799,-0.182
42.387,-0.609,0.799,-0.182
42.397,-0.605,0.797,-0.182
42.407,-0.609,0.795,-0.184
42.417,-0.607,0.797,-0.188
42.427,-0.605,0.799,-0.186
42.437,-0.607,0.797,-0.180
42.447,-0.607,0.797,-0.184
42.457,-0.607,0.797,-0.180
42.467,-0.609,0.801,-0.182
42.477,-0.613,0.799,-0.182
42.487,-0.611,0.797,-0.184
42.496,-0.607,0.797,-0.184
42.506,-0.609,0.801,-0.184
42.516,-0.611,0.797,-0.184
42.526,-0.607,0.797,-0.182
42.536,-0.609,0.797,-0.184
42.546,-0.609,0.797,-0.182
42.556,-0.611,0.795,-0.186
42.566,-0.609,0.799,-0.186
42.576,-0.607,0.797,-0.182
42.586,-0.611,0.797,-0.182
42.596,-0.611,0.801,-0.182
42.606,-0.611,0.803,-0.186
42.616,-0.609,0.801,-0.180
42.625,-0.607,0.799,-0.184
42.635,-0.607,0.801,-0.180
42.645,-0.604,0.803,-0.182
42.655,-0.602,0.799,-0.182
42.665,-0.604,0.801,-0.184
42.675,-0.602,0.803,-0.182
42.685,-0.604,0.801,-0.182
42.695,-0.605,0.803,-0.182
42.705,-0.605,0.801,-0.182
42.715,-0.605,0.797,-0.178
42.725,-0.607,0.801,-0.178
42.735,-0.605,0.801,-0.180
42.745,-0.607,0.805,-0.180
42.754,-0.607,0.801,-0.178
42.764,-0.605,0.801,-0.176
42.774,-0.605,0.801,-0.180
42.784,-0.604,0.799,-0.178
42.794,-0.605,0.801,-0.182
42.804,-0.609,0.803,-0.180
42.814,-0.609,0.803,-0.180
42.824,-0.609,0.801,-0.178
42.834,-0.611,0.795,-0.180
42.844,-0.609,0.803,-0.174
42.854,-0.609,0.805,-0.174
42.864,-0.611,0.805,-0.176
42.874,-0.611,0.807,-0.176
42.883,-0.607,0.805,-0.174
42.893,-0.605,0.797,-0.178
42.903,-0.604,0.795,-0.178
42.913,-0.609,0.797,-0.176
42.923,-0.611,0.803,-0.178
42.933,-0.613,0.809,-0.176
42.943,-0.613,0.801,-0.174
42.953,-0.611,0.801,-0.172
42.963,-0.611,0.797,-0.174
42.973,-0.604,0.793,-0.178
42.983,-0.600,0.795,-0.174
42.993,-0.598,0.799,-0.176
43.003,-0.596,0.801,-0.174
43.012,-0.598,0.803,-0.174
43.022,-0.600,0.801,-0.174
43.032,-0.600,0.807,-0.174
43.042,-0.605,0.807,-0.176
43.052,-0.607,0.805,-0.180
43.062,-0.609,0.803,-0.180
43.072,-0.609,0.801,-0.184
43.082,-0.607,0.801,-0.182
43.092,-0.611,0.797,-0.182
43.102,-0.609,0.797,-0.182
43.112,-0.611,0.805,-0.182
43.122,-0.609,0.803,-0.180
43.132,-0.607,0.805,-0.180
43.141,-0.604,0.799,-0.178
43.151,-0.600,0.803,-0.180
43.161,-0.600,0.803,-0.180
43.171,-0.602,0.803,-0.180
43.181,-0.602,0.807,-0.180
43.191,-0.607,0.809,-0.180
43.201,-0.602,0.807,-0.180
43.211,-0.605,0.805,-0.180
43.221,-0.604,0.803,-0.182
43.231,-0.602,0.803,-0.182
43.241,-0.600,0.799,-0.182
43.251,-0.598,0.803,-0.180
43.261,-0.600,0.805,-0.182
43.270,-0.602,0.807,-0.182
43.280,-0.604,0.805,-0.180
43.290,-0.604,0.807,-0.180
43.300,-0.600,0.799,-0.180
43.310,-0.602,0.803,-0.178
43.320,-0.604,0.803,-0.180
43.330,-0.604,0.801,-0.180
43.340,-0.602,0.803,-0.180
43.350,-0.605,0.803,-0.182
43.360,-0.604,0.799,-0.184
43.370,-0.604,0.801,-0.182
43.380,-0.607,0.799,-0.180
43.390,-0.604,0.801,-0.180
43.399,-0.607,0.801,-0.178
43.409,-0.602,0.803,-0.182
43.419,-0.604,0.801,-0.182
43.429,-0.605,0.797,-0.178
43.439,-0.607,0.801,-0.182
43.449,-0.607,0.801,-0.182
43.459,-0.607,0.799,-0.182
43.469,-0.605,0.803,-0.178
43.479,-0.604,0.803,-0.180
43.489,-0.605,0.807,-0.180
43.499,-0.607,0.803,-0.182
43.509,-0.607,0.801,-0.178
43.519,-0.604,0.799,-0.174
43.528,-0.607,0.803,-0.176
43.538,-0.607,0.807,-0.180
43.548,-0.609,0.809,-0.178
43.558,-0.607,0.805,-0.176
43.568,-0.607,0.805,-0.178
43.578,-0.602,0.799,-0.180
43.588,-0.602,0.793,-0.176
43.598,-0.605,0.789,-0.176
43.608,-0.611,0.795,-0.180
43.618,-0.613,0.799,-0.180
43.628,-0.615,0.803,-0.176
43.638,-0.617,0.801,-0.178
43.648,-0.613,0.801,-0.180
43.657,-0.609,0.797,-0.178
43.667,-0.605,0.793,-0.180
43.677,-0.604,0.797,-0.180
43.687,-0.607,0.797,-0.178
43.697,-0.604,0.797,-0.182
43.707,-0.605,0.801,-0.176
43.717,-0.607,0.801,-0.178
43.727,-0.607,0.805,-0.176
43.737,-0.607,0.805,-0.176
43.747,-0.607,0.805,-0.180
43.757,-0.607,0.803,-0.176
43.767,-0.605,0.801,-0.180
43.777,-0.607,0.803,-0.182
43.786,-0.607,0.793,-0.182
43.796,-0.609,0.803,-0.178
43.806,-0.609,0.807,-0.182
43.816,-0.611,0.809,-0.180
43.826,-0.605,0.805,-0.180
43.836,-0.602,0.801,-0.180
43.846,-0.604,0.801,-0.178
43.856,-0.604,0.797,-0.180
43.866,-0.605,0.801,-0.180
43.876,-0.605,0.805,-0.178
43.886,-0.607,0.805,-0.180
43.896,-0.609,0.807,-0.178
43.906,-0.604,0.805,-0.180
43.915,-0.605,0.801,-0.182
43.925,-0.604,0.797,-0.178
43.935,-0.602,0.801,-0.184
43.945,-0.602,0.799,-0.180
43.955,-0.602,0.803,-0.180
43.965,-0.605,0.803,-0.180
43.975,-0.602,0.805,-0.178
43.985,-0.602,0.803,-0.180
43.995,-0.605,0.803,-0.178
44.005,-0.605,0.801,-0.182
44.015,-0.604,0.801,-0.182
44.025,-0.605,0.801,-0.184
44.035,-0.609,0.799,-0.184
44.044,-0.609,0.801,-0.182
44.054,-0.609,0.797,-0.184
44.064,-0.604,0.795,-0.182
44.074,-0.609,0.795,-0.184
44.084,-0.611,0.799,-0.182
44.094,-0.611,0.799,-0.180
44.104,-0.611,0.797,-0.182
44.114,-0.611,0.799,-0.182
44.124,-0.609,0.801,-0.184
44.134,-0.611,0.799,-0.184
44.144,-0.607,0.797,-0.182
44.154,-0.607,0.801,-0.182
44.164,-0.609,0.805,-0.182
44.173,-0.607,0.801,-0.182
44.183,-0.607,0.799,-0.180
44.193,-0.607,0.797,-0.178
44.203,-0.607,0.803,-0.178
44.213,-0.605,0.805,-0.180
44.223,-0.609,0.805,-0.178
44.233,-0.613,0.807,-0.178
44.243,-0.605,0.803,-0.180
44.253,-0.604,0.799,-0.178
44.263,-0.605,0.795,-0.178
44.273,-0.611,0.793,-0.176
44.283,-0.611,0.797,-0.176
44.293,-0.611,0.797,-0.176
44.302,-0.613,0.799,-0.174
44.312,-0.615,0.797,-0.174
44.322,-0.615,0.795,-0.174
44.332,-0.613,0.795,-0.174
44.342,-0.611,0.793,-0.174
44.352,-0.611,0.791,-0.178
44.362,-0.611,0.793,-0.176
44.372,-0.609,0.795,-0.174
44.382,-0.613,0.797,-0.176
44.392,-0.611,0.799,-0.170
44.402,-0.609,0.803,-0.170
44.412,-0.609,0.803,-0.174
44.422,-0.609,0.803,-0.172
44.431,-0.609,0.803,-0.172
44.441,-0.609,0.803,-0.172
44.451,-0.609,0.803,-0.174
44.461,-0.611,0.803,-0.174
44.471,-0.609,0.803,-0.170
44.481,-0.611,0.803,-0.170
44.491,-0.609,0.803,-0.172
44.501,-0.609,0.803,-0.172
44.511,-0.609,0.801,-0.172
44.521,-0.613,0.797,-0.172
44.531,-0.609,0.795,-0.174
44.541,-0.613,0.797,-0.174
44.551,-0.617,0.799,-0.174
44.560,-0.615,0.801,-0.172
44.570,-0.617,0.797,-0.172
44.580,-0.619,0.795,-0.172
44.590,-0.615,0.797,-0.170
44.600,-0.617,0.797,-0.174
44.610,-0.613,0.795,-0.170
44.620,-0.613,0.793,-0.166
44.630,-0.613,0.793,-0.168
44.640,-0.613,0.797,-0.168
44.650,-0.609,0.797,-0.172
44.660,-0.609,0.795,-0.170
44.670,-0.611,0.797,-0.172
44.680,-0.613,0.797,-0.170
44.689,-0.613,0.799,-0.172
44.699,-0.615,0.797,-0.172
44.709,-0.611,0.797,-0.174
44.719,-0.613,0.797,-0.176
44.729,-0.615,0.795,-0.174
44.739,-0.617,0.799,-0.176
44.749,-0.619,0.793,-0.178
44.759,-0.615,0.797,-0.174
44.769,-0.621,0.797,-0.176
44.779,-0.621,0.795,-0.176
44.789,-0.621,0.797,-0.176
44.799,-0.619,0.795,-0.174
44.809,-0.617,0.791,-0.178
44.818,-0.611,0.795,-0.176
44.828,-0.617,0.797,-0.176
44.838,-0.615,0.793,-0.176
44.848,-0.617,0.799,-0.176
44.858,-0.619,0.799,-0.176
44.868,-0.615,0.797,-0.178
44.878,-0.613,0.795,-0.174
44.888,-0.613,0.795,-0.172
44.898,-0.613,0.795,-0.178
44.908,-0.611,0.801,-0.174
44.918,-0.613,0.801,-0.172
44.928,-0.617,0.801,-0.174
44.938,-0.615,0.801,-0.176
44.947,-0.611,0.795,-0.178
44.957,-0.611,0.793,-0.174
44.967,-0.619,0.793,-0.178
44.977,-0.617,0.791,-0.176
44.987,-0.617,0.793,-0.178
44.997,-0.617,0.797,-0.174
45.007,-0.617,0.795,-0.172
45.017,-0.615,0.795,-0.172
45.027,-0.615,0.793,-0.172
45.037,-0.613,0.793,-0.178
45.047,-0.615,0.793,-0.178
45.057,-0.617,0.793,-0.176
45.067,-0.613,0.795,-0.170
45.076,-0.609,0.799,-0.174
45.086,-0.611,0.799,-0.174
45.096,-0.615,0.803,-0.172
45.106,-0.615,0.801,-0.174
45.116,-0.615,0.803,-0.172
45.126,-0.617,0.799,-0.174
45.136,-0.613,0.799,-0.176
45.146,-0.615,0.799,-0.176
45.156,-0.609,0.793,-0.172
45.166,-0.617,0.797,-0.170
45.176,-0.615,0.801,-0.172
45.186,-0.613,0.799,-0.170
45.196,-0.613,0.801,-0.172
45.205,-0.613,0.795,-0.172
45.215,-0.613,0.795,-0.172
45.225,-0.615,0.793,-0.172
45.235,-0.617,0.797,-0.174
45.245,-0.617,0.797,-0.172
45.255,-0.613,0.799,-0.174
45.265,-0.613,0.799,-0.170
45.275,-0.613,0.795,-0.172
45.285,-0.615,0.795,-0.172
45.295,-0.611,0.793,-0.172
45.305,-0.611,0.797,-0.174
45.315,-0.613,0.797,-0.168
45.325,-0.613,0.797,-0.166
45.334,-0.611,0.797,-0.170
45.344,-0.613,0.799,-0.172
45.354,-0.611,0.799,-0.170
45.364,-0.613,0.797,-0.172
45.374,-0.613,0.797,-0.172
45.384,-0.613,0.801,-0.172
45.394,-0.615,0.799,-0.174
45.404,-0.615,0.797,-0.172
45.414,-0.619,0.799,-0.172
45.424,-0.617,0.797,-0.176
45.434,-0.619,0.799,-0.174
45.444,-0.617,0.795,-0.174
45.454,-0.617,0.795,-0.170
45.463,-0.615,0.795,-0.172
45.473,-0.615,0.797,-0.170
45.483,-0.613,0.797,-0.174
45.493,-0.615,0.797,-0.174
45.503,-0.613,0.797,-0.170
45.513,-0.615,0.797,-0.170
45.523,-0.613,0.797,-0.172
45.533,-0.613,0.795,-0.172
45.543,-0.617,0.795,-0.170
45.553,-0.613,0.793,-0.174
45.563,-0.617,0.797,-0.174
45.573,-0.613,0.795,-0.172
45.583,-0.615,0.797,-0.172
45.592,-0.613,0.795,-0.172
45.602,-0.615,0.795,-0.172
45.612,-0.619,0.795,-0.174
45.622,-0.613,0.797,-0.172
45.632,-0.615,0.793,-0.172
45.642,-0.617,0.797,-0.176
45.652,-0.613,0.793,-0.170
45.662,-0.615,0.795,-0.168
45.672,-0.615,0.795,-0.174
45.682,-0.615,0.797,-0.172
45.692,-0.615,0.799,-0.174
45.702,-0.615,0.801,-0.172
45.712,-0.615,0.801,-0.172
45.721,-0.615,0.799,-0.172
45.731,-0.613,0.793,-0.172
45.741,-0.613,0.801,-0.172
45.751,-0.611,0.805,-0.170
45.761,-0.615,0.807,-0.172
45.771,-0.615,0.805,-0.172
45.781,-0.611,0.799,-0.172
45.791,-0.613,0.795,-0.178
45.801,-0.613,0.795,-0.174
45.811,-0.617,0.799,-0.172
45.821,-0.619,0.799,-0.174
45.831,-0.617,0.803,-0.176
45.841,-0.619,0.799,-0.172
45.850,-0.615,0.797,-0.176
45.860,-0.611,0.793,-0.174
45.870,-0.611,0.793,-0.174
45.880,-0.615,0.795,-0.174
45.890,-0.609,0.793,-0.174
45.900,-0.615,0.797,-0.174
45.910,-0.611,0.797,-0.172
45.920,-0.611,0.797,-0.174
45.930,-0.613,0.799,-0.170
45.940,-0.611,0.801,-0.172
45.950,-0.613,0.801,-0.170
45.960,-0.613,0.801,-0.172
45.970,-0.611,0.801,-0.176
45.979,-0.613,0.797,-0.172
45.989,-0.613,0.793,-0.174
45.999,-0.615,0.797,-0.174
46.009,-0.617,0.803,-0.174
46.019,-0.615,0.805,-0.172
46.029,-0.611,0.801,-0.172
46.039,-0.611,0.801,-0.172
46.049,-0.611,0.797,-0.176
46.059,-0.609,0.795,-0.172
46.069,-0.607,0.795,-0.174
46.079,-0.613,0.801,-0.174
46.089,-0.613,0.805,-0.174
46.099,-0.615,0.807,-0.174
46.108,-0.613,0.801,-0.176
46.118,-0.609,0.803,-0.172
46.128,-0.607,0.799,-0.168
46.138,-0.611,0.797,-0.172
46.148,-0.609,0.797,-0.172
46.158,-0.611,0.799,-0.172
46.168,-0.611,0.799,-0.172
46.178,-0.611,0.801,-0.174
46.188,-0.611,0.801,-0.174
46.198,-0.611,0.801,-0.172
46.208,-0.611,0.797,-0.172
46.218,-0.607,0.797,-0.174
46.228,-0.613,0.795,-0.170
46.237,-0.611,0.799,-0.172
46.247,-0.613,0.801,-0.176
46.257,-0.615,0.797,-0.172
46.267,-0.613,0.797,-0.172
46.277,-0.613,0.799,-0.172
46.287,-0.615,0.797,-0.178
46.297,-0.615,0.801,-0.172
46.307,-0.613,0.799,-0.170
46.317,-0.613,0.803,-0.174
46.327,-0.611,0.801,-0.176
46.337,-0.611,0.801,-0.172
46.347,-0.607,0.801,-0.172
46.357,-0.609,0.801,-0.172
46.366,-0.611,0.801,-0.172
46.376,-0.611,0.801,-0.174
46.386,-0.607,0.799,-0.170
46.396,-0.611,0.803,-0.174
46.406,-0.615,0.799,-0.172
46.416,-0.613,0.801,-0.170
46.426,-0.613,0.797,-0.172
46.436,-0.617,0.801,-0.174
46.446,-0.615,0.799,-0.172
46.456,-0.615,0.795,-0.172
46.466,-0.615,0.795,-0.174
46.476,-0.613,0.793,-0.172
46.486,-0.615,0.795,-0.170
46.495,-0.615,0.797,-0.170
46.505,-0.617,0.801,-0.172
46.515,-0.617,0.803,-0.174
46.525,-0.617,0.799,-0.170
46.535,-0.611,0.793,-0.172
46.545,-0.613,0.799,-0.172
46.555,-0.609,0.803,-0.166
46.565,-0.613,0.805,-0.168
46.575,-0.613,0.803,-0.172
46.585,-0.611,0.801,-0.172
46.595,-0.609,0.795,-0.170
46.605,-0.613,0.791,-0.172
46.615,-0.617,0.795,-0.174
46.624,-0.615,0.799,-0.172
46.634,-0.615,0.801,-0.172
46.644,-0.617,0.801,-0.174
46.654,-0.619,0.803,-0.172
46.664,-0.617,0.801,-0.172
46.674,-0.613,0.795,-0.168
46.684,-0.613,0.799,-0.170
46.694,-0.611,0.795,-0.174
46.704,-0.609,0.797,-0.170
46.714,-0.609,0.801,-0.170
46.724,-0.607,0.801,-0.170
46.734,-0.611,0.801,-0.170
46.744,-0.613,0.803,-0.170
46.753,-0.613,0.801,-0.170
46.763,-0.613,0.801,-0.168
46.773,-0.615,0.803,-0.176
46.783,-0.613,0.801,-0.170
46.793,-0.613,0.795,-0.170
46.803,-0.613,0.799,-0.170
46.813,-0.617,0.803,-0.176
46.823,-0.611,0.805,-0.172
46.833,-0.611,0.801,-0.170
46.843,-0.607,0.799,-0.170
46.853,-0.605,0.797,-0.172
46.863,-0.607,0.799,-0.170
46.873,-0.605,0.805,-0.166
46.882,-0.609,0.811,-0.170
46.892,-0.609,0.809,-0.170
46.902,-0.604,0.805,-0.168
46.912,-0.604,0.801,-0.168
46.922,-0.602,0.803,-0.170
46.932,-0.605,0.801,-0.168
46.942,-0.604,0.805,-0.168
46.952,-0.604,0.805,-0.168
46.962,-0.605,0.803,-0.168
46.972,-0.605,0.803,-0.164
46.982,-0.605,0.803,-0.172
46.992,-0.607,0.803,-0.168
47.002,-0.611,0.805,-0.170
47.011,-0.609,0.801,-0.172
47.021,-0.611,0.805,-0.170
47.031,-0.609,0.803,-0.174
47.041,-0.611,0.805,-0.176
47.051,-0.607,0.807,-0.176
47.061,-0.607,0.809,-0.172
47.071,-0.605,0.809,-0.170
47.081,-0.604,0.805,-0.170
47.091,-0.602,0.803,-0.172
47.101,-0.605,0.803,-0.172
47.111,-0.605,0.805,-0.170
47.121,-0.605,0.809,-0.170
47.131,-0.605,0.809,-0.168
47.140,-0.609,0.805,-0.170
47.150,-0.607,0.809,-0.170
47.160,-0.605,0.805,-0.172
47.170,-0.604,0.807,-0.170
47.180,-0.605,0.807,-0.170
47.190,-0.604,0.803,-0.168
47.200,-0.602,0.801,-0.170
47.210,-0.602,0.803,-0.164
47.220,-0.605,0.809,-0.166
47.230,-0.604,0.811,-0.166
47.240,-0.604,0.812,-0.168
47.250,-0.604,0.809,-0.164
47.260,-0.605,0.809,-0.170
47.269,-0.605,0.805,-0.174
47.279,-0.605,0.801,-0.170
47.289,-0.609,0.801,-0.168
47.299,-0.605,0.803,-0.172
47.309,-0.607,0.805,-0.166
47.319,-0.609,0.807,-0.166
47.329,-0.609,0.807,-0.166
47.339,-0.607,0.805,-0.166
47.349,-0.602,0.801,-0.166
47.359,-0.602,0.799,-0.164
47.369,-0.598,0.803,-0.164
47.379,-0.604,0.803,-0.166
47.389,-0.602,0.803,-0.168
47.398,-0.605,0.809,-0.168
47.408,-0.607,0.805,-0.164
47.418,-0.605,0.807,-0.168
47.428,-0.607,0.805,-0.168
47.438,-0.609,0.809,-0.166
47.448,-0.609,0.809,-0.170
47.458,-0.605,0.807,-0.170
47.468,-0.605,0.803,-0.170
47.478,-0.605,0.811,-0.168
47.488,-0.604,0.809,-0.162
47.498,-0.605,0.809,-0.168
47.508,-0.602,0.805,-0.164
47.518,-0.604,0.807,-0.168
47.527,-0.605,0.809,-0.164
47.537,-0.600,0.809,-0.164
47.547,-0.602,0.811,-0.164
47.557,-0.602,0.809,-0.164
47.567,-0.602,0.809,-0.164
47.577,-0.598,0.811,-0.164
47.587,-0.600,0.807,-0.168
47.597,-0.602,0.803,-0.166
47.607,-0.602,0.805,-0.164
47.617,-0.602,0.809,-0.166
47.627,-0.600,0.811,-0.164
47.637,-0.602,0.807,-0.166
47.647,-0.604,0.809,-0.172
47.656,-0.604,0.807,-0.162
47.666,-0.600,0.807,-0.168
47.676,-0.602,0.807,-0.166
47.686,-0.600,0.807,-0.168
47.696,-0.602,0.807,-0.168
47.706,-0.602,0.809,-0.168
47.716,-0.604,0.807,-0.168
47.726,-0.604,0.805,-0.166
47.736,-0.604,0.805,-0.166
47.746,-0.604,0.809,-0.172
47.756,-0.604,0.809,-0.168
47.766,-0.604,0.809,-0.170
47.776,-0.602,0.811,-0.166
47.785,-0.602,0.812,-0.170
47.795,-0.602,0.811,-0.166
47.805,-0.596,0.805,-0.168
47.815,-0.598,0.811,-0.168
47.825,-0.598,0.818,-0.168
47.835,-0.594,0.814,-0.166
47.845,-0.598,0.814,-0.168
47.855,-0.602,0.812,-0.166
47.865,-0.604,0.807,-0.168
47.875,-0.602,0.805,-0.170
47.885,-0.607,0.801,-0.168
47.895,-0.611,0.805,-0.168
47.905,-0.607,0.809,-0.166
47.914,-0.609,0.807,-0.170
47.924,-0.607,0.805,-0.168
47.934,-0.604,0.801,-0.166
47.944,-0.602,0.797,-0.166
47.954,-0.600,0.801,-0.166
47.964,-0.602,0.799,-0.166
47.974,-0.600,0.803,-0.166
47.984,-0.602,0.803,-0.168
47.994,-0.604,0.805,-0.166
48.004,-0.607,0.807,-0.168
48.014,-0.607,0.809,-0.164
48.024,-0.607,0.809,-0.170
48.034,-0.611,0.811,-0.168
48.043,-0.611,0.807,-0.170
48.053,-0.607,0.809,-0.168
48.063,-0.604,0.805,-0.170
48.073,-0.605,0.809,-0.168
48.083,-0.607,0.814,-0.168
48.093,-0.602,0.814,-0.168
48.103,-0.600,0.812,-0.164
48.113,-0.600,0.805,-0.170
48.123,-0.598,0.805,-0.166
48.133,-0.600,0.809,-0.166
48.143,-0.596,0.811,-0.166
48.153,-0.602,0.811,-0.164
48.162,-0.604,0.812,-0.166
48.172,-0.600,0.811,-0.168
48.182,-0.604,0.807,-0.168
48.192,-0.602,0.807,-0.168
48.202,-0.600,0.805,-0.170
48.212,-0.602,0.803,-0.168
48.222,-0.600,0.805,-0.168
48.232,-0.604,0.807,-0.168
48.242,-0.604,0.809,-0.168
48.252,-0.605,0.805,-0.166
48.262,-0.602,0.809,-0.170
48.272,-0.604,0.807,-0.170
48.282,-0.602,0.811,-0.166
48.291,-0.602,0.811,-0.170
48.301,-0.602,0.807,-0.168
48.311,-0.602,0.807,-0.168
48.321,-0.602,0.809,-0.166
48.331,-0.604,0.805,-0.166
48.341,-0.605,0.811,-0.168
48.351,-0.604,0.814,-0.170
48.361,-0.604,0.814,-0.172
48.371,-0.604,0.805,-0.170
48.381,-0.600,0.805,-0.166
48.391,-0.604,0.809,-0.166
48.401,-0.598,0.812,-0.166
48.411,-0.598,0.814,-0.166
48.420,-0.602,0.816,-0.168
48.430,-0.600,0.816,-0.172
48.440,-0.602,0.803,-0.170
48.450,-0.604,0.801,-0.168
48.460,-0.609,0.799,-0.172
48.470,-0.611,0.805,-0.170
48.480,-0.607,0.812,-0.170
48.490,-0.609,0.807,-0.172
48.500,-0.607,0.805,-0.166
48.510,-0.605,0.801,-0.168
48.520,-0.604,0.801,-0.166
48.530,-0.602,0.801,-0.166
48.540,-0.604,0.801,-0.166
48.549,-0.602,0.797,-0.166
48.559,-0.605,0.807,-0.168
48.569,-0.604,0.807,-0.170
48.579,-0.605,0.809,-0.162
48.589,-0.604,0.805,-0.166
48.599,-0.605,0.807,-0.164
48.609,-0.609,0.807,-0.166
48.619,-0.609,0.803,-0.168
48.629,-0.611,0.803,-0.174
48.639,-0.611,0.805,-0.168
48.649,-0.609,0.799,-0.174
48.659,-0.613,0.807,-0.172
48.669,-0.611,0.811,-0.166
48.678,-0.609,0.805,-0.172
48.688,-0.605,0.805,-0.168
48.698,-0.602,0.801,-0.170
48.708,-0.605,0.803,-0.170
48.718,-0.605,0.805,-0.170
48.728,-0.604,0.809,-0.168
48.738,-0.607,0.811,-0.168
48.748,-0.607,0.809,-0.166
48.758,-0.605,0.803,-0.170
48.768,-0.604,0.801,-0.168
48.778,-0.604,0.799,-0.166
48.788,-0.604,0.803,-0.170
48.798,-0.604,0.805,-0.168
48.807,-0.605,0.809,-0.168
48.817,-0.605,0.807,-0.168
48.827,-0.607,0.807,-0.172
48.837,-0.604,0.805,-0.168
48.847,-0.604,0.801,-0.166
48.857,-0.605,0.805,-0.172
48.867,-0.605,0.805,-0.168
48.877,-0.607,0.807,-0.170
48.887,-0.607,0.807,-0.166
48.897,-0.602,0.801,-0.170
48.907,-0.604,0.797,-0.166
48.917,-0.605,0.795,-0.168
48.927,-0.604,0.801,-0.166
48.936,-0.605,0.807,-0.168
48.946,-0.609,0.809,-0.174
48.956,-0.607,0.809,-0.172
48.966,-0.604,0.805,-0.172
48.976,-0.607,0.803,-0.170
48.986,-0.602,0.807,-0.168
48.996,-0.607,0.812,-0.172
49.006,-0.607,0.814,-0.170
49.016,-0.600,0.814,-0.168
49.026,-0.600,0.809,-0.168
49.036,-0.596,0.799,-0.164
49.046,-0.602,0.801,-0.166
49.056,-0.600,0.797,-0.168
49.065,-0.600,0.801,-0.170
49.075,-0.604,0.801,-0.168
49.085,-0.611,0.805,-0.174
49.095,-0.615,0.807,-0.178
49.105,-0.611,0.807,-0.178
49.115,-0.609,0.803,-0.176
49.125,-0.607,0.805,-0.176
49.135,-0.607,0.803,-0.174
49.145,-0.605,0.805,-0.176
49.155,-0.604,0.809,-0.174
49.165,-0.602,0.811,-0.176
