df_hash,22ZHK4.Z1ZPL9
device,HZ2X61
project_hash,29R7
project_name,istanbul_aydin_university
person_hash,29R7.UH07
person_label,V67
date_time_start,2025-10-31_17-31-54.657000_+03
date_time_start_unix,1761917514.657
date_time_end,2025-10-31_17-40-10.548000_+03
length_difference_noticed,no

time,acc_x,acc_y,acc_z
5.361,-0.193,0.924,0.338
5.371,-0.195,0.920,0.338
5.381,-0.195,0.920,0.338
5.391,-0.188,0.918,0.338
5.401,-0.188,0.922,0.342
5.411,-0.193,0.928,0.346
5.421,-0.189,0.924,0.344
5.431,-0.195,0.922,0.340
5.441,-0.197,0.918,0.342
5.451,-0.193,0.918,0.340
5.460,-0.195,0.924,0.342
5.470,-0.195,0.926,0.342
5.480,-0.201,0.922,0.344
5.490,-0.201,0.918,0.338
5.500,-0.205,0.918,0.340
5.510,-0.199,0.924,0.338
5.520,-0.195,0.924,0.342
5.530,-0.195,0.920,0.338
5.540,-0.191,0.916,0.340
5.550,-0.193,0.916,0.338
5.560,-0.195,0.918,0.336
5.570,-0.195,0.924,0.338
5.580,-0.199,0.924,0.342
5.590,-0.195,0.928,0.340
5.600,-0.197,0.928,0.338
5.609,-0.201,0.926,0.340
5.619,-0.203,0.924,0.338
5.629,-0.199,0.914,0.338
5.639,-0.195,0.926,0.338
5.649,-0.195,0.926,0.338
5.659,-0.191,0.928,0.340
5.669,-0.191,0.924,0.340
5.679,-0.191,0.922,0.338
5.689,-0.193,0.920,0.336
5.699,-0.188,0.922,0.338
5.709,-0.186,0.928,0.334
5.719,-0.189,0.932,0.340
5.729,-0.189,0.932,0.342
5.739,-0.193,0.928,0.338
5.749,-0.193,0.928,0.336
5.758,-0.193,0.926,0.336
5.768,-0.195,0.924,0.336
5.778,-0.197,0.924,0.336
5.788,-0.195,0.922,0.336
5.798,-0.193,0.922,0.338
5.808,-0.189,0.918,0.334
5.818,-0.189,0.926,0.336
5.828,-0.188,0.926,0.334
5.838,-0.188,0.920,0.334
5.848,-0.188,0.920,0.330
5.858,-0.182,0.924,0.332
5.868,-0.178,0.922,0.334
5.878,-0.180,0.930,0.334
5.888,-0.184,0.926,0.332
5.898,-0.184,0.920,0.328
5.908,-0.186,0.926,0.330
5.917,-0.189,0.928,0.330
5.927,-0.193,0.930,0.332
5.937,-0.193,0.928,0.328
5.947,-0.193,0.930,0.330
5.957,-0.191,0.928,0.332
5.967,-0.189,0.924,0.332
5.977,-0.188,0.924,0.334
5.987,-0.189,0.922,0.332
5.997,-0.189,0.924,0.334
6.007,-0.191,0.924,0.332
6.017,-0.191,0.922,0.330
6.027,-0.191,0.926,0.332
6.037,-0.188,0.926,0.334
6.047,-0.188,0.922,0.334
6.057,-0.188,0.932,0.340
6.066,-0.186,0.924,0.338
6.076,-0.180,0.918,0.336
6.086,-0.176,0.916,0.338
6.096,-0.172,0.922,0.340
6.106,-0.172,0.930,0.340
6.116,-0.178,0.934,0.342
6.126,-0.180,0.924,0.338
6.136,-0.184,0.918,0.336
6.146,-0.182,0.922,0.340
6.156,-0.182,0.930,0.340
6.166,-0.182,0.936,0.346
6.176,-0.180,0.932,0.346
6.186,-0.180,0.926,0.346
6.196,-0.180,0.918,0.342
6.206,-0.178,0.918,0.344
6.216,-0.178,0.918,0.338
6.225,-0.176,0.914,0.338
6.235,-0.178,0.912,0.334
6.245,-0.176,0.918,0.338
6.255,-0.174,0.920,0.340
6.265,-0.176,0.928,0.338
6.275,-0.178,0.922,0.338
6.285,-0.174,0.928,0.338
6.295,-0.176,0.934,0.340
6.305,-0.176,0.932,0.342
6.315,-0.178,0.932,0.340
6.325,-0.178,0.920,0.340
6.335,-0.182,0.930,0.340
6.345,-0.184,0.930,0.342
6.355,-0.182,0.934,0.338
6.365,-0.182,0.926,0.338
6.374,-0.186,0.920,0.334
6.384,-0.182,0.920,0.338
6.394,-0.186,0.924,0.338
6.404,-0.184,0.926,0.338
6.414,-0.186,0.924,0.342
6.424,-0.184,0.926,0.340
6.434,-0.180,0.922,0.342
6.444,-0.180,0.924,0.338
6.454,-0.178,0.924,0.338
6.464,-0.174,0.922,0.336
6.474,-0.174,0.922,0.334
6.484,-0.174,0.920,0.334
6.494,-0.172,0.922,0.334
6.504,-0.174,0.924,0.334
6.514,-0.174,0.922,0.334
6.523,-0.176,0.926,0.330
6.533,-0.178,0.930,0.328
6.543,-0.174,0.930,0.330
6.553,-0.176,0.930,0.330
6.563,-0.180,0.932,0.332
6.573,-0.182,0.926,0.326
6.583,-0.184,0.924,0.326
6.593,-0.180,0.922,0.330
6.603,-0.182,0.926,0.332
6.613,-0.180,0.932,0.330
6.623,-0.180,0.936,0.332
6.633,-0.182,0.939,0.332
6.643,-0.182,0.932,0.326
6.653,-0.184,0.928,0.328
6.663,-0.191,0.936,0.324
6.673,-0.189,0.926,0.320
6.682,-0.186,0.910,0.318
6.692,-0.184,0.920,0.324
6.702,-0.186,0.928,0.332
6.712,-0.186,0.936,0.330
6.722,-0.188,0.939,0.334
6.732,-0.189,0.932,0.326
6.742,-0.188,0.922,0.326
6.752,-0.191,0.918,0.326
6.762,-0.195,0.924,0.328
6.772,-0.199,0.926,0.334
6.782,-0.193,0.932,0.334
6.792,-0.189,0.928,0.332
6.802,-0.186,0.928,0.334
6.812,-0.188,0.924,0.330
6.822,-0.188,0.924,0.330
6.831,-0.186,0.918,0.326
6.841,-0.188,0.920,0.326
6.851,-0.191,0.920,0.324
6.861,-0.193,0.920,0.328
6.871,-0.197,0.928,0.326
6.881,-0.193,0.934,0.330
6.891,-0.197,0.938,0.328
6.901,-0.197,0.943,0.334
6.911,-0.197,0.941,0.330
6.921,-0.191,0.930,0.326
6.931,-0.195,0.918,0.326
6.941,-0.195,0.930,0.326
6.951,-0.197,0.924,0.328
6.961,-0.195,0.918,0.322
6.971,-0.197,0.920,0.326
6.981,-0.193,0.922,0.330
6.990,-0.193,0.926,0.330
7.000,-0.188,0.930,0.336
7.010,-0.186,0.930,0.334
7.020,-0.184,0.928,0.334
7.030,-0.184,0.928,0.330
7.040,-0.182,0.920,0.328
7.050,-0.182,0.916,0.328
7.060,-0.188,0.916,0.324
7.070,-0.189,0.924,0.326
7.080,-0.188,0.924,0.332
7.090,-0.188,0.930,0.332
7.100,-0.186,0.924,0.332
7.110,-0.182,0.928,0.334
7.120,-0.186,0.930,0.332
7.130,-0.188,0.936,0.330
7.139,-0.189,0.930,0.330
7.149,-0.189,0.924,0.326
7.159,-0.189,0.926,0.324
7.169,-0.193,0.920,0.326
7.179,-0.193,0.924,0.326
7.189,-0.193,0.930,0.332
7.199,-0.191,0.928,0.328
7.209,-0.188,0.928,0.330
7.219,-0.189,0.936,0.328
7.229,-0.188,0.934,0.324
7.239,-0.188,0.924,0.324
7.249,-0.182,0.922,0.326
7.259,-0.182,0.920,0.328
7.269,-0.180,0.934,0.332
7.279,-0.186,0.939,0.330
7.288,-0.188,0.930,0.320
7.298,-0.191,0.922,0.322
7.308,-0.193,0.924,0.320
7.318,-0.189,0.932,0.330
7.328,-0.195,0.928,0.332
7.338,-0.197,0.934,0.334
7.348,-0.193,0.930,0.330
7.358,-0.191,0.924,0.330
7.368,-0.189,0.926,0.326
7.378,-0.186,0.924,0.328
7.388,-0.186,0.918,0.326
7.398,-0.186,0.916,0.322
7.408,-0.184,0.920,0.326
7.418,-0.186,0.924,0.322
7.428,-0.189,0.924,0.324
7.438,-0.189,0.930,0.328
7.447,-0.199,0.930,0.326
7.457,-0.195,0.936,0.330
7.467,-0.199,0.939,0.330
7.477,-0.203,0.934,0.328
7.487,-0.201,0.928,0.328
7.497,-0.197,0.938,0.326
7.507,-0.199,0.938,0.332
7.517,-0.195,0.922,0.322
7.527,-0.203,0.916,0.318
7.537,-0.205,0.914,0.320
7.547,-0.203,0.916,0.324
7.557,-0.203,0.926,0.326
7.567,-0.199,0.928,0.330
7.577,-0.195,0.934,0.334
7.587,-0.193,0.928,0.332
7.596,-0.189,0.926,0.328
7.606,-0.189,0.926,0.326
7.616,-0.191,0.924,0.322
7.626,-0.191,0.928,0.326
7.636,-0.186,0.924,0.326
7.646,-0.189,0.918,0.328
7.656,-0.189,0.922,0.326
7.666,-0.189,0.924,0.326
7.676,-0.193,0.926,0.330
7.686,-0.191,0.930,0.320
7.696,-0.189,0.932,0.324
7.706,-0.191,0.934,0.324
7.716,-0.191,0.934,0.324
7.726,-0.191,0.926,0.318
7.736,-0.193,0.924,0.322
7.746,-0.193,0.934,0.330
7.755,-0.193,0.936,0.328
7.765,-0.193,0.924,0.328
7.775,-0.191,0.928,0.324
7.785,-0.191,0.920,0.324
7.795,-0.188,0.922,0.328
7.805,-0.188,0.938,0.334
7.815,-0.191,0.936,0.330
7.825,-0.189,0.924,0.324
7.835,-0.189,0.920,0.324
7.845,-0.193,0.924,0.324
7.855,-0.191,0.936,0.330
7.865,-0.189,0.938,0.334
7.875,-0.189,0.939,0.332
7.885,-0.195,0.934,0.326
7.895,-0.201,0.922,0.320
7.904,-0.201,0.914,0.320
7.914,-0.203,0.914,0.326
7.924,-0.201,0.914,0.326
7.934,-0.199,0.922,0.330
7.944,-0.195,0.922,0.336
7.954,-0.191,0.920,0.330
7.964,-0.193,0.918,0.330
7.974,-0.193,0.916,0.334
7.984,-0.197,0.922,0.328
7.994,-0.201,0.924,0.328
8.004,-0.199,0.930,0.328
8.014,-0.205,0.934,0.328
8.024,-0.195,0.922,0.330
8.034,-0.195,0.934,0.336
8.044,-0.195,0.943,0.338
8.054,-0.191,0.932,0.338
8.063,-0.191,0.918,0.326
8.073,-0.191,0.914,0.324
8.083,-0.193,0.920,0.326
8.093,-0.193,0.926,0.328
8.103,-0.191,0.932,0.334
8.113,-0.189,0.930,0.336
8.123,-0.189,0.928,0.334
8.133,-0.189,0.926,0.334
8.143,-0.193,0.926,0.332
8.153,-0.189,0.922,0.330
8.163,-0.189,0.920,0.330
8.173,-0.186,0.922,0.330
8.183,-0.188,0.922,0.330
8.193,-0.188,0.926,0.328
8.203,-0.191,0.920,0.328
8.212,-0.193,0.926,0.332
8.222,-0.191,0.932,0.326
8.232,-0.191,0.934,0.330
8.242,-0.195,0.932,0.330
8.252,-0.193,0.930,0.332
8.262,-0.195,0.928,0.330
8.272,-0.189,0.926,0.330
8.282,-0.191,0.924,0.332
8.292,-0.193,0.928,0.332
8.302,-0.191,0.928,0.332
8.312,-0.191,0.928,0.332
8.322,-0.191,0.922,0.332
8.332,-0.191,0.928,0.334
8.342,-0.195,0.934,0.334
8.352,-0.195,0.914,0.328
8.361,-0.195,0.912,0.330
8.371,-0.197,0.914,0.334
8.381,-0.193,0.930,0.336
8.391,-0.193,0.939,0.342
8.401,-0.193,0.930,0.334
8.411,-0.201,0.916,0.328
8.421,-0.195,0.914,0.332
8.431,-0.191,0.926,0.338
8.441,-0.193,0.932,0.342
8.451,-0.195,0.928,0.340
8.461,-0.199,0.928,0.336
8.471,-0.199,0.922,0.336
8.481,-0.199,0.912,0.330
8.491,-0.203,0.914,0.328
8.501,-0.201,0.918,0.334
8.511,-0.195,0.920,0.334
8.520,-0.193,0.920,0.334
8.530,-0.193,0.920,0.336
8.540,-0.189,0.922,0.336
8.550,-0.195,0.924,0.334
8.560,-0.193,0.926,0.334
8.570,-0.189,0.928,0.336
8.580,-0.189,0.932,0.338
8.590,-0.195,0.934,0.338
8.600,-0.197,0.939,0.340
8.610,-0.199,0.930,0.332
8.620,-0.199,0.922,0.338
8.630,-0.201,0.941,0.346
8.640,-0.197,0.938,0.342
8.650,-0.195,0.922,0.332
8.660,-0.197,0.916,0.336
8.669,-0.193,0.918,0.332
8.679,-0.189,0.918,0.338
8.689,-0.188,0.920,0.342
8.699,-0.182,0.918,0.340
8.709,-0.186,0.916,0.338
8.719,-0.182,0.916,0.340
8.729,-0.186,0.910,0.334
8.739,-0.186,0.910,0.338
8.749,-0.186,0.916,0.338
8.759,-0.186,0.920,0.344
8.769,-0.184,0.926,0.340
8.779,-0.186,0.930,0.340
8.789,-0.184,0.930,0.338
8.799,-0.189,0.926,0.336
8.809,-0.193,0.928,0.334
8.819,-0.195,0.928,0.334
8.828,-0.193,0.924,0.330
8.838,-0.193,0.924,0.330
8.848,-0.195,0.926,0.330
8.858,-0.191,0.926,0.330
8.868,-0.189,0.930,0.328
8.878,-0.184,0.934,0.332
8.888,-0.184,0.936,0.334
8.898,-0.182,0.932,0.332
8.908,-0.178,0.928,0.332
8.918,-0.176,0.926,0.334
8.928,-0.178,0.920,0.334
8.938,-0.178,0.920,0.336
8.948,-0.180,0.920,0.338
8.958,-0.184,0.926,0.336
8.968,-0.186,0.926,0.334
8.977,-0.186,0.928,0.334
8.987,-0.191,0.930,0.334
8.997,-0.189,0.934,0.336
9.007,-0.191,0.934,0.340
9.017,-0.191,0.932,0.338
9.027,-0.189,0.928,0.338
9.037,-0.188,0.922,0.338
9.047,-0.186,0.918,0.336
9.057,-0.188,0.914,0.330
9.067,-0.191,0.912,0.332
9.077,-0.191,0.920,0.330
9.087,-0.188,0.924,0.338
9.097,-0.189,0.926,0.332
9.107,-0.184,0.930,0.336
9.117,-0.180,0.930,0.336
9.126,-0.180,0.928,0.336
9.136,-0.184,0.928,0.334
9.146,-0.182,0.922,0.332
9.156,-0.188,0.924,0.332
9.166,-0.188,0.926,0.334
9.176,-0.193,0.930,0.334
9.186,-0.191,0.934,0.330
9.196,-0.193,0.926,0.332
9.206,-0.193,0.932,0.332
9.216,-0.193,0.932,0.336
9.226,-0.191,0.918,0.330
9.236,-0.188,0.920,0.328
9.246,-0.186,0.926,0.334
9.256,-0.180,0.934,0.338
9.266,-0.184,0.934,0.342
9.276,-0.188,0.924,0.332
9.285,-0.188,0.910,0.328
9.295,-0.184,0.914,0.334
9.305,-0.191,0.922,0.336
9.315,-0.188,0.924,0.340
9.325,-0.188,0.926,0.342
9.335,-0.193,0.932,0.342
9.345,-0.197,0.928,0.340
9.355,-0.193,0.926,0.330
9.365,-0.195,0.922,0.330
9.375,-0.199,0.924,0.332
9.385,-0.199,0.924,0.330
9.395,-0.197,0.924,0.328
9.405,-0.195,0.924,0.332
9.415,-0.193,0.926,0.330
9.425,-0.191,0.920,0.334
9.434,-0.193,0.922,0.330
9.444,-0.191,0.926,0.334
9.454,-0.191,0.924,0.332
9.464,-0.191,0.924,0.334
9.474,-0.191,0.924,0.332
9.484,-0.195,0.932,0.338
9.494,-0.195,0.934,0.336
9.504,-0.191,0.926,0.336
9.514,-0.191,0.932,0.336
9.524,-0.189,0.932,0.336
9.534,-0.186,0.924,0.338
9.544,-0.188,0.924,0.332
9.554,-0.189,0.928,0.332
9.564,-0.193,0.924,0.332
9.574,-0.197,0.924,0.334
9.584,-0.201,0.930,0.336
9.593,-0.203,0.938,0.342
9.603,-0.201,0.936,0.336
9.613,-0.197,0.928,0.338
9.623,-0.195,0.924,0.338
9.633,-0.191,0.920,0.340
9.643,-0.191,0.914,0.338
9.653,-0.191,0.914,0.334
9.663,-0.193,0.914,0.330
9.673,-0.193,0.916,0.330
9.683,-0.199,0.912,0.328
9.693,-0.197,0.918,0.330
9.703,-0.191,0.922,0.336
9.713,-0.186,0.926,0.336
9.723,-0.191,0.930,0.340
9.733,-0.189,0.932,0.338
9.742,-0.189,0.932,0.342
9.752,-0.189,0.928,0.336
9.762,-0.193,0.924,0.332
9.772,-0.195,0.926,0.332
9.782,-0.193,0.924,0.334
9.792,-0.195,0.922,0.338
9.802,-0.197,0.922,0.332
9.812,-0.195,0.924,0.334
9.822,-0.191,0.924,0.340
9.832,-0.188,0.926,0.336
9.842,-0.186,0.930,0.338
9.852,-0.186,0.930,0.340
9.862,-0.184,0.926,0.340
9.872,-0.180,0.930,0.338
9.882,-0.184,0.930,0.338
9.891,-0.182,0.922,0.338
9.901,-0.188,0.916,0.334
9.911,-0.188,0.924,0.336
9.921,-0.197,0.924,0.340
9.931,-0.195,0.928,0.342
9.941,-0.191,0.920,0.342
9.951,-0.189,0.926,0.346
9.961,-0.188,0.924,0.342
9.971,-0.188,0.926,0.340
9.981,-0.186,0.926,0.342
9.991,-0.182,0.926,0.340
10.001,-0.182,0.926,0.338
10.011,-0.182,0.924,0.344
10.021,-0.186,0.924,0.342
10.031,-0.184,0.928,0.344
10.041,-0.188,0.928,0.348
10.050,-0.189,0.928,0.348
10.060,-0.186,0.924,0.344
10.070,-0.188,0.928,0.344
10.080,-0.188,0.920,0.340
10.090,-0.189,0.914,0.342
10.100,-0.188,0.914,0.344
10.110,-0.182,0.916,0.344
10.120,-0.184,0.926,0.350
10.130,-0.182,0.928,0.350
10.140,-0.186,0.920,0.344
10.150,-0.184,0.914,0.338
10.160,-0.191,0.916,0.342
10.170,-0.186,0.922,0.342
10.180,-0.186,0.928,0.348
10.190,-0.186,0.926,0.346
10.199,-0.191,0.920,0.342
10.209,-0.195,0.918,0.344
10.219,-0.201,0.918,0.346
10.229,-0.203,0.924,0.344
10.239,-0.203,0.928,0.346
10.249,-0.199,0.930,0.344
10.259,-0.197,0.928,0.342
10.269,-0.189,0.924,0.346
10.279,-0.189,0.922,0.342
10.289,-0.193,0.918,0.344
10.299,-0.191,0.916,0.340
10.309,-0.193,0.914,0.342
10.319,-0.197,0.916,0.342
10.329,-0.195,0.922,0.344
10.339,-0.197,0.924,0.342
10.349,-0.201,0.922,0.346
10.358,-0.197,0.922,0.344
10.368,-0.193,0.918,0.346
10.378,-0.191,0.930,0.348
10.388,-0.193,0.926,0.348
10.398,-0.188,0.920,0.340
10.408,-0.193,0.922,0.340
10.418,-0.191,0.922,0.344
10.428,-0.195,0.922,0.344
10.438,-0.193,0.926,0.344
10.448,-0.191,0.920,0.346
10.458,-0.195,0.918,0.346
10.468,-0.193,0.918,0.346
10.478,-0.191,0.920,0.350
10.488,-0.195,0.920,0.344
10.498,-0.191,0.922,0.344
10.507,-0.191,0.920,0.346
10.517,-0.188,0.924,0.340
10.527,-0.188,0.920,0.342
10.537,-0.189,0.916,0.344
10.547,-0.189,0.916,0.342
10.557,-0.189,0.916,0.340
10.567,-0.189,0.920,0.340
10.577,-0.191,0.924,0.348
10.587,-0.195,0.928,0.342
10.597,-0.195,0.930,0.340
10.607,-0.195,0.934,0.344
10.617,-0.201,0.930,0.348
10.627,-0.205,0.928,0.336
10.637,-0.201,0.926,0.340
10.647,-0.199,0.924,0.342
10.656,-0.201,0.926,0.344
10.666,-0.195,0.924,0.342
10.676,-0.195,0.922,0.342
10.686,-0.193,0.916,0.346
10.696,-0.195,0.914,0.344
10.706,-0.197,0.914,0.346
10.716,-0.199,0.914,0.342
10.726,-0.195,0.916,0.346
10.736,-0.201,0.922,0.350
10.746,-0.195,0.926,0.352
10.756,-0.195,0.920,0.348
10.766,-0.195,0.922,0.354
10.776,-0.195,0.922,0.350
10.786,-0.195,0.920,0.346
10.796,-0.191,0.922,0.346
10.806,-0.199,0.922,0.342
10.815,-0.199,0.918,0.346
10.825,-0.199,0.920,0.340
10.835,-0.199,0.924,0.344
10.845,-0.199,0.920,0.346
10.855,-0.201,0.924,0.344
10.865,-0.197,0.922,0.346
10.875,-0.199,0.922,0.346
10.885,-0.201,0.928,0.340
10.895,-0.199,0.926,0.346
10.905,-0.193,0.928,0.342
10.915,-0.201,0.922,0.342
10.925,-0.201,0.916,0.340
10.935,-0.197,0.918,0.342
10.945,-0.195,0.924,0.342
10.955,-0.199,0.924,0.344
10.964,-0.195,0.918,0.340
10.974,-0.193,0.920,0.340
10.984,-0.191,0.914,0.344
10.994,-0.186,0.924,0.342
11.004,-0.189,0.930,0.350
11.014,-0.189,0.930,0.348
11.024,-0.188,0.922,0.346
11.034,-0.193,0.928,0.348
11.044,-0.195,0.941,0.348
11.054,-0.197,0.932,0.350
11.064,-0.205,0.914,0.342
11.074,-0.197,0.924,0.342
11.084,-0.201,0.918,0.354
11.094,-0.203,0.910,0.340
11.104,-0.199,0.912,0.342
11.114,-0.193,0.916,0.344
11.123,-0.193,0.918,0.342
11.133,-0.193,0.916,0.344
11.143,-0.189,0.912,0.336
11.153,-0.191,0.916,0.342
11.163,-0.189,0.928,0.340
11.173,-0.191,0.922,0.350
11.183,-0.197,0.918,0.342
11.193,-0.195,0.922,0.346
11.203,-0.203,0.924,0.344
11.213,-0.205,0.924,0.350
11.223,-0.207,0.930,0.344
11.233,-0.205,0.928,0.346
11.243,-0.195,0.926,0.350
11.253,-0.193,0.932,0.352
11.263,-0.195,0.930,0.350
11.272,-0.189,0.918,0.344
11.282,-0.191,0.916,0.346
11.292,-0.195,0.920,0.346
11.302,-0.195,0.916,0.346
11.312,-0.199,0.914,0.348
11.322,-0.199,0.916,0.352
11.332,-0.197,0.920,0.352
11.342,-0.193,0.922,0.355
11.352,-0.189,0.924,0.355
11.362,-0.193,0.920,0.352
11.372,-0.186,0.916,0.354
11.382,-0.186,0.914,0.352
11.392,-0.189,0.916,0.352
11.402,-0.193,0.920,0.355
11.412,-0.195,0.920,0.352
11.421,-0.197,0.920,0.354
11.431,-0.195,0.916,0.352
11.441,-0.193,0.926,0.352
11.451,-0.193,0.926,0.354
11.461,-0.195,0.918,0.352
11.471,-0.193,0.920,0.352
11.481,-0.193,0.916,0.352
11.491,-0.195,0.918,0.348
11.501,-0.193,0.918,0.354
11.511,-0.197,0.922,0.354
11.521,-0.201,0.928,0.355
11.531,-0.197,0.930,0.352
11.541,-0.193,0.924,0.354
11.551,-0.193,0.920,0.354
11.561,-0.193,0.922,0.348
11.571,-0.186,0.916,0.355
11.580,-0.186,0.912,0.348
11.590,-0.186,0.910,0.355
11.600,-0.189,0.922,0.355
11.610,-0.186,0.922,0.357
11.620,-0.191,0.922,0.355
11.630,-0.199,0.916,0.350
11.640,-0.201,0.918,0.350
11.650,-0.193,0.922,0.354
11.660,-0.197,0.924,0.355
11.670,-0.199,0.918,0.352
11.680,-0.195,0.916,0.348
11.690,-0.193,0.916,0.354
11.700,-0.197,0.918,0.352
11.710,-0.191,0.918,0.352
11.720,-0.193,0.914,0.355
11.729,-0.197,0.928,0.354
11.739,-0.203,0.922,0.350
11.749,-0.207,0.918,0.348
11.759,-0.203,0.918,0.354
11.769,-0.195,0.926,0.352
11.779,-0.201,0.926,0.352
11.789,-0.197,0.918,0.354
11.799,-0.193,0.912,0.346
11.809,-0.186,0.914,0.352
11.819,-0.191,0.912,0.350
11.829,-0.189,0.926,0.354
11.839,-0.188,0.932,0.361
11.849,-0.193,0.924,0.354
11.859,-0.201,0.912,0.350
11.869,-0.205,0.910,0.346
11.879,-0.205,0.918,0.357
11.888,-0.205,0.924,0.357
11.898,-0.201,0.922,0.354
11.908,-0.199,0.920,0.354
11.918,-0.203,0.914,0.355
11.928,-0.207,0.910,0.352
11.938,-0.205,0.910,0.354
11.948,-0.213,0.912,0.348
11.958,-0.205,0.920,0.350
11.968,-0.207,0.916,0.350
11.978,-0.209,0.918,0.344
11.988,-0.207,0.920,0.346
11.998,-0.205,0.924,0.346
12.008,-0.203,0.920,0.350
12.018,-0.203,0.920,0.354
12.028,-0.207,0.918,0.350
12.037,-0.203,0.926,0.354
12.047,-0.201,0.928,0.354
12.057,-0.205,0.926,0.354
12.067,-0.203,0.916,0.348
12.077,-0.199,0.924,0.352
12.087,-0.207,0.932,0.352
12.097,-0.205,0.918,0.350
12.107,-0.203,0.910,0.346
12.117,-0.201,0.906,0.346
12.127,-0.207,0.910,0.354
12.137,-0.207,0.918,0.352
12.147,-0.203,0.924,0.357
12.157,-0.201,0.924,0.363
12.167,-0.201,0.922,0.359
12.177,-0.205,0.920,0.355
12.186,-0.205,0.918,0.355
12.196,-0.207,0.912,0.352
12.206,-0.207,0.910,0.348
12.216,-0.205,0.908,0.354
12.226,-0.205,0.916,0.355
12.236,-0.209,0.914,0.354
12.246,-0.205,0.918,0.355
12.256,-0.205,0.914,0.355
12.266,-0.205,0.916,0.357
12.276,-0.211,0.914,0.355
12.286,-0.209,0.914,0.354
12.296,-0.211,0.916,0.354
12.306,-0.209,0.916,0.354
12.316,-0.209,0.918,0.354
12.326,-0.207,0.914,0.348
12.336,-0.207,0.918,0.354
12.345,-0.207,0.922,0.354
12.355,-0.207,0.928,0.359
12.365,-0.207,0.924,0.355
12.375,-0.211,0.920,0.352
12.385,-0.207,0.918,0.355
12.395,-0.207,0.914,0.352
12.405,-0.207,0.920,0.354
12.415,-0.201,0.914,0.357
12.425,-0.207,0.914,0.357
12.435,-0.207,0.916,0.355
12.445,-0.205,0.920,0.354
12.455,-0.209,0.916,0.354
12.465,-0.211,0.916,0.354
12.475,-0.211,0.914,0.354
12.485,-0.217,0.916,0.354
12.494,-0.213,0.914,0.357
12.504,-0.211,0.916,0.357
12.514,-0.209,0.916,0.359
12.524,-0.211,0.918,0.357
12.534,-0.207,0.916,0.355
12.544,-0.209,0.918,0.357
12.554,-0.207,0.918,0.357
12.564,-0.211,0.914,0.352
12.574,-0.209,0.910,0.352
12.584,-0.211,0.912,0.352
12.594,-0.213,0.924,0.357
12.604,-0.209,0.916,0.355
12.614,-0.211,0.916,0.355
12.624,-0.211,0.916,0.354
12.634,-0.203,0.914,0.354
12.644,-0.201,0.926,0.359
12.653,-0.207,0.932,0.359
12.663,-0.209,0.918,0.350
12.673,-0.213,0.908,0.346
12.683,-0.213,0.910,0.350
12.693,-0.213,0.916,0.352
12.703,-0.213,0.918,0.357
12.713,-0.209,0.920,0.357
12.723,-0.215,0.920,0.355
12.733,-0.221,0.914,0.355
12.743,-0.219,0.912,0.354
12.753,-0.217,0.914,0.352
12.763,-0.213,0.916,0.354
12.773,-0.213,0.914,0.352
12.783,-0.211,0.910,0.350
12.793,-0.211,0.916,0.350
12.802,-0.207,0.914,0.354
12.812,-0.211,0.914,0.350
12.822,-0.207,0.916,0.354
12.832,-0.211,0.920,0.354
12.842,-0.215,0.922,0.357
12.852,-0.213,0.924,0.355
12.862,-0.211,0.922,0.354
12.872,-0.213,0.922,0.352
12.882,-0.213,0.914,0.355
12.892,-0.215,0.914,0.354
12.902,-0.215,0.928,0.357
12.912,-0.211,0.918,0.355
12.922,-0.213,0.910,0.350
12.932,-0.213,0.912,0.352
12.942,-0.213,0.914,0.352
12.952,-0.213,0.916,0.355
12.961,-0.211,0.918,0.359
12.971,-0.207,0.920,0.357
12.981,-0.209,0.918,0.357
12.991,-0.209,0.916,0.357
13.001,-0.207,0.912,0.354
13.011,-0.205,0.914,0.355
13.021,-0.209,0.914,0.355
13.031,-0.209,0.914,0.355
13.041,-0.207,0.912,0.354
13.051,-0.211,0.914,0.355
13.061,-0.207,0.918,0.361
13.071,-0.209,0.918,0.359
13.081,-0.211,0.918,0.352
13.091,-0.207,0.918,0.355
13.101,-0.207,0.918,0.354
13.110,-0.205,0.916,0.352
13.120,-0.211,0.914,0.350
13.130,-0.211,0.912,0.352
13.140,-0.207,0.918,0.354
13.150,-0.213,0.920,0.352
13.160,-0.213,0.922,0.354
13.170,-0.215,0.926,0.355
13.180,-0.213,0.928,0.355
13.190,-0.211,0.922,0.354
13.200,-0.209,0.918,0.350
13.210,-0.213,0.918,0.354
13.220,-0.209,0.916,0.355
13.230,-0.207,0.916,0.352
13.240,-0.209,0.912,0.355
13.250,-0.205,0.916,0.355
13.259,-0.205,0.918,0.357
13.269,-0.209,0.914,0.352
13.279,-0.211,0.914,0.355
13.289,-0.209,0.910,0.355
13.299,-0.209,0.916,0.357
13.309,-0.211,0.916,0.359
13.319,-0.211,0.918,0.355
13.329,-0.213,0.918,0.357
13.339,-0.213,0.914,0.355
13.349,-0.215,0.912,0.354
13.359,-0.213,0.910,0.355
13.369,-0.215,0.912,0.350
13.379,-0.213,0.916,0.352
13.389,-0.215,0.918,0.354
13.399,-0.213,0.920,0.357
13.409,-0.211,0.916,0.359
13.418,-0.209,0.918,0.354
13.428,-0.211,0.916,0.355
13.438,-0.211,0.930,0.357
13.448,-0.213,0.918,0.355
13.458,-0.211,0.914,0.354
13.468,-0.209,0.914,0.359
13.478,-0.203,0.908,0.352
13.488,-0.205,0.922,0.359
13.498,-0.209,0.924,0.363
13.508,-0.211,0.914,0.355
13.518,-0.215,0.904,0.350
13.528,-0.219,0.908,0.348
13.538,-0.217,0.914,0.355
13.548,-0.217,0.924,0.361
13.558,-0.211,0.924,0.359
13.567,-0.215,0.922,0.357
13.577,-0.219,0.920,0.355
13.587,-0.219,0.914,0.354
13.597,-0.221,0.910,0.352
13.607,-0.223,0.910,0.352
13.617,-0.219,0.910,0.352
13.627,-0.219,0.916,0.352
13.637,-0.219,0.918,0.354
13.647,-0.219,0.914,0.355
13.657,-0.215,0.918,0.357
13.667,-0.213,0.920,0.357
13.677,-0.213,0.922,0.352
13.687,-0.215,0.922,0.354
13.697,-0.213,0.920,0.352
13.707,-0.215,0.920,0.355
13.717,-0.217,0.918,0.348
13.726,-0.219,0.908,0.350
13.736,-0.217,0.914,0.355
13.746,-0.219,0.932,0.361
13.756,-0.223,0.920,0.361
13.766,-0.221,0.908,0.355
13.776,-0.217,0.912,0.352
13.786,-0.219,0.916,0.355
13.796,-0.213,0.918,0.354
13.806,-0.213,0.920,0.359
13.816,-0.213,0.916,0.355
13.826,-0.207,0.912,0.357
13.836,-0.209,0.914,0.357
13.846,-0.213,0.912,0.355
13.856,-0.215,0.912,0.355
13.866,-0.213,0.912,0.355
13.875,-0.211,0.908,0.357
13.885,-0.213,0.908,0.355
13.895,-0.211,0.910,0.354
13.905,-0.209,0.914,0.359
13.915,-0.211,0.916,0.355
13.925,-0.211,0.916,0.357
13.935,-0.211,0.922,0.357
13.945,-0.213,0.920,0.357
13.955,-0.213,0.918,0.352
13.965,-0.217,0.920,0.354
13.975,-0.215,0.912,0.352
13.985,-0.219,0.912,0.352
13.995,-0.219,0.914,0.355
14.005,-0.221,0.918,0.355
14.015,-0.221,0.922,0.357
14.024,-0.217,0.918,0.357
14.034,-0.211,0.916,0.357
14.044,-0.213,0.916,0.361
14.054,-0.217,0.910,0.359
14.064,-0.215,0.910,0.361
14.074,-0.217,0.912,0.355
14.084,-0.217,0.914,0.363
14.094,-0.217,0.916,0.359
14.104,-0.211,0.922,0.363
14.114,-0.209,0.920,0.363
14.124,-0.211,0.910,0.357
14.134,-0.211,0.910,0.359
14.144,-0.213,0.914,0.359
14.154,-0.215,0.914,0.357
14.164,-0.215,0.910,0.355
14.174,-0.213,0.908,0.354
14.183,-0.217,0.916,0.355
14.193,-0.217,0.916,0.357
14.203,-0.215,0.912,0.357
14.213,-0.221,0.916,0.355
14.223,-0.223,0.910,0.355
14.233,-0.227,0.912,0.354
14.243,-0.225,0.908,0.354
14.253,-0.221,0.910,0.348
14.263,-0.221,0.918,0.354
14.273,-0.217,0.906,0.346
14.283,-0.215,0.898,0.344
14.293,-0.215,0.908,0.350
14.303,-0.213,0.916,0.350
14.313,-0.213,0.922,0.348
14.323,-0.215,0.934,0.350
14.332,-0.221,0.932,0.346
14.342,-0.219,0.920,0.340
14.352,-0.219,0.920,0.342
14.362,-0.217,0.926,0.346
14.372,-0.217,0.926,0.348
14.382,-0.211,0.926,0.348
14.392,-0.213,0.920,0.350
14.402,-0.213,0.914,0.342
14.412,-0.215,0.918,0.340
14.422,-0.213,0.914,0.336
14.432,-0.213,0.918,0.342
14.442,-0.217,0.914,0.340
14.452,-0.217,0.908,0.338
14.462,-0.215,0.918,0.342
14.472,-0.217,0.920,0.344
14.482,-0.221,0.924,0.348
14.491,-0.219,0.920,0.344
14.501,-0.217,0.924,0.346
14.511,-0.219,0.926,0.348
14.521,-0.223,0.930,0.346
14.531,-0.219,0.926,0.346
14.541,-0.223,0.920,0.338
14.551,-0.221,0.904,0.340
14.561,-0.217,0.916,0.342
14.571,-0.219,0.922,0.348
14.581,-0.217,0.918,0.340
14.591,-0.217,0.916,0.340
14.601,-0.215,0.918,0.346
14.611,-0.215,0.920,0.346
14.621,-0.215,0.920,0.342
14.631,-0.217,0.924,0.346
14.640,-0.215,0.918,0.350
14.650,-0.213,0.912,0.352
14.660,-0.207,0.914,0.348
14.670,-0.211,0.914,0.348
14.680,-0.209,0.916,0.350
14.690,-0.207,0.916,0.352
14.700,-0.207,0.918,0.348
14.710,-0.207,0.920,0.352
14.720,-0.207,0.924,0.354
14.730,-0.209,0.916,0.348
14.740,-0.207,0.914,0.348
14.750,-0.211,0.916,0.344
14.760,-0.213,0.924,0.350
14.770,-0.215,0.922,0.350
14.780,-0.215,0.920,0.346
14.789,-0.215,0.916,0.350
14.799,-0.219,0.920,0.352
14.809,-0.213,0.918,0.352
14.819,-0.211,0.918,0.352
14.829,-0.211,0.920,0.350
14.839,-0.213,0.916,0.348
14.849,-0.215,0.914,0.346
14.859,-0.215,0.920,0.348
14.869,-0.211,0.922,0.352
14.879,-0.213,0.926,0.350
14.889,-0.209,0.928,0.354
14.899,-0.211,0.920,0.352
14.909,-0.219,0.920,0.348
14.919,-0.219,0.918,0.348
14.929,-0.213,0.916,0.348
14.939,-0.213,0.918,0.348
14.948,-0.213,0.916,0.352
14.958,-0.205,0.910,0.350
14.968,-0.209,0.912,0.354
14.978,-0.203,0.922,0.357
14.988,-0.195,0.908,0.350
14.998,-0.201,0.902,0.350
15.008,-0.207,0.912,0.352
15.018,-0.209,0.912,0.357
15.028,-0.215,0.926,0.354
15.038,-0.221,0.934,0.355
15.048,-0.229,0.926,0.350
15.058,-0.232,0.914,0.346
15.068,-0.232,0.910,0.342
15.078,-0.236,0.916,0.344
15.088,-0.232,0.922,0.346
15.097,-0.232,0.918,0.348
15.107,-0.232,0.916,0.346
15.117,-0.230,0.914,0.344
15.127,-0.227,0.910,0.342
15.137,-0.227,0.912,0.344
15.147,-0.227,0.910,0.342
15.157,-0.219,0.916,0.342
15.167,-0.217,0.916,0.342
15.177,-0.211,0.916,0.346
15.187,-0.209,0.920,0.344
15.197,-0.209,0.920,0.342
15.207,-0.209,0.922,0.346
15.217,-0.213,0.924,0.346
15.227,-0.209,0.928,0.346
15.237,-0.213,0.926,0.348
15.247,-0.211,0.924,0.342
15.256,-0.213,0.914,0.344
15.266,-0.211,0.910,0.346
15.276,-0.213,0.928,0.350
15.286,-0.215,0.920,0.348
15.296,-0.219,0.914,0.346
15.306,-0.221,0.914,0.340
15.316,-0.221,0.912,0.342
15.326,-0.219,0.916,0.342
15.336,-0.215,0.918,0.346
15.346,-0.219,0.924,0.354
15.356,-0.219,0.920,0.348
15.366,-0.223,0.920,0.344
15.376,-0.219,0.918,0.348
15.386,-0.221,0.918,0.346
15.396,-0.225,0.918,0.346
15.405,-0.225,0.922,0.344
15.415,-0.219,0.912,0.346
15.425,-0.219,0.910,0.344
15.435,-0.219,0.914,0.346
15.445,-0.215,0.920,0.346
15.455,-0.215,0.920,0.346
15.465,-0.217,0.922,0.344
15.475,-0.213,0.922,0.346
15.485,-0.215,0.914,0.346
15.495,-0.213,0.916,0.338
15.505,-0.215,0.918,0.344
15.515,-0.211,0.926,0.344
15.525,-0.213,0.924,0.346
15.535,-0.211,0.922,0.338
15.545,-0.215,0.916,0.342
15.554,-0.223,0.916,0.342
15.564,-0.221,0.918,0.340
15.574,-0.227,0.920,0.346
15.584,-0.219,0.922,0.348
15.594,-0.223,0.924,0.346
15.604,-0.221,0.922,0.344
15.614,-0.217,0.920,0.346
15.624,-0.219,0.914,0.340
15.634,-0.217,0.926,0.334
15.644,-0.225,0.922,0.340
15.654,-0.215,0.900,0.338
15.664,-0.221,0.912,0.340
15.674,-0.215,0.916,0.346
15.684,-0.211,0.918,0.350
15.694,-0.213,0.934,0.352
15.704,-0.219,0.932,0.344
15.713,-0.217,0.918,0.344
15.723,-0.219,0.910,0.342
15.733,-0.219,0.914,0.346
15.743,-0.223,0.924,0.346
15.753,-0.225,0.920,0.346
15.763,-0.223,0.916,0.346
15.773,-0.225,0.912,0.344
15.783,-0.225,0.908,0.338
15.793,-0.223,0.910,0.338
15.803,-0.217,0.918,0.340
15.813,-0.221,0.922,0.344
15.823,-0.219,0.918,0.344
15.833,-0.219,0.918,0.338
15.843,-0.221,0.922,0.338
15.853,-0.223,0.918,0.340
15.862,-0.225,0.910,0.344
15.872,-0.225,0.916,0.342
15.882,-0.223,0.924,0.344
15.892,-0.223,0.928,0.344
15.902,-0.215,0.926,0.346
15.912,-0.221,0.922,0.342
15.922,-0.219,0.926,0.342
15.932,-0.213,0.916,0.342
15.942,-0.211,0.924,0.346
15.952,-0.213,0.928,0.350
15.962,-0.213,0.920,0.340
15.972,-0.213,0.908,0.336
15.982,-0.217,0.914,0.338
15.992,-0.213,0.928,0.344
16.002,-0.219,0.924,0.346
16.012,-0.221,0.920,0.344
16.021,-0.223,0.922,0.350
16.031,-0.217,0.924,0.350
16.041,-0.215,0.914,0.348
16.051,-0.217,0.914,0.344
16.061,-0.211,0.918,0.350
16.071,-0.213,0.916,0.344
16.081,-0.211,0.916,0.348
16.091,-0.213,0.918,0.348
16.101,-0.213,0.916,0.348
16.111,-0.215,0.914,0.344
16.121,-0.219,0.918,0.344
16.131,-0.219,0.920,0.344
16.141,-0.221,0.920,0.344
16.151,-0.219,0.922,0.348
16.161,-0.213,0.918,0.346
16.170,-0.209,0.918,0.342
16.180,-0.213,0.918,0.344
16.190,-0.211,0.916,0.344
16.200,-0.211,0.916,0.342
16.210,-0.215,0.918,0.344
16.220,-0.217,0.922,0.342
16.230,-0.223,0.922,0.344
16.240,-0.221,0.924,0.344
16.250,-0.217,0.920,0.344
16.260,-0.219,0.928,0.348
16.270,-0.219,0.918,0.342
16.280,-0.213,0.904,0.342
16.290,-0.211,0.912,0.346
16.300,-0.207,0.910,0.350
16.310,-0.209,0.922,0.354
16.319,-0.215,0.930,0.354
16.329,-0.219,0.926,0.350
16.339,-0.219,0.906,0.340
16.349,-0.225,0.904,0.336
16.359,-0.223,0.916,0.344
16.369,-0.221,0.920,0.348
16.379,-0.221,0.924,0.352
16.389,-0.221,0.926,0.350
16.399,-0.221,0.920,0.348
16.409,-0.219,0.914,0.342
16.419,-0.221,0.910,0.342
16.429,-0.223,0.914,0.340
16.439,-0.217,0.910,0.342
16.449,-0.219,0.918,0.338
16.459,-0.221,0.918,0.342
16.469,-0.223,0.918,0.342
16.478,-0.223,0.920,0.340
16.488,-0.221,0.920,0.346
16.498,-0.219,0.920,0.346
16.508,-0.221,0.920,0.342
16.518,-0.217,0.922,0.342
16.528,-0.213,0.924,0.344
16.538,-0.217,0.920,0.342
16.548,-0.223,0.916,0.340
16.558,-0.225,0.904,0.344
16.568,-0.225,0.916,0.346
16.578,-0.225,0.922,0.350
16.588,-0.215,0.912,0.346
16.598,-0.221,0.914,0.342
16.608,-0.219,0.918,0.346
16.618,-0.217,0.920,0.342
16.627,-0.217,0.920,0.338
16.637,-0.211,0.926,0.342
16.647,-0.213,0.924,0.338
16.657,-0.211,0.924,0.340
16.667,-0.207,0.928,0.338
16.677,-0.207,0.926,0.340
16.687,-0.209,0.924,0.334
16.697,-0.209,0.926,0.336
16.707,-0.205,0.928,0.332
16.717,-0.211,0.922,0.326
16.727,-0.209,0.922,0.326
16.737,-0.209,0.924,0.328
16.747,-0.205,0.928,0.330
16.757,-0.211,0.930,0.330
16.767,-0.209,0.928,0.334
16.777,-0.213,0.928,0.330
16.786,-0.211,0.928,0.336
16.796,-0.211,0.926,0.332
16.806,-0.211,0.924,0.336
16.816,-0.209,0.924,0.334
16.826,-0.207,0.922,0.336
16.836,-0.209,0.922,0.332
16.846,-0.209,0.918,0.334
16.856,-0.209,0.918,0.332
16.866,-0.209,0.920,0.334
16.876,-0.211,0.920,0.334
16.886,-0.213,0.924,0.338
16.896,-0.213,0.924,0.340
16.906,-0.211,0.926,0.340
16.916,-0.209,0.922,0.336
16.926,-0.205,0.918,0.334
16.935,-0.205,0.916,0.334
16.945,-0.207,0.920,0.334
16.955,-0.203,0.924,0.336
16.965,-0.207,0.922,0.336
16.975,-0.209,0.922,0.336
16.985,-0.207,0.926,0.340
16.995,-0.203,0.924,0.338
17.005,-0.201,0.926,0.338
17.015,-0.203,0.922,0.340
17.025,-0.201,0.928,0.336
17.035,-0.199,0.928,0.336
17.045,-0.201,0.924,0.338
17.055,-0.199,0.924,0.332
17.065,-0.199,0.924,0.336
17.075,-0.201,0.922,0.338
17.084,-0.203,0.918,0.336
17.094,-0.201,0.924,0.338
17.104,-0.203,0.926,0.336
17.114,-0.201,0.928,0.340
17.124,-0.205,0.926,0.338
17.134,-0.207,0.922,0.338
17.144,-0.205,0.920,0.336
17.154,-0.205,0.926,0.338
17.164,-0.205,0.928,0.344
17.174,-0.205,0.922,0.336
17.184,-0.201,0.920,0.342
17.194,-0.201,0.920,0.340
17.204,-0.199,0.930,0.344
17.214,-0.201,0.936,0.346
17.224,-0.201,0.928,0.340
17.234,-0.205,0.912,0.338
17.243,-0.205,0.908,0.334
17.253,-0.205,0.914,0.340
17.263,-0.203,0.918,0.344
17.273,-0.201,0.920,0.348
17.283,-0.205,0.920,0.346
17.293,-0.209,0.916,0.348
17.303,-0.209,0.918,0.342
17.313,-0.209,0.920,0.342
17.323,-0.209,0.922,0.342
17.333,-0.207,0.922,0.340
17.343,-0.203,0.918,0.342
17.353,-0.203,0.920,0.346
17.363,-0.199,0.920,0.344
17.373,-0.209,0.922,0.342
17.383,-0.207,0.916,0.340
17.392,-0.207,0.912,0.340
17.402,-0.209,0.918,0.340
17.412,-0.209,0.922,0.340
17.422,-0.207,0.922,0.342
17.432,-0.207,0.926,0.346
17.442,-0.207,0.928,0.340
17.452,-0.209,0.932,0.338
17.462,-0.209,0.922,0.340
17.472,-0.203,0.926,0.336
17.482,-0.205,0.930,0.342
17.492,-0.205,0.928,0.338
17.502,-0.209,0.918,0.338
17.512,-0.213,0.916,0.334
17.522,-0.217,0.924,0.344
17.532,-0.215,0.924,0.344
17.542,-0.213,0.922,0.344
17.551,-0.209,0.924,0.346
17.561,-0.205,0.926,0.348
17.571,-0.207,0.924,0.350
17.581,-0.203,0.924,0.348
17.591,-0.197,0.922,0.344
17.601,-0.199,0.914,0.344
17.611,-0.199,0.912,0.344
17.621,-0.197,0.916,0.346
17.631,-0.201,0.914,0.344
17.641,-0.201,0.914,0.344
17.651,-0.197,0.914,0.344
17.661,-0.195,0.918,0.346
17.671,-0.199,0.918,0.342
17.681,-0.203,0.916,0.344
17.691,-0.203,0.918,0.346
17.700,-0.203,0.922,0.342
17.710,-0.205,0.924,0.346
17.720,-0.203,0.924,0.346
17.730,-0.201,0.926,0.344
17.740,-0.203,0.922,0.340
17.750,-0.203,0.920,0.340
17.760,-0.201,0.920,0.342
17.770,-0.195,0.922,0.338
17.780,-0.195,0.922,0.344
17.790,-0.191,0.926,0.346
17.800,-0.191,0.930,0.346
17.810,-0.193,0.928,0.346
17.820,-0.197,0.924,0.344
17.830,-0.195,0.922,0.342
17.840,-0.193,0.924,0.340
17.849,-0.191,0.922,0.340
17.859,-0.193,0.924,0.338
17.869,-0.193,0.924,0.340
17.879,-0.195,0.918,0.338
17.889,-0.193,0.920,0.338
17.899,-0.199,0.926,0.340
17.909,-0.197,0.922,0.340
17.919,-0.197,0.924,0.344
17.929,-0.201,0.928,0.346
17.939,-0.203,0.930,0.346
17.949,-0.199,0.920,0.344
17.959,-0.201,0.920,0.348
17.969,-0.205,0.924,0.348
17.979,-0.197,0.920,0.344
17.989,-0.201,0.924,0.344
17.999,-0.203,0.922,0.344
18.008,-0.201,0.922,0.344
18.018,-0.199,0.920,0.344
18.028,-0.195,0.914,0.342
18.038,-0.199,0.926,0.348
18.048,-0.195,0.934,0.350
18.058,-0.193,0.926,0.348
18.068,-0.197,0.920,0.348
18.078,-0.197,0.916,0.352
18.088,-0.195,0.918,0.348
18.098,-0.201,0.918,0.348
18.108,-0.205,0.918,0.348
18.118,-0.209,0.912,0.346
18.128,-0.207,0.914,0.344
18.138,-0.209,0.914,0.348
18.148,-0.211,0.916,0.348
18.157,-0.213,0.920,0.344
18.167,-0.215,0.918,0.346
18.177,-0.209,0.916,0.344
18.187,-0.205,0.920,0.346
18.197,-0.201,0.920,0.346
18.207,-0.203,0.918,0.344
18.217,-0.201,0.912,0.338
18.227,-0.207,0.912,0.338
18.237,-0.213,0.916,0.346
18.247,-0.211,0.926,0.352
18.257,-0.209,0.930,0.350
18.267,-0.209,0.930,0.352
18.277,-0.211,0.930,0.346
18.287,-0.209,0.918,0.342
18.297,-0.207,0.922,0.342
18.307,-0.209,0.928,0.344
18.316,-0.211,0.920,0.342
18.326,-0.213,0.914,0.340
18.336,-0.215,0.916,0.338
18.346,-0.215,0.924,0.344
18.356,-0.211,0.926,0.342
18.366,-0.207,0.928,0.350
18.376,-0.205,0.924,0.344
18.386,-0.203,0.922,0.342
18.396,-0.207,0.914,0.340
18.406,-0.211,0.920,0.342
18.416,-0.207,0.920,0.346
18.426,-0.207,0.922,0.344
18.436,-0.207,0.922,0.350
18.446,-0.205,0.920,0.344
18.456,-0.205,0.918,0.342
18.465,-0.203,0.916,0.346
18.475,-0.199,0.918,0.344
18.485,-0.203,0.918,0.342
18.495,-0.203,0.918,0.338
18.505,-0.205,0.922,0.342
18.515,-0.207,0.930,0.344
18.525,-0.205,0.930,0.344
18.535,-0.207,0.930,0.340
18.545,-0.209,0.928,0.348
18.555,-0.211,0.926,0.344
18.565,-0.207,0.922,0.342
18.575,-0.209,0.918,0.342
18.585,-0.207,0.918,0.348
18.595,-0.205,0.918,0.348
18.605,-0.205,0.922,0.346
18.615,-0.209,0.916,0.344
18.624,-0.207,0.918,0.344
18.634,-0.205,0.918,0.350
18.644,-0.205,0.916,0.346
18.654,-0.203,0.920,0.346
18.664,-0.199,0.916,0.348
18.674,-0.205,0.916,0.344
18.684,-0.205,0.916,0.350
18.694,-0.207,0.916,0.346
18.704,-0.207,0.916,0.352
18.714,-0.207,0.918,0.346
18.724,-0.211,0.916,0.348
18.734,-0.213,0.916,0.346
18.744,-0.211,0.918,0.342
18.754,-0.213,0.922,0.348
18.764,-0.207,0.924,0.348
18.773,-0.211,0.928,0.350
18.783,-0.207,0.930,0.346
18.793,-0.205,0.928,0.346
18.803,-0.201,0.926,0.344
18.813,-0.201,0.922,0.344
18.823,-0.205,0.914,0.342
18.833,-0.203,0.914,0.344
18.843,-0.205,0.924,0.346
18.853,-0.207,0.914,0.346
18.863,-0.205,0.918,0.348
18.873,-0.205,0.918,0.352
18.883,-0.201,0.916,0.346
18.893,-0.197,0.928,0.354
18.903,-0.201,0.932,0.352
18.913,-0.201,0.920,0.348
18.922,-0.207,0.918,0.344
18.932,-0.205,0.916,0.346
18.942,-0.203,0.916,0.344
18.952,-0.203,0.920,0.346
18.962,-0.207,0.926,0.346
18.972,-0.211,0.928,0.348
18.982,-0.211,0.924,0.350
18.992,-0.217,0.922,0.340
19.002,-0.219,0.918,0.344
19.012,-0.213,0.918,0.340
19.022,-0.213,0.918,0.340
19.032,-0.211,0.912,0.342
19.042,-0.205,0.912,0.344
19.052,-0.205,0.912,0.342
19.062,-0.207,0.922,0.342
19.072,-0.213,0.924,0.344
19.081,-0.213,0.926,0.342
19.091,-0.209,0.926,0.348
19.101,-0.207,0.928,0.350
19.111,-0.211,0.930,0.348
19.121,-0.213,0.926,0.344
19.131,-0.205,0.914,0.342
19.141,-0.205,0.918,0.344
19.151,-0.205,0.924,0.350
19.161,-0.203,0.920,0.348
19.171,-0.205,0.920,0.346
19.181,-0.209,0.916,0.346
19.191,-0.209,0.920,0.346
19.201,-0.211,0.924,0.346
19.211,-0.203,0.928,0.352
19.221,-0.213,0.930,0.352
19.230,-0.209,0.920,0.352
19.240,-0.207,0.914,0.352
19.250,-0.209,0.914,0.354
19.260,-0.209,0.916,0.350
19.270,-0.205,0.912,0.352
19.280,-0.209,0.914,0.350
19.290,-0.205,0.916,0.350
19.300,-0.209,0.922,0.352
19.310,-0.211,0.916,0.350
19.320,-0.207,0.914,0.346
19.330,-0.209,0.916,0.348
19.340,-0.209,0.920,0.352
19.350,-0.207,0.922,0.354
19.360,-0.207,0.918,0.346
19.370,-0.207,0.922,0.346
19.380,-0.211,0.920,0.348
19.389,-0.207,0.922,0.348
19.399,-0.207,0.920,0.346
19.409,-0.215,0.924,0.350
19.419,-0.213,0.924,0.348
19.429,-0.213,0.920,0.350
19.439,-0.213,0.922,0.348
19.449,-0.213,0.918,0.352
19.459,-0.211,0.916,0.348
19.469,-0.213,0.920,0.350
19.479,-0.211,0.918,0.348
19.489,-0.209,0.920,0.350
19.499,-0.207,0.922,0.352
19.509,-0.209,0.918,0.354
19.519,-0.207,0.916,0.354
19.529,-0.215,0.916,0.350
19.538,-0.217,0.918,0.348
19.548,-0.215,0.924,0.350
19.558,-0.215,0.922,0.354
19.568,-0.215,0.918,0.350
19.578,-0.211,0.920,0.350
19.588,-0.209,0.920,0.352
19.598,-0.207,0.920,0.348
19.608,-0.211,0.920,0.344
19.618,-0.215,0.918,0.342
19.628,-0.217,0.920,0.342
19.638,-0.215,0.914,0.342
19.648,-0.217,0.920,0.346
19.658,-0.215,0.926,0.348
19.668,-0.213,0.920,0.350
19.678,-0.213,0.922,0.350
19.687,-0.213,0.918,0.346
19.697,-0.207,0.914,0.348
19.707,-0.205,0.922,0.348
19.717,-0.205,0.924,0.354
19.727,-0.211,0.914,0.348
19.737,-0.211,0.916,0.344
19.747,-0.209,0.914,0.348
19.757,-0.215,0.916,0.344
19.767,-0.213,0.924,0.350
19.777,-0.211,0.922,0.352
19.787,-0.211,0.922,0.354
19.797,-0.211,0.918,0.348
19.807,-0.207,0.916,0.350
19.817,-0.209,0.912,0.342
19.827,-0.215,0.916,0.344
19.837,-0.215,0.914,0.348
19.846,-0.217,0.920,0.344
19.856,-0.217,0.920,0.348
19.866,-0.211,0.920,0.348
19.876,-0.209,0.924,0.352
19.886,-0.207,0.924,0.354
19.896,-0.207,0.922,0.348
19.906,-0.207,0.922,0.348
19.916,-0.207,0.918,0.348
19.926,-0.209,0.918,0.350
19.936,-0.205,0.914,0.350
19.946,-0.205,0.916,0.352
19.956,-0.203,0.930,0.357
19.966,-0.205,0.928,0.357
19.976,-0.201,0.914,0.348
19.986,-0.205,0.918,0.346
19.995,-0.203,0.914,0.348
20.005,-0.205,0.918,0.344
20.015,-0.203,0.918,0.346
20.025,-0.205,0.924,0.348
20.035,-0.203,0.924,0.348
20.045,-0.203,0.922,0.348
20.055,-0.201,0.928,0.350
20.065,-0.201,0.924,0.354
20.075,-0.197,0.922,0.346
20.085,-0.201,0.914,0.352
20.095,-0.197,0.916,0.344
20.105,-0.197,0.922,0.346
20.115,-0.197,0.920,0.346
20.125,-0.199,0.920,0.350
20.135,-0.197,0.918,0.348
20.145,-0.197,0.916,0.350
20.154,-0.197,0.912,0.348
20.164,-0.199,0.916,0.346
20.174,-0.201,0.912,0.344
20.184,-0.201,0.914,0.344
20.194,-0.205,0.924,0.346
20.204,-0.205,0.930,0.344
20.214,-0.207,0.934,0.346
20.224,-0.205,0.934,0.346
20.234,-0.211,0.928,0.342
20.244,-0.211,0.924,0.338
20.254,-0.209,0.918,0.346
20.264,-0.203,0.922,0.348
20.274,-0.203,0.918,0.348
20.284,-0.203,0.920,0.348
20.294,-0.201,0.918,0.350
20.303,-0.195,0.914,0.342
20.313,-0.195,0.916,0.344
20.323,-0.199,0.916,0.348
20.333,-0.201,0.920,0.348
20.343,-0.203,0.916,0.350
20.353,-0.209,0.920,0.348
20.363,-0.209,0.920,0.348
20.373,-0.209,0.924,0.350
20.383,-0.209,0.918,0.346
20.393,-0.211,0.914,0.348
20.403,-0.205,0.922,0.350
20.413,-0.209,0.922,0.346
20.423,-0.211,0.914,0.344
20.433,-0.209,0.920,0.348
20.443,-0.209,0.914,0.350
20.452,-0.209,0.912,0.346
20.462,-0.211,0.926,0.350
20.472,-0.207,0.930,0.352
20.482,-0.211,0.920,0.344
20.492,-0.213,0.910,0.338
20.502,-0.211,0.916,0.344
20.512,-0.209,0.922,0.350
20.522,-0.207,0.926,0.350
20.532,-0.211,0.926,0.352
20.542,-0.211,0.928,0.350
20.552,-0.213,0.918,0.348
20.562,-0.215,0.912,0.346
20.572,-0.223,0.916,0.344
20.582,-0.221,0.918,0.340
20.592,-0.219,0.918,0.344
20.602,-0.217,0.920,0.342
20.611,-0.217,0.922,0.342
20.621,-0.213,0.922,0.344
20.631,-0.215,0.922,0.346
20.641,-0.221,0.920,0.342
20.651,-0.221,0.918,0.346
20.661,-0.219,0.928,0.348
20.671,-0.221,0.922,0.344
20.681,-0.223,0.910,0.344
20.691,-0.215,0.906,0.348
20.701,-0.217,0.926,0.354
20.711,-0.221,0.920,0.352
20.721,-0.221,0.912,0.348
20.731,-0.221,0.908,0.346
20.741,-0.223,0.908,0.340
20.751,-0.221,0.912,0.342
20.760,-0.219,0.918,0.342
20.770,-0.219,0.922,0.346
20.780,-0.217,0.924,0.346
20.790,-0.213,0.924,0.348
20.800,-0.215,0.924,0.348
20.810,-0.219,0.914,0.344
20.820,-0.219,0.912,0.340
20.830,-0.217,0.916,0.344
20.840,-0.217,0.912,0.340
20.850,-0.213,0.914,0.340
20.860,-0.217,0.922,0.342
20.870,-0.215,0.922,0.344
20.880,-0.221,0.924,0.344
20.890,-0.217,0.922,0.346
20.900,-0.219,0.922,0.344
20.910,-0.221,0.920,0.344
20.919,-0.221,0.922,0.340
20.929,-0.223,0.918,0.336
20.939,-0.215,0.922,0.344
20.949,-0.217,0.924,0.342
20.959,-0.225,0.922,0.342
20.969,-0.225,0.914,0.336
20.979,-0.223,0.912,0.336
20.989,-0.223,0.910,0.344
20.999,-0.225,0.914,0.342
21.009,-0.221,0.922,0.348
21.019,-0.219,0.920,0.346
21.029,-0.219,0.924,0.352
21.039,-0.227,0.924,0.348
21.049,-0.230,0.924,0.348
21.059,-0.229,0.920,0.342
21.068,-0.229,0.912,0.342
21.078,-0.227,0.916,0.342
21.088,-0.229,0.920,0.344
21.098,-0.229,0.910,0.340
21.108,-0.225,0.908,0.346
21.118,-0.225,0.912,0.348
21.128,-0.225,0.910,0.350
21.138,-0.225,0.916,0.350
21.148,-0.232,0.930,0.350
21.158,-0.232,0.930,0.350
21.168,-0.232,0.916,0.346
21.178,-0.238,0.908,0.342
21.188,-0.236,0.916,0.344
21.198,-0.232,0.922,0.348
21.208,-0.236,0.922,0.352
21.217,-0.232,0.918,0.348
21.227,-0.230,0.916,0.344
21.237,-0.225,0.918,0.348
21.247,-0.221,0.914,0.342
21.257,-0.223,0.908,0.340
21.267,-0.227,0.906,0.342
21.277,-0.227,0.912,0.344
21.287,-0.230,0.918,0.352
21.297,-0.236,0.920,0.350
21.307,-0.236,0.922,0.348
21.317,-0.238,0.918,0.346
21.327,-0.246,0.908,0.334
21.337,-0.244,0.914,0.340
21.347,-0.244,0.920,0.340
21.357,-0.244,0.922,0.342
21.367,-0.242,0.906,0.338
21.376,-0.242,0.914,0.344
21.386,-0.236,0.928,0.352
21.396,-0.238,0.920,0.346
21.406,-0.240,0.914,0.340
21.416,-0.238,0.910,0.346
21.426,-0.234,0.912,0.342
21.436,-0.232,0.912,0.348
21.446,-0.230,0.916,0.350
21.456,-0.229,0.918,0.348
21.466,-0.230,0.916,0.346
21.476,-0.230,0.910,0.342
21.486,-0.234,0.916,0.350
21.496,-0.238,0.914,0.346
21.506,-0.238,0.912,0.344
21.516,-0.232,0.912,0.352
21.525,-0.240,0.908,0.348
21.535,-0.238,0.908,0.346
21.545,-0.236,0.900,0.340
21.555,-0.234,0.904,0.344
21.565,-0.240,0.910,0.344
21.575,-0.244,0.914,0.340
21.585,-0.242,0.918,0.342
21.595,-0.240,0.920,0.342
21.605,-0.244,0.920,0.344
21.615,-0.250,0.920,0.344
21.625,-0.248,0.920,0.340
21.635,-0.250,0.916,0.342
21.645,-0.250,0.914,0.334
21.655,-0.246,0.912,0.336
21.665,-0.250,0.926,0.338
21.675,-0.248,0.916,0.336
21.684,-0.240,0.910,0.340
21.694,-0.238,0.912,0.342
21.704,-0.238,0.912,0.346
21.714,-0.230,0.918,0.348
21.724,-0.236,0.926,0.346
21.734,-0.234,0.924,0.342
21.744,-0.240,0.914,0.338
21.754,-0.246,0.912,0.340
21.764,-0.248,0.914,0.344
21.774,-0.250,0.914,0.346
21.784,-0.244,0.912,0.346
21.794,-0.250,0.912,0.344
21.804,-0.244,0.908,0.344
21.814,-0.246,0.908,0.338
21.824,-0.244,0.910,0.338
21.833,-0.242,0.910,0.336
21.843,-0.240,0.910,0.336
21.853,-0.240,0.910,0.336
21.863,-0.242,0.908,0.336
21.873,-0.242,0.906,0.338
21.883,-0.240,0.912,0.340
21.893,-0.242,0.920,0.342
21.903,-0.242,0.926,0.342
21.913,-0.242,0.930,0.344
21.923,-0.238,0.928,0.340
21.933,-0.238,0.916,0.334
21.943,-0.236,0.918,0.334
21.953,-0.232,0.930,0.344
21.963,-0.236,0.924,0.344
21.973,-0.240,0.912,0.332
21.982,-0.236,0.910,0.334
21.992,-0.236,0.914,0.336
22.002,-0.236,0.928,0.344
22.012,-0.232,0.930,0.346
22.022,-0.229,0.928,0.344
22.032,-0.229,0.920,0.342
22.042,-0.229,0.914,0.340
22.052,-0.227,0.908,0.340
22.062,-0.229,0.906,0.340
22.072,-0.232,0.910,0.334
22.082,-0.230,0.908,0.340
22.092,-0.230,0.912,0.338
22.102,-0.234,0.918,0.342
22.112,-0.238,0.914,0.344
22.122,-0.240,0.914,0.342
22.132,-0.240,0.916,0.342
22.141,-0.242,0.916,0.340
22.151,-0.240,0.916,0.342
22.161,-0.238,0.916,0.342
22.171,-0.238,0.918,0.340
22.181,-0.234,0.920,0.338
22.191,-0.232,0.922,0.340
22.201,-0.229,0.920,0.340
22.211,-0.232,0.916,0.338
22.221,-0.229,0.926,0.340
22.231,-0.227,0.926,0.336
22.241,-0.229,0.912,0.336
22.251,-0.225,0.918,0.338
22.261,-0.221,0.916,0.344
22.271,-0.219,0.922,0.344
22.281,-0.223,0.936,0.348
22.290,-0.223,0.932,0.340
22.300,-0.227,0.914,0.334
22.310,-0.230,0.902,0.332
22.320,-0.230,0.912,0.340
22.330,-0.238,0.922,0.340
22.340,-0.240,0.920,0.346
22.350,-0.240,0.916,0.340
22.360,-0.242,0.920,0.342
22.370,-0.240,0.916,0.340
22.380,-0.242,0.916,0.340
22.390,-0.238,0.908,0.338
22.400,-0.234,0.904,0.336
22.410,-0.232,0.912,0.336
22.420,-0.234,0.918,0.342
22.430,-0.234,0.920,0.342
22.440,-0.236,0.922,0.340
22.449,-0.238,0.922,0.338
22.459,-0.240,0.928,0.340
22.469,-0.240,0.924,0.332
22.479,-0.242,0.926,0.334
22.489,-0.240,0.920,0.334
22.499,-0.240,0.914,0.330
22.509,-0.236,0.910,0.332
22.519,-0.238,0.922,0.342
22.529,-0.242,0.930,0.346
22.539,-0.240,0.920,0.340
22.549,-0.242,0.904,0.336
22.559,-0.246,0.906,0.334
22.569,-0.244,0.918,0.334
22.579,-0.246,0.922,0.338
22.589,-0.246,0.920,0.342
22.598,-0.246,0.914,0.342
22.608,-0.248,0.910,0.340
22.618,-0.248,0.908,0.336
22.628,-0.248,0.914,0.340
22.638,-0.250,0.922,0.342
22.648,-0.252,0.918,0.336
22.658,-0.252,0.920,0.338
22.668,-0.252,0.912,0.342
22.678,-0.252,0.914,0.340
22.688,-0.254,0.906,0.334
22.698,-0.258,0.902,0.338
22.708,-0.256,0.908,0.336
22.718,-0.258,0.908,0.334
22.728,-0.260,0.910,0.334
22.738,-0.260,0.912,0.340
22.748,-0.262,0.914,0.336
22.757,-0.260,0.918,0.342
22.767,-0.264,0.916,0.336
22.777,-0.258,0.914,0.340
22.787,-0.256,0.910,0.336
22.797,-0.260,0.910,0.338
22.807,-0.264,0.916,0.336
22.817,-0.271,0.916,0.344
22.827,-0.277,0.916,0.340
22.837,-0.283,0.918,0.340
22.847,-0.281,0.912,0.340
22.857,-0.283,0.920,0.344
22.867,-0.281,0.920,0.340
22.877,-0.277,0.895,0.336
22.887,-0.277,0.895,0.342
22.897,-0.271,0.893,0.342
22.906,-0.270,0.904,0.350
22.916,-0.275,0.916,0.354
22.926,-0.279,0.910,0.346
22.936,-0.275,0.900,0.342
22.946,-0.273,0.896,0.344
22.956,-0.279,0.898,0.346
22.966,-0.287,0.895,0.348
22.976,-0.291,0.895,0.348
22.986,-0.295,0.891,0.348
22.996,-0.297,0.896,0.350
23.006,-0.297,0.900,0.350
23.016,-0.305,0.900,0.350
23.026,-0.305,0.898,0.344
23.036,-0.305,0.895,0.344
23.046,-0.307,0.896,0.336
23.055,-0.314,0.898,0.336
23.065,-0.316,0.900,0.338
23.075,-0.314,0.906,0.338
23.085,-0.316,0.906,0.344
23.095,-0.316,0.908,0.342
23.105,-0.314,0.908,0.344
23.115,-0.312,0.908,0.346
23.125,-0.314,0.904,0.342
23.135,-0.316,0.900,0.340
23.145,-0.318,0.889,0.336
23.155,-0.316,0.879,0.338
23.165,-0.320,0.896,0.346
23.175,-0.316,0.891,0.348
23.185,-0.318,0.885,0.340
23.195,-0.324,0.896,0.344
23.205,-0.320,0.904,0.348
23.214,-0.324,0.898,0.344
23.224,-0.328,0.893,0.346
23.234,-0.332,0.889,0.344
23.244,-0.336,0.885,0.342
23.254,-0.344,0.885,0.342
23.264,-0.344,0.896,0.348
23.274,-0.344,0.896,0.348
23.284,-0.344,0.896,0.346
23.294,-0.348,0.896,0.348
23.304,-0.342,0.896,0.344
23.314,-0.344,0.885,0.342
23.324,-0.346,0.875,0.340
23.334,-0.352,0.879,0.340
23.344,-0.355,0.879,0.346
23.354,-0.359,0.873,0.344
23.363,-0.361,0.881,0.344
23.373,-0.365,0.879,0.342
23.383,-0.375,0.877,0.338
23.393,-0.381,0.873,0.338
23.403,-0.389,0.875,0.340
23.413,-0.391,0.871,0.340
23.423,-0.396,0.877,0.346
23.433,-0.391,0.879,0.348
23.443,-0.391,0.877,0.348
23.453,-0.396,0.873,0.352
23.463,-0.404,0.875,0.348
23.473,-0.408,0.869,0.348
23.483,-0.410,0.861,0.342
23.493,-0.416,0.857,0.340
23.503,-0.418,0.859,0.344
23.513,-0.416,0.857,0.350
23.522,-0.420,0.857,0.348
23.532,-0.426,0.852,0.352
23.542,-0.426,0.850,0.350
23.552,-0.428,0.857,0.357
23.562,-0.430,0.857,0.359
23.572,-0.428,0.854,0.354
23.582,-0.428,0.852,0.355
23.592,-0.430,0.844,0.355
23.602,-0.434,0.838,0.350
23.612,-0.438,0.846,0.354
23.622,-0.439,0.852,0.355
23.632,-0.439,0.852,0.354
23.642,-0.439,0.848,0.355
23.652,-0.439,0.850,0.352
23.662,-0.447,0.844,0.355
23.671,-0.451,0.840,0.350
23.681,-0.451,0.844,0.354
23.691,-0.451,0.842,0.355
23.701,-0.455,0.846,0.352
23.711,-0.453,0.846,0.354
23.721,-0.457,0.842,0.357
23.731,-0.461,0.848,0.355
23.741,-0.465,0.848,0.355
23.751,-0.461,0.850,0.355
23.761,-0.459,0.850,0.354
23.771,-0.457,0.836,0.352
23.781,-0.455,0.834,0.350
23.791,-0.449,0.848,0.355
23.801,-0.443,0.852,0.361
23.811,-0.447,0.854,0.359
23.820,-0.447,0.846,0.354
23.830,-0.443,0.836,0.352
23.840,-0.445,0.834,0.354
23.850,-0.445,0.840,0.357
23.860,-0.443,0.846,0.354
23.870,-0.447,0.842,0.354
23.880,-0.459,0.840,0.354
23.890,-0.461,0.846,0.350
23.900,-0.461,0.846,0.352
23.910,-0.459,0.842,0.354
23.920,-0.461,0.844,0.348
23.930,-0.459,0.846,0.350
23.940,-0.451,0.846,0.346
23.950,-0.447,0.846,0.352
23.960,-0.449,0.846,0.348
23.970,-0.447,0.846,0.352
23.979,-0.451,0.848,0.352
23.989,-0.451,0.846,0.350
23.999,-0.453,0.850,0.352
24.009,-0.455,0.850,0.354
24.019,-0.457,0.848,0.352
24.029,-0.457,0.844,0.355
24.039,-0.453,0.846,0.354
24.049,-0.459,0.838,0.355
24.059,-0.451,0.834,0.350
24.069,-0.447,0.846,0.355
24.079,-0.449,0.842,0.357
24.089,-0.453,0.834,0.352
24.099,-0.465,0.836,0.350
24.109,-0.473,0.836,0.355
24.119,-0.473,0.844,0.357
24.128,-0.469,0.842,0.355
24.138,-0.469,0.838,0.357
24.148,-0.469,0.838,0.355
24.158,-0.467,0.834,0.359
24.168,-0.473,0.830,0.359
24.178,-0.475,0.828,0.355
24.188,-0.477,0.830,0.357
24.198,-0.471,0.828,0.357
24.208,-0.469,0.834,0.361
24.218,-0.469,0.834,0.361
24.228,-0.469,0.832,0.361
24.238,-0.463,0.830,0.357
24.248,-0.467,0.830,0.357
24.258,-0.471,0.830,0.357
24.268,-0.469,0.832,0.355
24.278,-0.469,0.832,0.352
24.287,-0.475,0.838,0.355
24.297,-0.471,0.836,0.350
24.307,-0.471,0.838,0.352
24.317,-0.469,0.844,0.355
24.327,-0.467,0.840,0.354
24.337,-0.467,0.840,0.354
24.347,-0.467,0.844,0.355
24.357,-0.467,0.844,0.355
24.367,-0.463,0.838,0.355
24.377,-0.465,0.834,0.354
24.387,-0.465,0.832,0.352
24.397,-0.463,0.832,0.355
24.407,-0.467,0.830,0.357
24.417,-0.467,0.838,0.359
24.427,-0.467,0.842,0.361
24.436,-0.465,0.846,0.359
24.446,-0.469,0.842,0.365
24.456,-0.469,0.846,0.361
24.466,-0.467,0.838,0.361
24.476,-0.463,0.836,0.361
24.486,-0.461,0.838,0.355
24.496,-0.455,0.836,0.359
24.506,-0.453,0.834,0.357
24.516,-0.447,0.838,0.357
24.526,-0.447,0.844,0.359
24.536,-0.447,0.846,0.359
24.546,-0.443,0.842,0.361
24.556,-0.445,0.848,0.359
24.566,-0.445,0.848,0.359
24.576,-0.449,0.846,0.355
24.585,-0.449,0.836,0.354
24.595,-0.449,0.838,0.354
24.605,-0.451,0.834,0.354
24.615,-0.453,0.842,0.357
24.625,-0.457,0.840,0.359
24.635,-0.461,0.842,0.361
24.645,-0.463,0.848,0.363
24.655,-0.463,0.838,0.363
24.665,-0.471,0.850,0.365
24.675,-0.471,0.852,0.361
24.685,-0.469,0.832,0.355
24.695,-0.463,0.824,0.357
24.705,-0.461,0.830,0.359
24.715,-0.455,0.832,0.365
24.725,-0.455,0.832,0.367
24.735,-0.451,0.832,0.367
24.744,-0.453,0.832,0.371
24.754,-0.457,0.832,0.369
24.764,-0.461,0.836,0.373
24.774,-0.465,0.834,0.369
24.784,-0.467,0.836,0.367
24.794,-0.465,0.832,0.369
24.804,-0.461,0.830,0.367
24.814,-0.461,0.826,0.369
24.824,-0.459,0.832,0.373
24.834,-0.457,0.834,0.375
24.844,-0.457,0.830,0.375
24.854,-0.459,0.832,0.371
24.864,-0.461,0.834,0.375
24.874,-0.465,0.832,0.375
24.884,-0.465,0.836,0.371
24.893,-0.465,0.834,0.371
24.903,-0.465,0.828,0.369
24.913,-0.463,0.814,0.369
24.923,-0.465,0.824,0.373
24.933,-0.467,0.834,0.373
24.943,-0.471,0.828,0.375
24.953,-0.471,0.834,0.377
24.963,-0.473,0.838,0.381
24.973,-0.471,0.834,0.379
24.983,-0.471,0.830,0.375
24.993,-0.467,0.832,0.377
25.003,-0.463,0.830,0.375
25.013,-0.465,0.832,0.375
25.023,-0.463,0.830,0.375
25.033,-0.459,0.832,0.373
25.043,-0.463,0.832,0.375
25.052,-0.459,0.834,0.375
25.062,-0.463,0.834,0.375
25.072,-0.461,0.838,0.375
25.082,-0.459,0.834,0.375
25.092,-0.457,0.832,0.373
25.102,-0.451,0.830,0.373
25.112,-0.453,0.832,0.371
25.122,-0.453,0.826,0.369
25.132,-0.455,0.828,0.369
25.142,-0.457,0.830,0.373
25.152,-0.459,0.834,0.373
25.162,-0.461,0.838,0.375
25.172,-0.457,0.836,0.375
25.182,-0.463,0.838,0.377
25.192,-0.463,0.842,0.375
25.201,-0.457,0.832,0.375
25.211,-0.457,0.836,0.371
25.221,-0.455,0.838,0.373
25.231,-0.453,0.832,0.373
25.241,-0.449,0.834,0.377
25.251,-0.453,0.838,0.377
25.261,-0.459,0.838,0.377
25.271,-0.457,0.842,0.379
25.281,-0.455,0.838,0.379
25.291,-0.455,0.834,0.381
25.301,-0.451,0.834,0.377
25.311,-0.453,0.830,0.375
25.321,-0.451,0.836,0.375
25.331,-0.451,0.830,0.377
25.341,-0.455,0.832,0.375
25.350,-0.457,0.836,0.375
25.360,-0.451,0.838,0.379
25.370,-0.445,0.832,0.375
25.380,-0.447,0.832,0.375
25.390,-0.447,0.836,0.377
25.400,-0.449,0.836,0.377
25.410,-0.455,0.828,0.375
25.420,-0.459,0.832,0.373
25.430,-0.463,0.836,0.373
25.440,-0.465,0.834,0.373
25.450,-0.469,0.836,0.375
25.460,-0.469,0.832,0.371
25.470,-0.465,0.834,0.373
25.480,-0.467,0.832,0.373
25.490,-0.467,0.832,0.371
25.500,-0.467,0.836,0.373
25.509,-0.455,0.834,0.373
25.519,-0.453,0.834,0.373
25.529,-0.449,0.846,0.375
25.539,-0.451,0.844,0.373
25.549,-0.451,0.838,0.371
25.559,-0.451,0.830,0.369
25.569,-0.449,0.834,0.377
25.579,-0.449,0.838,0.377
25.589,-0.445,0.832,0.377
25.599,-0.447,0.838,0.377
25.609,-0.449,0.834,0.377
25.619,-0.451,0.832,0.379
25.629,-0.457,0.834,0.379
25.639,-0.457,0.834,0.379
25.649,-0.457,0.834,0.377
25.658,-0.455,0.830,0.379
25.668,-0.451,0.836,0.377
25.678,-0.451,0.836,0.381
25.688,-0.451,0.840,0.379
25.698,-0.451,0.840,0.379
25.708,-0.451,0.844,0.381
25.718,-0.449,0.844,0.377
25.728,-0.445,0.842,0.377
25.738,-0.441,0.842,0.375
25.748,-0.439,0.846,0.379
25.758,-0.434,0.842,0.379
25.768,-0.430,0.846,0.377
25.778,-0.438,0.846,0.381
25.788,-0.436,0.834,0.375
25.798,-0.438,0.838,0.373
25.808,-0.434,0.838,0.375
25.817,-0.434,0.838,0.375
25.827,-0.434,0.846,0.375
25.837,-0.432,0.848,0.379
25.847,-0.430,0.846,0.375
25.857,-0.432,0.850,0.377
25.867,-0.434,0.850,0.379
25.877,-0.430,0.857,0.379
25.887,-0.430,0.852,0.373
25.897,-0.422,0.850,0.377
25.907,-0.420,0.855,0.377
25.917,-0.420,0.852,0.375
25.927,-0.418,0.852,0.375
25.937,-0.424,0.848,0.381
25.947,-0.428,0.848,0.375
25.957,-0.426,0.850,0.377
25.966,-0.424,0.844,0.379
25.976,-0.422,0.844,0.379
25.986,-0.420,0.844,0.381
25.996,-0.418,0.846,0.381
26.006,-0.416,0.852,0.383
26.016,-0.416,0.850,0.381
26.026,-0.420,0.850,0.377
26.036,-0.420,0.846,0.379
26.046,-0.426,0.844,0.373
26.056,-0.430,0.850,0.377
26.066,-0.428,0.850,0.379
26.076,-0.428,0.852,0.379
26.086,-0.422,0.855,0.381
26.096,-0.422,0.855,0.381
26.106,-0.418,0.854,0.381
26.115,-0.416,0.850,0.385
26.125,-0.422,0.842,0.381
26.135,-0.422,0.846,0.381
26.145,-0.418,0.846,0.385
26.155,-0.418,0.844,0.383
26.165,-0.414,0.848,0.385
26.175,-0.414,0.850,0.389
26.185,-0.412,0.852,0.383
26.195,-0.412,0.850,0.389
26.205,-0.410,0.848,0.383
26.215,-0.412,0.852,0.383
26.225,-0.416,0.846,0.381
26.235,-0.420,0.852,0.383
26.245,-0.420,0.850,0.383
26.255,-0.420,0.850,0.381
26.265,-0.418,0.852,0.387
26.274,-0.414,0.855,0.385
26.284,-0.412,0.855,0.385
26.294,-0.410,0.848,0.385
26.304,-0.414,0.848,0.379
26.314,-0.412,0.846,0.383
26.324,-0.406,0.844,0.385
26.334,-0.412,0.854,0.387
26.344,-0.410,0.859,0.387
26.354,-0.410,0.855,0.385
26.364,-0.410,0.852,0.381
26.374,-0.412,0.852,0.383
26.384,-0.410,0.850,0.381
26.394,-0.412,0.854,0.379
26.404,-0.412,0.857,0.385
26.414,-0.414,0.850,0.385
26.423,-0.422,0.850,0.383
26.433,-0.422,0.844,0.381
26.443,-0.422,0.844,0.381
26.453,-0.420,0.840,0.383
26.463,-0.420,0.840,0.381
26.473,-0.426,0.842,0.383
26.483,-0.424,0.844,0.377
26.493,-0.420,0.848,0.385
26.503,-0.416,0.844,0.385
26.513,-0.418,0.842,0.381
26.523,-0.416,0.846,0.383
26.533,-0.416,0.852,0.387
26.543,-0.424,0.855,0.385
26.553,-0.422,0.854,0.383
26.563,-0.418,0.848,0.385
26.573,-0.424,0.859,0.385
26.582,-0.424,0.848,0.379
26.592,-0.422,0.848,0.381
26.602,-0.424,0.852,0.379
26.612,-0.422,0.850,0.379
26.622,-0.422,0.846,0.377
26.632,-0.422,0.854,0.381
26.642,-0.420,0.854,0.381
26.652,-0.422,0.850,0.375
26.662,-0.420,0.850,0.383
26.672,-0.420,0.850,0.381
26.682,-0.422,0.846,0.379
26.692,-0.422,0.850,0.377
26.702,-0.422,0.857,0.383
26.712,-0.422,0.855,0.381
26.722,-0.420,0.857,0.387
26.731,-0.416,0.850,0.379
26.741,-0.414,0.848,0.379
26.751,-0.410,0.846,0.373
26.761,-0.408,0.850,0.375
26.771,-0.410,0.850,0.379
26.781,-0.414,0.852,0.379
26.791,-0.412,0.857,0.379
26.801,-0.418,0.855,0.383
26.811,-0.420,0.855,0.379
26.821,-0.422,0.850,0.377
26.831,-0.426,0.852,0.375
26.841,-0.422,0.846,0.375
26.851,-0.420,0.842,0.373
26.861,-0.414,0.842,0.375
26.871,-0.408,0.846,0.383
26.880,-0.408,0.850,0.383
26.890,-0.402,0.850,0.385
26.900,-0.398,0.857,0.381
26.910,-0.402,0.859,0.383
26.920,-0.408,0.857,0.381
26.930,-0.412,0.861,0.381
26.940,-0.418,0.861,0.381
26.950,-0.424,0.855,0.377
26.960,-0.422,0.855,0.375
26.970,-0.422,0.852,0.377
26.980,-0.426,0.857,0.379
26.990,-0.426,0.855,0.375
27.000,-0.424,0.852,0.375
27.010,-0.422,0.850,0.373
27.020,-0.416,0.850,0.375
27.030,-0.416,0.848,0.375
27.039,-0.416,0.854,0.375
27.049,-0.416,0.855,0.375
27.059,-0.416,0.846,0.375
27.069,-0.412,0.852,0.379
27.079,-0.406,0.848,0.377
27.089,-0.400,0.848,0.379
27.099,-0.402,0.857,0.385
27.109,-0.404,0.861,0.389
27.119,-0.408,0.854,0.383
27.129,-0.412,0.848,0.381
27.139,-0.412,0.848,0.381
27.149,-0.412,0.846,0.379
27.159,-0.416,0.850,0.381
27.169,-0.418,0.850,0.383
27.179,-0.422,0.848,0.383
27.188,-0.422,0.850,0.383
27.198,-0.420,0.844,0.383
27.208,-0.416,0.844,0.381
27.218,-0.418,0.844,0.377
27.228,-0.418,0.846,0.379
27.238,-0.416,0.850,0.377
27.248,-0.414,0.848,0.381
27.258,-0.420,0.857,0.383
27.268,-0.424,0.857,0.379
27.278,-0.428,0.857,0.379
27.288,-0.426,0.863,0.379
27.298,-0.420,0.863,0.381
27.308,-0.412,0.854,0.375
27.318,-0.406,0.848,0.377
27.328,-0.400,0.863,0.381
27.338,-0.400,0.861,0.379
27.347,-0.400,0.850,0.377
27.357,-0.396,0.852,0.377
27.367,-0.400,0.855,0.377
27.377,-0.400,0.850,0.375
27.387,-0.408,0.855,0.377
27.397,-0.408,0.857,0.381
27.407,-0.408,0.863,0.377
27.417,-0.410,0.859,0.381
27.427,-0.406,0.859,0.373
27.437,-0.406,0.854,0.379
27.447,-0.408,0.852,0.373
27.457,-0.408,0.848,0.369
27.467,-0.404,0.852,0.371
27.477,-0.408,0.852,0.373
27.487,-0.406,0.854,0.373
27.496,-0.402,0.859,0.373
27.506,-0.402,0.859,0.377
27.516,-0.406,0.859,0.375
27.526,-0.404,0.857,0.373
27.536,-0.402,0.857,0.371
27.546,-0.398,0.854,0.373
27.556,-0.404,0.855,0.371
27.566,-0.408,0.857,0.369
27.576,-0.406,0.861,0.375
27.586,-0.404,0.854,0.373
27.596,-0.404,0.855,0.375
27.606,-0.414,0.855,0.373
27.616,-0.410,0.857,0.375
27.626,-0.410,0.857,0.371
27.636,-0.410,0.852,0.373
27.645,-0.412,0.854,0.367
27.655,-0.414,0.857,0.371
27.665,-0.412,0.861,0.369
27.675,-0.414,0.855,0.367
27.685,-0.416,0.861,0.371
27.695,-0.416,0.861,0.373
27.705,-0.416,0.861,0.373
27.715,-0.418,0.857,0.375
27.725,-0.416,0.863,0.373
27.735,-0.408,0.848,0.371
27.745,-0.404,0.848,0.369
27.755,-0.400,0.857,0.373
27.765,-0.404,0.855,0.375
27.775,-0.406,0.854,0.379
27.785,-0.410,0.865,0.379
27.795,-0.412,0.859,0.377
27.804,-0.410,0.850,0.377
27.814,-0.412,0.846,0.373
27.824,-0.410,0.852,0.375
27.834,-0.410,0.852,0.379
27.844,-0.410,0.854,0.375
27.854,-0.410,0.848,0.375
27.864,-0.416,0.850,0.373
27.874,-0.418,0.850,0.371
27.884,-0.418,0.850,0.369
27.894,-0.420,0.850,0.375
27.904,-0.416,0.848,0.369
27.914,-0.418,0.848,0.373
27.924,-0.426,0.854,0.373
27.934,-0.426,0.850,0.371
27.944,-0.420,0.855,0.379
27.953,-0.420,0.857,0.373
27.963,-0.422,0.854,0.371
27.973,-0.420,0.857,0.373
27.983,-0.422,0.855,0.373
27.993,-0.424,0.857,0.371
28.003,-0.420,0.850,0.367
28.013,-0.418,0.848,0.369
28.023,-0.416,0.861,0.375
28.033,-0.416,0.861,0.375
28.043,-0.416,0.850,0.369
28.053,-0.410,0.850,0.369
28.063,-0.414,0.854,0.367
28.073,-0.410,0.857,0.369
28.083,-0.406,0.861,0.371
28.093,-0.410,0.865,0.373
28.103,-0.408,0.863,0.373
28.112,-0.410,0.852,0.373
28.122,-0.410,0.855,0.371
28.132,-0.408,0.855,0.375
28.142,-0.412,0.855,0.371
28.152,-0.408,0.854,0.369
28.162,-0.408,0.854,0.369
28.172,-0.410,0.852,0.369
28.182,-0.410,0.854,0.369
28.192,-0.416,0.855,0.377
28.202,-0.412,0.857,0.373
28.212,-0.414,0.854,0.371
28.222,-0.414,0.852,0.375
28.232,-0.416,0.855,0.369
28.242,-0.414,0.854,0.373
28.252,-0.416,0.852,0.369
28.261,-0.418,0.850,0.371
28.271,-0.420,0.852,0.371
28.281,-0.424,0.855,0.373
28.291,-0.420,0.857,0.375
28.301,-0.420,0.854,0.371
28.311,-0.418,0.852,0.371
28.321,-0.416,0.852,0.375
28.331,-0.414,0.857,0.377
28.341,-0.416,0.844,0.371
28.351,-0.414,0.842,0.371
28.361,-0.412,0.846,0.375
28.371,-0.414,0.844,0.373
28.381,-0.416,0.852,0.375
28.391,-0.424,0.861,0.375
28.401,-0.428,0.855,0.365
28.411,-0.426,0.848,0.365
28.420,-0.426,0.846,0.369
28.430,-0.426,0.854,0.373
28.440,-0.426,0.855,0.375
28.450,-0.428,0.854,0.373
28.460,-0.424,0.846,0.375
28.470,-0.426,0.846,0.371
28.480,-0.432,0.844,0.369
28.490,-0.432,0.844,0.371
28.500,-0.428,0.846,0.369
28.510,-0.426,0.850,0.373
28.520,-0.422,0.850,0.371
28.530,-0.418,0.850,0.373
28.540,-0.424,0.854,0.371
28.550,-0.426,0.854,0.373
28.560,-0.420,0.855,0.371
28.569,-0.424,0.857,0.375
28.579,-0.428,0.850,0.367
28.589,-0.432,0.852,0.363
28.599,-0.432,0.842,0.361
28.609,-0.436,0.832,0.359
28.619,-0.434,0.834,0.365
28.629,-0.436,0.855,0.381
28.639,-0.441,0.854,0.379
28.649,-0.443,0.842,0.375
28.659,-0.438,0.842,0.375
28.669,-0.436,0.850,0.375
28.679,-0.438,0.852,0.373
28.689,-0.436,0.850,0.371
28.699,-0.432,0.852,0.373
28.709,-0.434,0.855,0.373
28.718,-0.434,0.846,0.375
28.728,-0.434,0.850,0.371
28.738,-0.432,0.850,0.375
28.748,-0.430,0.848,0.369
28.758,-0.430,0.848,0.369
28.768,-0.430,0.844,0.365
28.778,-0.430,0.840,0.369
28.788,-0.436,0.842,0.369
28.798,-0.430,0.838,0.369
28.808,-0.436,0.842,0.375
28.818,-0.439,0.848,0.375
28.828,-0.439,0.846,0.373
28.838,-0.438,0.848,0.375
28.848,-0.436,0.846,0.373
28.858,-0.438,0.846,0.367
28.868,-0.436,0.842,0.373
28.877,-0.438,0.842,0.369
28.887,-0.441,0.842,0.369
28.897,-0.443,0.842,0.371
28.907,-0.439,0.838,0.373
28.917,-0.439,0.842,0.379
28.927,-0.445,0.852,0.379
28.937,-0.443,0.838,0.375
28.947,-0.439,0.840,0.377
28.957,-0.434,0.842,0.377
28.967,-0.432,0.840,0.373
28.977,-0.434,0.852,0.379
28.987,-0.436,0.852,0.381
28.997,-0.434,0.840,0.371
29.007,-0.439,0.836,0.371
29.017,-0.438,0.836,0.373
29.026,-0.439,0.848,0.381
29.036,-0.445,0.854,0.383
29.046,-0.441,0.848,0.381
29.056,-0.443,0.846,0.375
29.066,-0.447,0.844,0.375
29.076,-0.447,0.840,0.371
29.086,-0.445,0.834,0.371
29.096,-0.441,0.832,0.371
29.106,-0.438,0.838,0.371
29.116,-0.438,0.842,0.373
29.126,-0.439,0.842,0.375
29.136,-0.438,0.842,0.375
29.146,-0.434,0.844,0.375
29.156,-0.436,0.846,0.373
29.166,-0.434,0.846,0.373
29.176,-0.432,0.850,0.377
29.185,-0.436,0.848,0.377
29.195,-0.434,0.848,0.379
29.205,-0.438,0.844,0.371
29.215,-0.434,0.832,0.371
29.225,-0.432,0.846,0.375
29.235,-0.438,0.855,0.379
29.245,-0.432,0.844,0.373
29.255,-0.430,0.842,0.371
29.265,-0.432,0.844,0.373
29.275,-0.436,0.848,0.377
29.285,-0.434,0.852,0.375
29.295,-0.430,0.854,0.379
29.305,-0.428,0.854,0.381
29.315,-0.428,0.850,0.377
29.325,-0.426,0.846,0.377
29.334,-0.426,0.842,0.375
29.344,-0.430,0.844,0.381
29.354,-0.430,0.840,0.375
29.364,-0.432,0.842,0.373
29.374,-0.434,0.844,0.379
29.384,-0.432,0.844,0.377
29.394,-0.434,0.848,0.375
29.404,-0.434,0.848,0.373
29.414,-0.432,0.848,0.375
29.424,-0.430,0.848,0.373
29.434,-0.428,0.848,0.371
29.444,-0.428,0.850,0.373
29.454,-0.426,0.846,0.373
29.464,-0.430,0.846,0.371
29.474,-0.432,0.848,0.371
29.483,-0.428,0.850,0.373
29.493,-0.426,0.852,0.371
29.503,-0.424,0.854,0.375
29.513,-0.424,0.854,0.377
29.523,-0.418,0.855,0.379
29.533,-0.420,0.855,0.377
29.543,-0.418,0.848,0.375
29.553,-0.420,0.850,0.379
29.563,-0.422,0.852,0.379
29.573,-0.426,0.844,0.375
29.583,-0.428,0.840,0.371
29.593,-0.434,0.844,0.373
29.603,-0.432,0.842,0.375
29.613,-0.434,0.848,0.375
29.623,-0.430,0.855,0.379
29.633,-0.434,0.854,0.377
29.642,-0.432,0.854,0.377
29.652,-0.428,0.852,0.377
29.662,-0.430,0.846,0.375
29.672,-0.432,0.842,0.375
29.682,-0.428,0.844,0.371
29.692,-0.430,0.842,0.373
29.702,-0.428,0.844,0.375
29.712,-0.430,0.846,0.375
29.722,-0.430,0.850,0.379
29.732,-0.430,0.846,0.377
29.742,-0.432,0.846,0.379
29.752,-0.434,0.846,0.377
29.762,-0.432,0.846,0.377
29.772,-0.430,0.848,0.375
29.782,-0.430,0.844,0.375
29.791,-0.430,0.848,0.373
29.801,-0.428,0.850,0.373
29.811,-0.430,0.848,0.375
29.821,-0.434,0.838,0.371
29.831,-0.436,0.846,0.375
29.841,-0.430,0.850,0.379
29.851,-0.424,0.854,0.379
29.861,-0.428,0.863,0.385
29.871,-0.428,0.854,0.379
29.881,-0.426,0.838,0.375
29.891,-0.424,0.838,0.375
29.901,-0.426,0.840,0.375
29.911,-0.428,0.842,0.379
29.921,-0.428,0.842,0.379
29.931,-0.432,0.848,0.381
29.941,-0.434,0.844,0.381
29.950,-0.436,0.844,0.381
29.960,-0.441,0.846,0.379
29.970,-0.438,0.844,0.371
29.980,-0.434,0.838,0.373
29.990,-0.432,0.842,0.369
30.000,-0.434,0.844,0.373
30.010,-0.432,0.844,0.373
30.020,-0.434,0.850,0.375
30.030,-0.430,0.854,0.379
30.040,-0.428,0.852,0.377
30.050,-0.426,0.848,0.379
30.060,-0.422,0.850,0.381
30.070,-0.428,0.850,0.377
30.080,-0.430,0.842,0.371
30.090,-0.434,0.846,0.377
30.099,-0.436,0.844,0.375
30.109,-0.432,0.838,0.375
30.119,-0.430,0.850,0.383
30.129,-0.434,0.854,0.379
30.139,-0.434,0.844,0.377
30.149,-0.430,0.848,0.373
30.159,-0.434,0.846,0.373
30.169,-0.432,0.846,0.375
30.179,-0.428,0.846,0.377
30.189,-0.424,0.850,0.377
30.199,-0.422,0.852,0.381
30.209,-0.420,0.852,0.381
30.219,-0.420,0.844,0.379
30.229,-0.424,0.842,0.377
30.239,-0.424,0.842,0.381
30.248,-0.426,0.840,0.375
30.258,-0.430,0.844,0.381
30.268,-0.432,0.848,0.379
30.278,-0.436,0.848,0.379
30.288,-0.434,0.846,0.379
30.298,-0.438,0.844,0.377
30.308,-0.434,0.846,0.377
30.318,-0.430,0.844,0.377
30.328,-0.434,0.848,0.375
30.338,-0.430,0.846,0.375
30.348,-0.434,0.844,0.375
30.358,-0.432,0.846,0.375
30.368,-0.434,0.848,0.377
30.378,-0.430,0.850,0.377
30.388,-0.434,0.848,0.381
30.398,-0.434,0.848,0.379
30.407,-0.432,0.848,0.383
30.417,-0.428,0.846,0.383
30.427,-0.430,0.842,0.381
30.437,-0.434,0.840,0.381
30.447,-0.430,0.840,0.381
30.457,-0.430,0.840,0.383
30.467,-0.432,0.846,0.381
30.477,-0.434,0.840,0.381
30.487,-0.436,0.844,0.381
30.497,-0.436,0.848,0.375
30.507,-0.439,0.846,0.381
30.517,-0.436,0.846,0.381
30.527,-0.432,0.846,0.383
30.537,-0.434,0.846,0.383
30.547,-0.434,0.844,0.381
30.556,-0.436,0.842,0.377
30.566,-0.436,0.840,0.375
30.576,-0.434,0.840,0.379
30.586,-0.436,0.838,0.379
30.596,-0.436,0.842,0.379
30.606,-0.438,0.842,0.377
30.616,-0.434,0.842,0.377
30.626,-0.438,0.846,0.381
30.636,-0.439,0.850,0.381
30.646,-0.439,0.844,0.381
30.656,-0.436,0.850,0.379
30.666,-0.436,0.846,0.381
30.676,-0.438,0.836,0.377
30.686,-0.438,0.838,0.375
30.696,-0.434,0.838,0.379
30.706,-0.430,0.842,0.377
30.715,-0.436,0.855,0.383
30.725,-0.438,0.846,0.383
30.735,-0.436,0.836,0.377
30.745,-0.438,0.842,0.377
30.755,-0.439,0.844,0.377
30.765,-0.438,0.846,0.377
30.775,-0.434,0.842,0.379
30.785,-0.438,0.840,0.377
30.795,-0.439,0.838,0.375
30.805,-0.443,0.838,0.377
30.815,-0.445,0.840,0.377
30.825,-0.445,0.838,0.371
30.835,-0.445,0.840,0.371
30.845,-0.441,0.840,0.377
30.855,-0.436,0.844,0.381
30.864,-0.436,0.844,0.381
30.874,-0.434,0.846,0.377
30.884,-0.434,0.846,0.377
30.894,-0.436,0.844,0.381
30.904,-0.439,0.844,0.381
30.914,-0.436,0.846,0.377
30.924,-0.436,0.848,0.375
30.934,-0.439,0.844,0.373
30.944,-0.439,0.848,0.377
30.954,-0.441,0.846,0.375
30.964,-0.441,0.836,0.373
30.974,-0.436,0.848,0.377
30.984,-0.439,0.855,0.381
30.994,-0.439,0.846,0.377
31.004,-0.436,0.848,0.377
31.013,-0.434,0.844,0.375
31.023,-0.436,0.844,0.377
31.033,-0.432,0.844,0.377
31.043,-0.432,0.846,0.377
31.053,-0.434,0.842,0.375
31.063,-0.436,0.840,0.377
31.073,-0.438,0.838,0.377
31.083,-0.439,0.840,0.383
31.093,-0.441,0.844,0.379
31.103,-0.438,0.842,0.383
31.113,-0.443,0.842,0.379
31.123,-0.441,0.836,0.379
31.133,-0.439,0.838,0.379
31.143,-0.443,0.838,0.379
31.153,-0.443,0.840,0.379
31.163,-0.443,0.834,0.377
31.172,-0.447,0.838,0.377
31.182,-0.445,0.838,0.377
31.192,-0.441,0.842,0.373
31.202,-0.455,0.838,0.379
31.212,-0.443,0.846,0.373
31.222,-0.445,0.840,0.377
31.232,-0.441,0.846,0.377
31.242,-0.443,0.846,0.377
31.252,-0.443,0.844,0.377
31.262,-0.441,0.842,0.377
31.272,-0.445,0.846,0.375
31.282,-0.439,0.844,0.377
31.292,-0.439,0.840,0.375
31.302,-0.443,0.842,0.369
31.312,-0.439,0.840,0.373
31.321,-0.441,0.844,0.373
31.331,-0.441,0.842,0.375
31.341,-0.441,0.842,0.377
31.351,-0.441,0.844,0.379
31.361,-0.443,0.842,0.379
31.371,-0.443,0.842,0.377
31.381,-0.443,0.838,0.381
31.391,-0.445,0.838,0.373
31.401,-0.447,0.838,0.375
31.411,-0.445,0.840,0.373
31.421,-0.439,0.840,0.375
31.431,-0.443,0.836,0.371
31.441,-0.441,0.842,0.375
31.451,-0.439,0.840,0.375
31.461,-0.441,0.840,0.379
31.471,-0.443,0.842,0.379
31.480,-0.443,0.836,0.377
31.490,-0.443,0.844,0.377
31.500,-0.445,0.840,0.377
31.510,-0.445,0.840,0.377
31.520,-0.445,0.842,0.381
31.530,-0.447,0.842,0.381
31.540,-0.443,0.840,0.375
31.550,-0.443,0.840,0.379
31.560,-0.445,0.846,0.383
31.570,-0.443,0.838,0.373
31.580,-0.443,0.838,0.375
31.590,-0.443,0.842,0.377
31.600,-0.436,0.836,0.377
31.610,-0.438,0.848,0.381
31.620,-0.439,0.850,0.385
31.629,-0.443,0.840,0.379
31.639,-0.445,0.836,0.377
31.649,-0.447,0.842,0.377
31.659,-0.445,0.846,0.379
31.669,-0.443,0.842,0.379
31.679,-0.443,0.840,0.381
31.689,-0.449,0.838,0.373
31.699,-0.449,0.834,0.375
31.709,-0.453,0.832,0.373
31.719,-0.451,0.830,0.375
31.729,-0.449,0.834,0.377
31.739,-0.445,0.832,0.377
31.749,-0.445,0.838,0.377
31.759,-0.443,0.840,0.379
31.769,-0.441,0.840,0.379
31.778,-0.441,0.838,0.379
31.788,-0.443,0.840,0.377
31.798,-0.443,0.842,0.371
31.808,-0.443,0.844,0.375
31.818,-0.443,0.842,0.373
31.828,-0.447,0.844,0.375
31.838,-0.447,0.848,0.379
31.848,-0.447,0.846,0.377
31.858,-0.445,0.840,0.373
31.868,-0.447,0.850,0.377
31.878,-0.447,0.855,0.381
31.888,-0.447,0.842,0.375
31.898,-0.445,0.838,0.371
31.908,-0.449,0.842,0.367
31.918,-0.445,0.842,0.373
31.928,-0.441,0.846,0.373
31.937,-0.439,0.850,0.375
31.947,-0.436,0.846,0.373
31.957,-0.438,0.842,0.365
31.967,-0.436,0.842,0.371
31.977,-0.436,0.848,0.375
31.987,-0.436,0.844,0.375
31.997,-0.436,0.840,0.375
32.007,-0.436,0.836,0.375
32.017,-0.434,0.838,0.373
32.027,-0.441,0.834,0.367
32.037,-0.434,0.836,0.375
32.047,-0.432,0.838,0.377
32.057,-0.436,0.844,0.373
32.067,-0.436,0.850,0.373
32.077,-0.434,0.855,0.373
32.086,-0.430,0.850,0.371
32.096,-0.430,0.848,0.365
32.106,-0.438,0.844,0.373
32.116,-0.443,0.859,0.381
32.126,-0.443,0.852,0.381
32.136,-0.449,0.854,0.377
32.146,-0.443,0.850,0.375
32.156,-0.426,0.844,0.373
32.166,-0.414,0.842,0.375
32.176,-0.412,0.844,0.375
32.186,-0.412,0.846,0.375
32.196,-0.420,0.840,0.375
32.206,-0.434,0.838,0.373
32.216,-0.447,0.832,0.365
32.226,-0.463,0.830,0.363
32.236,-0.463,0.828,0.359
32.245,-0.469,0.814,0.359
32.255,-0.459,0.859,0.371
32.265,-0.449,0.859,0.377
32.275,-0.441,0.857,0.371
32.285,-0.438,0.859,0.371
32.295,-0.436,0.852,0.361
32.305,-0.443,0.842,0.359
32.315,-0.445,0.840,0.359
32.325,-0.439,0.838,0.361
32.335,-0.447,0.846,0.363
32.345,-0.441,0.850,0.365
32.355,-0.432,0.855,0.371
32.365,-0.430,0.855,0.373
32.375,-0.432,0.855,0.365
32.385,-0.430,0.855,0.363
32.394,-0.434,0.852,0.355
32.404,-0.434,0.852,0.352
32.414,-0.434,0.842,0.354
32.424,-0.434,0.836,0.350
32.434,-0.430,0.846,0.357
32.444,-0.428,0.848,0.361
32.454,-0.432,0.846,0.365
32.464,-0.430,0.855,0.369
32.474,-0.430,0.850,0.367
32.484,-0.424,0.854,0.365
32.494,-0.430,0.873,0.373
32.504,-0.428,0.869,0.371
32.514,-0.422,0.848,0.359
32.524,-0.422,0.838,0.357
32.534,-0.424,0.842,0.359
32.544,-0.426,0.852,0.367
32.553,-0.424,0.855,0.375
32.563,-0.428,0.857,0.371
32.573,-0.432,0.855,0.371
32.583,-0.430,0.852,0.365
32.593,-0.432,0.850,0.367
32.603,-0.428,0.848,0.365
32.613,-0.430,0.848,0.367
32.623,-0.428,0.844,0.365
32.633,-0.428,0.850,0.367
32.643,-0.420,0.855,0.371
32.653,-0.422,0.846,0.365
32.663,-0.420,0.848,0.363
32.673,-0.410,0.850,0.369
32.683,-0.408,0.850,0.371
32.693,-0.412,0.850,0.373
32.702,-0.416,0.855,0.373
32.712,-0.420,0.861,0.371
32.722,-0.426,0.852,0.369
32.732,-0.428,0.844,0.365
32.742,-0.430,0.854,0.369
32.752,-0.432,0.873,0.373
32.762,-0.426,0.859,0.373
32.772,-0.428,0.857,0.365
32.782,-0.430,0.855,0.363
32.792,-0.422,0.861,0.363
32.802,-0.418,0.859,0.367
32.812,-0.418,0.857,0.361
32.822,-0.416,0.859,0.365
32.832,-0.410,0.850,0.365
32.842,-0.418,0.854,0.365
32.851,-0.416,0.846,0.367
32.861,-0.416,0.854,0.371
32.871,-0.414,0.855,0.371
32.881,-0.414,0.852,0.371
32.891,-0.418,0.850,0.371
32.901,-0.420,0.846,0.369
32.911,-0.424,0.848,0.373
32.921,-0.428,0.836,0.367
32.931,-0.430,0.838,0.371
32.941,-0.436,0.838,0.373
32.951,-0.441,0.842,0.373
32.961,-0.443,0.844,0.375
32.971,-0.447,0.844,0.377
32.981,-0.443,0.846,0.371
32.991,-0.447,0.848,0.371
33.001,-0.445,0.852,0.371
33.010,-0.441,0.850,0.369
33.020,-0.438,0.855,0.369
33.030,-0.436,0.850,0.369
33.040,-0.432,0.846,0.371
33.050,-0.436,0.854,0.371
33.060,-0.434,0.854,0.373
33.070,-0.426,0.855,0.373
33.080,-0.424,0.846,0.373
33.090,-0.426,0.846,0.371
33.100,-0.428,0.854,0.373
33.110,-0.428,0.854,0.373
33.120,-0.430,0.854,0.373
33.130,-0.430,0.859,0.373
33.140,-0.430,0.854,0.373
33.150,-0.428,0.855,0.369
33.159,-0.430,0.852,0.369
33.169,-0.430,0.848,0.371
33.179,-0.430,0.846,0.367
33.189,-0.432,0.840,0.365
33.199,-0.430,0.842,0.367
33.209,-0.434,0.844,0.373
33.219,-0.438,0.842,0.371
33.229,-0.438,0.846,0.371
33.239,-0.438,0.838,0.371
33.249,-0.434,0.840,0.373
33.259,-0.438,0.850,0.381
33.269,-0.439,0.850,0.379
33.279,-0.439,0.844,0.377
33.289,-0.438,0.828,0.373
33.299,-0.438,0.832,0.377
33.309,-0.434,0.842,0.383
33.318,-0.436,0.840,0.385
33.328,-0.438,0.838,0.387
33.338,-0.441,0.840,0.389
33.348,-0.439,0.832,0.385
33.358,-0.441,0.830,0.381
33.368,-0.445,0.830,0.383
33.378,-0.451,0.832,0.379
33.388,-0.447,0.832,0.377
33.398,-0.445,0.832,0.379
33.408,-0.449,0.836,0.379
33.418,-0.451,0.840,0.377
33.428,-0.445,0.846,0.377
33.438,-0.445,0.846,0.381
33.448,-0.439,0.844,0.379
33.458,-0.439,0.846,0.377
33.467,-0.436,0.846,0.377
33.477,-0.438,0.846,0.375
33.487,-0.436,0.844,0.373
33.497,-0.430,0.838,0.379
33.507,-0.434,0.855,0.383
33.517,-0.436,0.848,0.379
33.527,-0.434,0.844,0.373
33.537,-0.439,0.844,0.373
33.547,-0.438,0.844,0.377
33.557,-0.441,0.846,0.373
33.567,-0.439,0.844,0.379
33.577,-0.439,0.848,0.377
33.587,-0.436,0.844,0.379
33.597,-0.434,0.838,0.379
33.607,-0.430,0.844,0.379
33.616,-0.432,0.842,0.379
33.626,-0.432,0.840,0.375
33.636,-0.432,0.838,0.373
33.646,-0.436,0.840,0.371
33.656,-0.439,0.840,0.377
33.666,-0.443,0.848,0.375
33.676,-0.443,0.844,0.377
33.686,-0.443,0.846,0.373
33.696,-0.441,0.844,0.373
33.706,-0.438,0.846,0.373
33.716,-0.439,0.848,0.371
33.726,-0.441,0.848,0.367
33.736,-0.443,0.844,0.367
33.746,-0.445,0.840,0.369
33.756,-0.445,0.838,0.365
33.766,-0.441,0.836,0.367
33.775,-0.445,0.840,0.371
33.785,-0.439,0.844,0.369
33.795,-0.439,0.844,0.367
33.805,-0.438,0.846,0.369
33.815,-0.438,0.846,0.371
33.825,-0.441,0.846,0.369
33.835,-0.443,0.846,0.371
33.845,-0.451,0.842,0.369
33.855,-0.451,0.844,0.371
33.865,-0.453,0.846,0.369
33.875,-0.455,0.842,0.369
33.885,-0.457,0.838,0.371
33.895,-0.451,0.840,0.369
33.905,-0.453,0.844,0.371
33.915,-0.453,0.848,0.365
33.924,-0.449,0.830,0.367
33.934,-0.447,0.846,0.369
33.944,-0.443,0.854,0.373
33.954,-0.439,0.836,0.369
33.964,-0.441,0.850,0.373
33.974,-0.445,0.855,0.375
33.984,-0.443,0.846,0.371
33.994,-0.443,0.834,0.367
34.004,-0.443,0.832,0.367
34.014,-0.451,0.838,0.371
34.024,-0.451,0.844,0.371
34.034,-0.449,0.846,0.371
34.044,-0.451,0.838,0.371
34.054,-0.453,0.832,0.371
34.064,-0.455,0.834,0.371
34.074,-0.449,0.830,0.367
34.083,-0.455,0.832,0.367
34.093,-0.455,0.832,0.367
34.103,-0.455,0.834,0.367
34.113,-0.455,0.838,0.365
34.123,-0.453,0.838,0.371
34.133,-0.455,0.842,0.367
34.143,-0.457,0.844,0.369
34.153,-0.455,0.840,0.375
34.163,-0.459,0.840,0.369
34.173,-0.461,0.848,0.367
34.183,-0.453,0.842,0.369
34.193,-0.445,0.834,0.371
34.203,-0.449,0.848,0.377
34.213,-0.451,0.846,0.381
34.223,-0.447,0.836,0.375
34.232,-0.445,0.830,0.373
34.242,-0.449,0.836,0.373
34.252,-0.447,0.838,0.377
34.262,-0.443,0.848,0.381
34.272,-0.439,0.844,0.385
34.282,-0.441,0.844,0.385
34.292,-0.443,0.838,0.379
34.302,-0.445,0.836,0.381
34.312,-0.445,0.830,0.379
34.322,-0.449,0.826,0.377
34.332,-0.451,0.832,0.375
34.342,-0.455,0.830,0.375
34.352,-0.455,0.836,0.377
34.362,-0.457,0.836,0.379
34.372,-0.461,0.840,0.381
34.381,-0.459,0.836,0.381
34.391,-0.459,0.836,0.375
34.401,-0.455,0.840,0.377
34.411,-0.453,0.836,0.375
34.421,-0.453,0.834,0.375
34.431,-0.451,0.834,0.373
34.441,-0.449,0.840,0.377
34.451,-0.449,0.840,0.379
34.461,-0.447,0.840,0.377
34.471,-0.449,0.842,0.381
34.481,-0.449,0.832,0.375
34.491,-0.451,0.832,0.377
34.501,-0.451,0.830,0.379
34.511,-0.457,0.834,0.379
34.521,-0.455,0.836,0.381
34.531,-0.455,0.834,0.383
34.540,-0.455,0.834,0.383
34.550,-0.453,0.834,0.383
34.560,-0.457,0.846,0.383
34.570,-0.459,0.822,0.379
34.580,-0.459,0.818,0.371
34.590,-0.459,0.830,0.383
34.600,-0.457,0.826,0.381
34.610,-0.457,0.842,0.387
34.620,-0.463,0.850,0.389
34.630,-0.459,0.840,0.389
34.640,-0.457,0.826,0.379
34.650,-0.455,0.824,0.383
34.660,-0.455,0.832,0.385
34.670,-0.453,0.830,0.385
34.680,-0.455,0.830,0.387
34.689,-0.459,0.828,0.387
34.699,-0.461,0.826,0.385
34.709,-0.459,0.824,0.383
34.719,-0.455,0.824,0.387
34.729,-0.461,0.828,0.387
34.739,-0.461,0.824,0.381
34.749,-0.459,0.824,0.383
34.759,-0.461,0.828,0.383
34.769,-0.465,0.828,0.381
34.779,-0.465,0.824,0.381
34.789,-0.465,0.832,0.379
34.799,-0.467,0.838,0.383
34.809,-0.469,0.836,0.387
34.819,-0.465,0.838,0.385
34.829,-0.467,0.836,0.385
34.839,-0.467,0.832,0.379
34.848,-0.461,0.820,0.385
34.858,-0.457,0.834,0.385
34.868,-0.461,0.840,0.391
34.878,-0.457,0.824,0.389
34.888,-0.457,0.822,0.383
34.898,-0.457,0.828,0.385
34.908,-0.453,0.826,0.389
34.918,-0.455,0.832,0.389
34.928,-0.455,0.832,0.393
34.938,-0.453,0.828,0.389
34.948,-0.455,0.826,0.389
34.958,-0.459,0.828,0.389
34.968,-0.459,0.828,0.389
34.978,-0.459,0.834,0.389
34.988,-0.459,0.832,0.389
34.997,-0.459,0.832,0.385
35.007,-0.457,0.828,0.391
35.017,-0.457,0.830,0.387
35.027,-0.455,0.834,0.393
35.037,-0.453,0.828,0.389
35.047,-0.455,0.830,0.389
35.057,-0.455,0.830,0.387
35.067,-0.457,0.826,0.387
35.077,-0.459,0.830,0.389
35.087,-0.457,0.832,0.385
35.097,-0.457,0.832,0.391
35.107,-0.461,0.828,0.393
35.117,-0.461,0.832,0.389
35.127,-0.461,0.836,0.391
35.137,-0.457,0.832,0.389
35.146,-0.459,0.828,0.389
35.156,-0.457,0.828,0.387
35.166,-0.457,0.826,0.387
35.176,-0.465,0.822,0.385
35.186,-0.457,0.826,0.389
35.196,-0.463,0.830,0.387
35.206,-0.465,0.830,0.389
35.216,-0.467,0.828,0.389
35.226,-0.465,0.826,0.391
35.236,-0.465,0.826,0.391
35.246,-0.461,0.824,0.391
35.256,-0.471,0.832,0.395
35.266,-0.479,0.826,0.389
35.276,-0.469,0.822,0.389
35.286,-0.467,0.830,0.393
35.296,-0.459,0.822,0.391
35.305,-0.457,0.830,0.393
35.315,-0.461,0.838,0.398
35.325,-0.459,0.826,0.393
35.335,-0.459,0.816,0.387
35.345,-0.461,0.818,0.389
35.355,-0.461,0.824,0.387
35.365,-0.465,0.826,0.393
35.375,-0.465,0.826,0.393
35.385,-0.467,0.826,0.393
35.395,-0.469,0.822,0.393
35.405,-0.477,0.820,0.387
35.415,-0.479,0.822,0.389
35.425,-0.479,0.820,0.391
35.435,-0.475,0.822,0.393
35.445,-0.471,0.828,0.391
35.454,-0.465,0.828,0.391
35.464,-0.469,0.830,0.393
35.474,-0.461,0.824,0.395
35.484,-0.463,0.820,0.389
35.494,-0.463,0.822,0.391
35.504,-0.461,0.822,0.389
35.514,-0.467,0.820,0.393
35.524,-0.469,0.822,0.391
35.534,-0.471,0.828,0.396
35.544,-0.469,0.822,0.395
35.554,-0.461,0.818,0.396
35.564,-0.465,0.836,0.400
35.574,-0.469,0.830,0.398
35.584,-0.469,0.822,0.396
35.594,-0.471,0.824,0.396
35.604,-0.471,0.822,0.393
35.613,-0.469,0.822,0.395
35.623,-0.465,0.826,0.395
35.633,-0.465,0.826,0.402
35.643,-0.465,0.828,0.402
35.653,-0.463,0.828,0.400
35.663,-0.461,0.824,0.402
35.673,-0.461,0.816,0.398
35.683,-0.461,0.816,0.396
35.693,-0.457,0.814,0.400
35.703,-0.455,0.814,0.400
35.713,-0.461,0.814,0.400
35.723,-0.463,0.818,0.402
35.733,-0.465,0.814,0.398
35.743,-0.465,0.820,0.400
35.753,-0.465,0.818,0.402
35.762,-0.461,0.824,0.400
35.772,-0.465,0.826,0.400
35.782,-0.461,0.828,0.400
35.792,-0.463,0.826,0.396
35.802,-0.465,0.822,0.398
35.812,-0.461,0.828,0.396
35.822,-0.461,0.832,0.395
35.832,-0.461,0.826,0.395
35.842,-0.457,0.828,0.395
35.852,-0.457,0.828,0.398
35.862,-0.453,0.824,0.396
35.872,-0.457,0.826,0.398
35.882,-0.457,0.832,0.402
35.892,-0.455,0.834,0.400
35.902,-0.455,0.830,0.398
35.911,-0.455,0.826,0.396
35.921,-0.455,0.826,0.395
35.931,-0.453,0.826,0.396
35.941,-0.453,0.822,0.395
35.951,-0.455,0.822,0.395
35.961,-0.455,0.824,0.393
35.971,-0.459,0.822,0.395
35.981,-0.463,0.826,0.393
35.991,-0.465,0.822,0.396
36.001,-0.465,0.820,0.398
36.011,-0.469,0.814,0.396
36.021,-0.471,0.814,0.396
36.031,-0.471,0.818,0.398
36.041,-0.471,0.820,0.398
36.051,-0.471,0.816,0.400
36.061,-0.473,0.816,0.402
36.070,-0.473,0.812,0.398
36.080,-0.473,0.820,0.400
36.090,-0.471,0.816,0.395
36.100,-0.471,0.814,0.395
36.110,-0.475,0.818,0.395
36.120,-0.475,0.818,0.398
36.130,-0.475,0.822,0.396
36.140,-0.473,0.822,0.400
36.150,-0.473,0.820,0.395
36.160,-0.469,0.818,0.396
36.170,-0.467,0.828,0.396
36.180,-0.463,0.820,0.396
36.190,-0.465,0.828,0.393
36.200,-0.465,0.830,0.395
36.210,-0.459,0.832,0.393
36.219,-0.463,0.838,0.396
36.229,-0.469,0.830,0.398
36.239,-0.473,0.826,0.389
36.249,-0.475,0.820,0.393
36.259,-0.475,0.826,0.395
36.269,-0.477,0.828,0.393
36.279,-0.469,0.822,0.393
36.289,-0.471,0.822,0.395
36.299,-0.469,0.818,0.396
36.309,-0.471,0.818,0.393
36.319,-0.479,0.824,0.395
36.329,-0.486,0.824,0.396
36.339,-0.490,0.826,0.398
36.349,-0.496,0.818,0.398
36.359,-0.494,0.812,0.396
36.369,-0.492,0.811,0.395
36.378,-0.482,0.803,0.398
36.388,-0.475,0.799,0.396
36.398,-0.475,0.801,0.396
36.408,-0.469,0.805,0.396
36.418,-0.469,0.805,0.396
36.428,-0.471,0.809,0.398
36.438,-0.469,0.812,0.400
36.448,-0.469,0.814,0.396
36.458,-0.479,0.822,0.398
36.468,-0.473,0.812,0.396
36.478,-0.471,0.820,0.395
36.488,-0.475,0.826,0.396
36.498,-0.473,0.822,0.395
36.508,-0.475,0.830,0.391
36.518,-0.477,0.828,0.389
36.527,-0.479,0.830,0.391
36.537,-0.475,0.838,0.393
36.547,-0.471,0.834,0.396
36.557,-0.467,0.828,0.393
36.567,-0.461,0.830,0.391
36.577,-0.455,0.830,0.396
36.587,-0.453,0.826,0.396
36.597,-0.453,0.834,0.396
36.607,-0.449,0.832,0.396
36.617,-0.451,0.834,0.395
36.627,-0.447,0.828,0.395
36.637,-0.449,0.828,0.396
36.647,-0.451,0.826,0.396
36.657,-0.449,0.826,0.396
36.667,-0.453,0.828,0.395
36.676,-0.447,0.828,0.393
36.686,-0.451,0.828,0.393
36.696,-0.457,0.832,0.395
36.706,-0.459,0.834,0.395
36.716,-0.461,0.832,0.396
36.726,-0.459,0.830,0.395
36.736,-0.459,0.826,0.391
36.746,-0.453,0.826,0.393
36.756,-0.451,0.824,0.393
36.766,-0.451,0.826,0.395
36.776,-0.451,0.824,0.395
36.786,-0.453,0.824,0.393
36.796,-0.455,0.824,0.395
36.806,-0.453,0.830,0.393
36.816,-0.461,0.828,0.395
36.826,-0.463,0.824,0.395
36.835,-0.459,0.824,0.393
36.845,-0.467,0.826,0.395
36.855,-0.463,0.824,0.393
36.865,-0.463,0.828,0.393
36.875,-0.461,0.828,0.395
36.885,-0.467,0.826,0.396
36.895,-0.461,0.826,0.398
36.905,-0.459,0.826,0.395
36.915,-0.461,0.820,0.393
36.925,-0.463,0.820,0.393
36.935,-0.467,0.818,0.391
36.945,-0.469,0.814,0.393
36.955,-0.469,0.818,0.396
36.965,-0.471,0.822,0.395
36.975,-0.469,0.824,0.395
36.984,-0.467,0.826,0.395
36.994,-0.467,0.826,0.393
37.004,-0.469,0.836,0.396
37.014,-0.467,0.824,0.396
37.024,-0.469,0.820,0.391
37.034,-0.469,0.822,0.393
37.044,-0.463,0.820,0.389
37.054,-0.461,0.826,0.396
37.064,-0.475,0.828,0.398
37.074,-0.467,0.834,0.396
37.084,-0.459,0.822,0.395
37.094,-0.459,0.826,0.393
37.104,-0.463,0.824,0.395
37.114,-0.459,0.826,0.395
37.124,-0.459,0.824,0.395
37.134,-0.457,0.820,0.395
37.143,-0.463,0.820,0.391
37.153,-0.463,0.816,0.393
37.163,-0.471,0.818,0.391
37.173,-0.473,0.820,0.391
37.183,-0.471,0.818,0.391
37.193,-0.475,0.820,0.395
37.203,-0.471,0.820,0.396
37.213,-0.467,0.826,0.398
37.223,-0.469,0.826,0.398
37.233,-0.463,0.824,0.396
37.243,-0.463,0.824,0.396
37.253,-0.463,0.820,0.396
37.263,-0.463,0.826,0.393
37.273,-0.463,0.820,0.395
37.283,-0.463,0.824,0.393
37.292,-0.465,0.814,0.396
37.302,-0.465,0.824,0.396
37.312,-0.469,0.836,0.402
37.322,-0.463,0.828,0.400
37.332,-0.463,0.826,0.400
37.342,-0.467,0.834,0.398
37.352,-0.465,0.832,0.396
37.362,-0.459,0.830,0.396
37.372,-0.455,0.826,0.398
37.382,-0.459,0.828,0.400
37.392,-0.457,0.828,0.396
37.402,-0.455,0.830,0.400
37.412,-0.453,0.826,0.400
37.422,-0.451,0.824,0.398
37.432,-0.453,0.820,0.396
37.441,-0.451,0.822,0.396
37.451,-0.455,0.820,0.396
37.461,-0.455,0.822,0.398
37.471,-0.451,0.824,0.393
37.481,-0.449,0.828,0.398
37.491,-0.449,0.824,0.396
37.501,-0.451,0.818,0.396
37.511,-0.455,0.824,0.395
37.521,-0.459,0.824,0.393
37.531,-0.461,0.826,0.395
37.541,-0.465,0.828,0.395
37.551,-0.463,0.828,0.393
37.561,-0.463,0.832,0.396
37.571,-0.459,0.830,0.398
37.581,-0.457,0.832,0.398
37.591,-0.465,0.828,0.396
37.600,-0.469,0.832,0.393
37.610,-0.461,0.832,0.398
37.620,-0.459,0.826,0.398
37.630,-0.467,0.830,0.402
37.640,-0.463,0.830,0.404
37.650,-0.463,0.830,0.404
37.660,-0.465,0.822,0.400
37.670,-0.463,0.822,0.396
37.680,-0.455,0.828,0.400
37.690,-0.453,0.826,0.396
37.700,-0.451,0.826,0.400
37.710,-0.455,0.822,0.395
37.720,-0.455,0.820,0.398
37.730,-0.453,0.830,0.400
37.740,-0.455,0.834,0.400
37.749,-0.457,0.838,0.400
37.759,-0.457,0.824,0.398
37.769,-0.455,0.824,0.398
37.779,-0.455,0.830,0.398
37.789,-0.451,0.822,0.400
37.799,-0.453,0.826,0.398
37.809,-0.451,0.834,0.402
37.819,-0.451,0.826,0.395
37.829,-0.449,0.822,0.395
37.839,-0.445,0.826,0.395
37.849,-0.441,0.824,0.398
37.859,-0.438,0.836,0.404
37.869,-0.443,0.842,0.408
37.879,-0.443,0.830,0.402
37.889,-0.443,0.824,0.398
37.899,-0.443,0.828,0.400
37.908,-0.445,0.828,0.404
37.918,-0.443,0.828,0.406
37.928,-0.443,0.830,0.406
37.938,-0.447,0.834,0.406
37.948,-0.451,0.836,0.412
37.958,-0.453,0.838,0.408
37.968,-0.453,0.834,0.406
37.978,-0.453,0.830,0.408
37.988,-0.449,0.828,0.408
37.998,-0.445,0.822,0.408
38.008,-0.441,0.818,0.408
38.018,-0.441,0.818,0.408
38.028,-0.438,0.824,0.408
38.038,-0.438,0.826,0.412
38.048,-0.441,0.830,0.414
38.057,-0.441,0.830,0.412
38.067,-0.443,0.832,0.412
38.077,-0.447,0.830,0.412
38.087,-0.445,0.816,0.410
38.097,-0.445,0.818,0.410
38.107,-0.451,0.834,0.420
38.117,-0.453,0.824,0.412
38.127,-0.449,0.818,0.408
38.137,-0.451,0.824,0.408
38.147,-0.453,0.820,0.406
38.157,-0.451,0.830,0.408
38.167,-0.449,0.828,0.410
38.177,-0.451,0.828,0.412
38.187,-0.447,0.830,0.412
38.197,-0.443,0.828,0.414
38.207,-0.441,0.828,0.410
38.216,-0.443,0.832,0.410
38.226,-0.443,0.830,0.412
38.236,-0.438,0.830,0.406
38.246,-0.438,0.832,0.410
38.256,-0.432,0.832,0.412
38.266,-0.434,0.834,0.408
38.276,-0.436,0.832,0.410
38.286,-0.438,0.830,0.404
38.296,-0.439,0.828,0.406
38.306,-0.439,0.832,0.404
38.316,-0.441,0.832,0.404
38.326,-0.441,0.832,0.398
38.336,-0.447,0.830,0.400
38.346,-0.449,0.824,0.402
38.356,-0.455,0.826,0.398
38.365,-0.459,0.826,0.398
38.375,-0.457,0.828,0.404
38.385,-0.451,0.830,0.404
38.395,-0.451,0.824,0.404
38.405,-0.451,0.828,0.404
38.415,-0.447,0.826,0.408
38.425,-0.443,0.826,0.408
38.435,-0.439,0.832,0.406
38.445,-0.441,0.826,0.408
38.455,-0.443,0.828,0.406
38.465,-0.449,0.828,0.410
38.475,-0.449,0.826,0.406
38.485,-0.451,0.822,0.408
38.495,-0.453,0.824,0.410
38.505,-0.455,0.834,0.412
38.514,-0.459,0.824,0.402
38.524,-0.453,0.820,0.406
38.534,-0.455,0.834,0.410
38.544,-0.451,0.828,0.410
38.554,-0.447,0.832,0.406
38.564,-0.449,0.832,0.408
38.574,-0.449,0.828,0.406
38.584,-0.451,0.818,0.396
38.594,-0.451,0.820,0.400
38.604,-0.451,0.824,0.402
38.614,-0.453,0.832,0.412
38.624,-0.455,0.832,0.412
38.634,-0.453,0.830,0.414
38.644,-0.453,0.824,0.414
38.654,-0.451,0.822,0.408
38.664,-0.449,0.814,0.408
38.673,-0.451,0.809,0.402
38.683,-0.455,0.812,0.400
38.693,-0.455,0.818,0.406
38.703,-0.455,0.818,0.408
38.713,-0.457,0.820,0.406
38.723,-0.459,0.826,0.406
38.733,-0.463,0.822,0.408
38.743,-0.463,0.828,0.408
38.753,-0.459,0.828,0.404
38.763,-0.457,0.832,0.410
38.773,-0.455,0.834,0.404
38.783,-0.449,0.822,0.404
38.793,-0.443,0.830,0.406
38.803,-0.445,0.840,0.412
38.813,-0.445,0.830,0.404
38.822,-0.445,0.820,0.400
38.832,-0.439,0.818,0.400
38.842,-0.441,0.828,0.404
38.852,-0.447,0.834,0.410
38.862,-0.449,0.836,0.410
38.872,-0.449,0.838,0.410
38.882,-0.453,0.828,0.410
38.892,-0.451,0.826,0.406
38.902,-0.451,0.824,0.408
38.912,-0.451,0.822,0.408
38.922,-0.447,0.824,0.410
38.932,-0.453,0.822,0.410
38.942,-0.451,0.824,0.412
38.952,-0.453,0.826,0.414
38.962,-0.453,0.822,0.416
38.972,-0.455,0.820,0.414
38.981,-0.459,0.816,0.408
38.991,-0.453,0.812,0.410
39.001,-0.457,0.814,0.408
39.011,-0.459,0.820,0.410
39.021,-0.457,0.818,0.408
39.031,-0.455,0.822,0.402
39.041,-0.455,0.828,0.406
39.051,-0.455,0.824,0.410
39.061,-0.459,0.826,0.402
39.071,-0.457,0.830,0.408
39.081,-0.457,0.826,0.408
39.091,-0.461,0.826,0.406
39.101,-0.455,0.818,0.406
39.111,-0.457,0.818,0.402
39.121,-0.453,0.824,0.400
39.130,-0.455,0.832,0.406
39.140,-0.459,0.828,0.402
39.150,-0.455,0.807,0.395
39.160,-0.453,0.828,0.410
39.170,-0.451,0.830,0.406
39.180,-0.447,0.824,0.402
39.190,-0.457,0.834,0.408
39.200,-0.459,0.834,0.404
39.210,-0.459,0.824,0.402
39.220,-0.461,0.818,0.400
39.230,-0.461,0.824,0.402
39.240,-0.459,0.832,0.410
39.250,-0.459,0.832,0.408
39.260,-0.457,0.816,0.404
39.270,-0.459,0.807,0.398
39.279,-0.465,0.812,0.402
39.289,-0.461,0.818,0.402
39.299,-0.463,0.814,0.402
39.309,-0.461,0.822,0.402
39.319,-0.461,0.826,0.404
39.329,-0.455,0.828,0.400
39.339,-0.455,0.824,0.402
39.349,-0.455,0.826,0.398
39.359,-0.453,0.828,0.402
39.369,-0.451,0.828,0.402
39.379,-0.455,0.824,0.402
39.389,-0.453,0.822,0.402
39.399,-0.457,0.836,0.402
39.409,-0.457,0.826,0.400
39.419,-0.453,0.828,0.402
39.429,-0.457,0.848,0.408
39.438,-0.459,0.832,0.400
39.448,-0.455,0.820,0.395
39.458,-0.459,0.820,0.393
39.468,-0.459,0.822,0.398
39.478,-0.459,0.828,0.402
39.488,-0.459,0.826,0.404
39.498,-0.457,0.828,0.402
39.508,-0.453,0.826,0.412
39.518,-0.455,0.830,0.408
39.528,-0.455,0.828,0.406
39.538,-0.457,0.820,0.404
39.548,-0.453,0.820,0.400
39.558,-0.453,0.816,0.404
39.568,-0.455,0.816,0.402
39.578,-0.457,0.816,0.402
39.587,-0.459,0.824,0.404
39.597,-0.461,0.824,0.408
39.607,-0.463,0.826,0.404
39.617,-0.457,0.822,0.406
39.627,-0.459,0.824,0.402
39.637,-0.461,0.820,0.404
39.647,-0.459,0.828,0.404
39.657,-0.455,0.824,0.402
39.667,-0.455,0.822,0.398
39.677,-0.459,0.824,0.400
39.687,-0.459,0.824,0.398
39.697,-0.461,0.824,0.402
39.707,-0.463,0.824,0.400
39.717,-0.467,0.822,0.406
39.727,-0.461,0.824,0.400
39.737,-0.461,0.834,0.410
39.746,-0.457,0.834,0.404
39.756,-0.457,0.818,0.402
39.766,-0.455,0.828,0.406
39.776,-0.447,0.822,0.402
39.786,-0.449,0.828,0.402
39.796,-0.459,0.834,0.406
39.806,-0.459,0.828,0.406
39.816,-0.461,0.818,0.402
39.826,-0.459,0.816,0.402
39.836,-0.455,0.820,0.404
39.846,-0.457,0.826,0.408
39.856,-0.455,0.826,0.406
39.866,-0.451,0.826,0.404
39.876,-0.451,0.826,0.406
39.886,-0.455,0.826,0.400
39.895,-0.451,0.824,0.400
39.905,-0.449,0.820,0.402
39.915,-0.455,0.820,0.402
39.925,-0.453,0.824,0.400
39.935,-0.457,0.826,0.404
39.945,-0.459,0.824,0.404
39.955,-0.461,0.828,0.404
39.965,-0.457,0.828,0.406
39.975,-0.461,0.824,0.406
39.985,-0.459,0.826,0.404
39.995,-0.455,0.824,0.408
40.005,-0.459,0.820,0.408
40.015,-0.457,0.820,0.408
40.025,-0.457,0.814,0.408
40.035,-0.459,0.814,0.406
40.044,-0.467,0.836,0.416
40.054,-0.467,0.824,0.410
40.064,-0.465,0.818,0.404
40.074,-0.467,0.824,0.410
40.084,-0.461,0.818,0.410
40.094,-0.461,0.820,0.406
40.104,-0.459,0.822,0.410
40.114,-0.457,0.820,0.412
40.124,-0.457,0.822,0.412
40.134,-0.457,0.816,0.410
40.144,-0.457,0.818,0.408
40.154,-0.457,0.822,0.408
40.164,-0.459,0.816,0.410
40.174,-0.461,0.818,0.408
40.184,-0.459,0.818,0.412
40.194,-0.463,0.818,0.410
40.203,-0.463,0.818,0.410
40.213,-0.461,0.818,0.412
40.223,-0.463,0.814,0.410
40.233,-0.465,0.816,0.410
40.243,-0.465,0.822,0.412
40.253,-0.465,0.818,0.408
40.263,-0.463,0.818,0.410
40.273,-0.461,0.818,0.412
40.283,-0.459,0.818,0.410
40.293,-0.463,0.818,0.414
40.303,-0.459,0.820,0.410
40.313,-0.465,0.818,0.412
40.323,-0.463,0.820,0.408
40.333,-0.465,0.818,0.402
40.343,-0.465,0.818,0.408
40.352,-0.465,0.820,0.412
40.362,-0.467,0.818,0.410
40.372,-0.469,0.820,0.412
40.382,-0.467,0.818,0.412
40.392,-0.465,0.816,0.410
40.402,-0.463,0.822,0.416
40.412,-0.467,0.818,0.412
40.422,-0.465,0.820,0.418
40.432,-0.461,0.820,0.414
40.442,-0.461,0.812,0.412
40.452,-0.461,0.814,0.408
40.462,-0.465,0.818,0.410
40.472,-0.463,0.824,0.414
40.482,-0.461,0.822,0.408
40.492,-0.461,0.820,0.408
40.502,-0.457,0.820,0.406
40.511,-0.457,0.822,0.410
40.521,-0.455,0.822,0.406
40.531,-0.459,0.818,0.406
40.541,-0.455,0.824,0.410
40.551,-0.455,0.822,0.412
40.561,-0.459,0.828,0.412
40.571,-0.457,0.826,0.412
40.581,-0.453,0.824,0.410
40.591,-0.457,0.820,0.408
40.601,-0.455,0.828,0.412
40.611,-0.457,0.826,0.412
40.621,-0.453,0.820,0.412
40.631,-0.451,0.822,0.416
40.641,-0.445,0.820,0.418
40.651,-0.445,0.822,0.416
40.660,-0.441,0.832,0.420
40.670,-0.443,0.824,0.418
40.680,-0.443,0.814,0.410
40.690,-0.451,0.816,0.414
40.700,-0.453,0.820,0.414
40.710,-0.449,0.828,0.414
40.720,-0.447,0.824,0.416
40.730,-0.445,0.824,0.416
40.740,-0.447,0.818,0.412
40.750,-0.451,0.816,0.406
40.760,-0.447,0.824,0.408
40.770,-0.453,0.828,0.414
40.780,-0.453,0.830,0.410
40.790,-0.447,0.834,0.410
40.800,-0.443,0.830,0.410
40.809,-0.443,0.830,0.410
40.819,-0.438,0.828,0.410
40.829,-0.434,0.830,0.412
40.839,-0.434,0.828,0.408
40.849,-0.434,0.832,0.412
40.859,-0.432,0.830,0.410
40.869,-0.434,0.832,0.408
40.879,-0.438,0.836,0.410
40.889,-0.439,0.832,0.406
40.899,-0.441,0.836,0.406
40.909,-0.445,0.836,0.412
40.919,-0.439,0.842,0.414
40.929,-0.441,0.846,0.416
40.939,-0.436,0.838,0.416
40.949,-0.434,0.832,0.410
40.959,-0.426,0.826,0.410
40.968,-0.422,0.828,0.414
40.978,-0.420,0.834,0.416
40.988,-0.420,0.834,0.420
40.998,-0.422,0.834,0.416
41.008,-0.418,0.834,0.418
41.018,-0.420,0.832,0.420
41.028,-0.424,0.830,0.418
41.038,-0.428,0.834,0.416
41.048,-0.432,0.832,0.418
41.058,-0.436,0.826,0.414
41.068,-0.439,0.826,0.414
41.078,-0.439,0.830,0.410
41.088,-0.441,0.828,0.408
41.098,-0.443,0.830,0.408
41.108,-0.443,0.828,0.408
41.117,-0.443,0.830,0.408
41.127,-0.443,0.830,0.408
41.137,-0.441,0.834,0.410
41.147,-0.439,0.834,0.410
41.157,-0.441,0.830,0.406
41.167,-0.443,0.832,0.406
41.177,-0.441,0.836,0.406
41.187,-0.438,0.834,0.408
41.197,-0.441,0.834,0.406
41.207,-0.439,0.836,0.406
41.217,-0.441,0.834,0.406
41.227,-0.439,0.832,0.406
41.237,-0.439,0.834,0.406
41.247,-0.438,0.832,0.402
41.257,-0.436,0.832,0.404
41.267,-0.434,0.834,0.406
41.276,-0.438,0.834,0.406
41.286,-0.438,0.834,0.404
41.296,-0.439,0.830,0.404
41.306,-0.443,0.834,0.404
41.316,-0.443,0.834,0.406
41.326,-0.439,0.830,0.404
41.336,-0.441,0.832,0.406
41.346,-0.441,0.836,0.404
41.356,-0.439,0.836,0.402
41.366,-0.434,0.836,0.402
41.376,-0.434,0.832,0.408
41.386,-0.434,0.830,0.404
41.396,-0.436,0.830,0.406
41.406,-0.438,0.832,0.408
41.416,-0.439,0.828,0.404
41.425,-0.439,0.834,0.408
41.435,-0.438,0.834,0.412
41.445,-0.438,0.834,0.410
41.455,-0.438,0.836,0.410
41.465,-0.438,0.836,0.406
41.475,-0.438,0.832,0.404
41.485,-0.436,0.830,0.404
41.495,-0.436,0.826,0.402
41.505,-0.441,0.834,0.404
41.515,-0.438,0.834,0.406
41.525,-0.439,0.826,0.402
41.535,-0.441,0.834,0.406
41.545,-0.441,0.836,0.402
41.555,-0.436,0.830,0.402
41.565,-0.439,0.846,0.412
41.574,-0.439,0.842,0.408
41.584,-0.434,0.832,0.402
41.594,-0.438,0.828,0.400
41.604,-0.434,0.832,0.402
41.614,-0.438,0.834,0.404
41.624,-0.438,0.832,0.404
41.634,-0.436,0.830,0.404
41.644,-0.443,0.834,0.406
41.654,-0.447,0.832,0.406
41.664,-0.447,0.834,0.402
41.674,-0.449,0.828,0.402
41.684,-0.451,0.828,0.398
41.694,-0.445,0.830,0.402
41.704,-0.441,0.826,0.400
41.714,-0.443,0.826,0.402
41.724,-0.441,0.828,0.404
41.733,-0.443,0.834,0.406
41.743,-0.441,0.836,0.404
41.753,-0.438,0.836,0.404
41.763,-0.438,0.836,0.404
41.773,-0.438,0.838,0.408
41.783,-0.441,0.838,0.406
41.793,-0.443,0.836,0.404
41.803,-0.447,0.834,0.408
41.813,-0.451,0.826,0.408
41.823,-0.455,0.834,0.410
41.833,-0.451,0.834,0.418
41.843,-0.447,0.830,0.410
41.853,-0.445,0.828,0.412
41.863,-0.441,0.828,0.408
41.873,-0.436,0.826,0.410
41.882,-0.432,0.828,0.412
41.892,-0.432,0.828,0.408
41.902,-0.434,0.824,0.410
41.912,-0.428,0.828,0.408
41.922,-0.432,0.828,0.404
41.932,-0.436,0.824,0.400
41.942,-0.438,0.830,0.402
41.952,-0.436,0.834,0.404
41.962,-0.436,0.836,0.404
41.972,-0.439,0.846,0.400
41.982,-0.430,0.840,0.398
41.992,-0.432,0.840,0.396
42.002,-0.436,0.838,0.396
42.012,-0.432,0.834,0.395
42.022,-0.430,0.838,0.396
42.032,-0.436,0.838,0.395
42.041,-0.434,0.840,0.393
42.051,-0.436,0.846,0.395
42.061,-0.430,0.846,0.398
42.071,-0.426,0.842,0.396
42.081,-0.426,0.846,0.398
42.091,-0.424,0.848,0.395
42.101,-0.424,0.846,0.395
42.111,-0.422,0.846,0.395
42.121,-0.426,0.848,0.400
42.131,-0.426,0.846,0.396
42.141,-0.422,0.844,0.398
42.151,-0.424,0.844,0.400
42.161,-0.426,0.842,0.396
42.171,-0.426,0.840,0.393
42.181,-0.422,0.838,0.398
42.190,-0.424,0.838,0.400
42.200,-0.420,0.836,0.398
42.210,-0.424,0.840,0.400
42.220,-0.424,0.842,0.398
42.230,-0.426,0.840,0.396
42.240,-0.422,0.838,0.396
42.250,-0.428,0.836,0.395
42.260,-0.430,0.838,0.395
42.270,-0.434,0.840,0.396
42.280,-0.428,0.846,0.393
42.290,-0.430,0.844,0.396
42.300,-0.428,0.850,0.395
42.310,-0.424,0.846,0.395
42.320,-0.426,0.844,0.393
42.330,-0.422,0.846,0.395
42.339,-0.422,0.842,0.395
42.349,-0.422,0.840,0.393
42.359,-0.426,0.842,0.393
42.369,-0.424,0.846,0.396
42.379,-0.428,0.846,0.396
42.389,-0.424,0.844,0.395
42.399,-0.426,0.848,0.398
42.409,-0.426,0.846,0.398
42.419,-0.428,0.836,0.395
42.429,-0.428,0.844,0.396
42.439,-0.426,0.840,0.396
42.449,-0.420,0.838,0.396
42.459,-0.424,0.854,0.398
42.469,-0.428,0.850,0.398
42.479,-0.424,0.840,0.393
42.489,-0.424,0.836,0.393
42.498,-0.428,0.838,0.395
42.508,-0.428,0.842,0.396
42.518,-0.430,0.838,0.400
42.528,-0.430,0.844,0.402
42.538,-0.432,0.842,0.400
42.548,-0.434,0.842,0.396
42.558,-0.436,0.840,0.395
42.568,-0.436,0.836,0.391
42.578,-0.436,0.838,0.391
42.588,-0.430,0.840,0.393
42.598,-0.428,0.838,0.393
42.608,-0.426,0.838,0.393
42.618,-0.428,0.840,0.395
42.628,-0.426,0.842,0.400
42.638,-0.432,0.848,0.396
42.647,-0.432,0.842,0.396
42.657,-0.430,0.844,0.393
42.667,-0.430,0.848,0.391
42.677,-0.426,0.842,0.391
42.687,-0.426,0.840,0.393
42.697,-0.422,0.832,0.391
42.707,-0.420,0.838,0.389
42.717,-0.424,0.854,0.398
42.727,-0.430,0.840,0.393
42.737,-0.436,0.838,0.389
42.747,-0.434,0.842,0.391
42.757,-0.430,0.838,0.389
42.767,-0.430,0.844,0.387
42.777,-0.424,0.844,0.391
42.787,-0.416,0.844,0.391
42.797,-0.414,0.844,0.393
42.806,-0.414,0.846,0.393
42.816,-0.414,0.848,0.391
42.826,-0.416,0.848,0.393
42.836,-0.418,0.854,0.396
42.846,-0.416,0.852,0.396
42.856,-0.418,0.850,0.393
42.866,-0.420,0.846,0.391
42.876,-0.420,0.846,0.391
42.886,-0.422,0.846,0.387
42.896,-0.424,0.848,0.387
42.906,-0.426,0.848,0.389
42.916,-0.424,0.848,0.389
42.926,-0.428,0.846,0.385
42.936,-0.426,0.850,0.385
42.946,-0.422,0.848,0.391
42.955,-0.418,0.850,0.389
42.965,-0.420,0.846,0.393
42.975,-0.424,0.846,0.387
42.985,-0.422,0.844,0.387
42.995,-0.424,0.848,0.387
43.005,-0.420,0.844,0.389
43.015,-0.420,0.844,0.387
43.025,-0.420,0.842,0.383
43.035,-0.418,0.848,0.385
43.045,-0.418,0.844,0.389
43.055,-0.420,0.844,0.387
43.065,-0.426,0.840,0.385
43.075,-0.424,0.838,0.389
43.085,-0.426,0.842,0.391
43.095,-0.428,0.848,0.395
43.104,-0.430,0.848,0.396
43.114,-0.430,0.848,0.393
43.124,-0.428,0.838,0.387
43.134,-0.430,0.838,0.383
43.144,-0.428,0.846,0.391
43.154,-0.434,0.844,0.389
43.164,-0.434,0.846,0.383
43.174,-0.430,0.846,0.383
43.184,-0.432,0.850,0.389
43.194,-0.428,0.854,0.385
43.204,-0.426,0.854,0.387
43.214,-0.424,0.854,0.391
43.224,-0.418,0.850,0.387
43.234,-0.410,0.846,0.387
43.244,-0.412,0.855,0.389
43.254,-0.410,0.852,0.383
43.263,-0.410,0.842,0.385
43.273,-0.408,0.852,0.387
43.283,-0.404,0.844,0.389
43.293,-0.402,0.852,0.391
43.303,-0.410,0.865,0.395
43.313,-0.412,0.859,0.393
43.323,-0.412,0.850,0.381
43.333,-0.420,0.844,0.385
43.343,-0.420,0.846,0.385
43.353,-0.418,0.844,0.389
43.363,-0.418,0.854,0.391
43.373,-0.416,0.854,0.391
43.383,-0.414,0.850,0.393
43.393,-0.418,0.844,0.391
43.403,-0.420,0.842,0.385
43.412,-0.420,0.844,0.389
43.422,-0.420,0.842,0.391
43.432,-0.418,0.842,0.389
43.442,-0.416,0.846,0.389
43.452,-0.418,0.846,0.393
43.462,-0.418,0.842,0.387
43.472,-0.422,0.852,0.389
43.482,-0.420,0.854,0.396
43.492,-0.416,0.850,0.391
43.502,-0.412,0.848,0.391
43.512,-0.412,0.850,0.395
43.522,-0.412,0.842,0.389
43.532,-0.408,0.828,0.387
43.542,-0.408,0.850,0.398
43.552,-0.416,0.861,0.398
43.562,-0.418,0.854,0.395
43.571,-0.422,0.846,0.389
43.581,-0.424,0.844,0.389
43.591,-0.420,0.850,0.387
43.601,-0.420,0.842,0.387
43.611,-0.418,0.852,0.391
43.621,-0.412,0.854,0.395
43.631,-0.410,0.852,0.389
43.641,-0.406,0.852,0.391
43.651,-0.404,0.855,0.389
43.661,-0.402,0.850,0.389
43.671,-0.402,0.850,0.389
43.681,-0.404,0.852,0.387
43.691,-0.404,0.842,0.385
43.701,-0.406,0.850,0.385
43.711,-0.406,0.850,0.393
43.720,-0.408,0.852,0.385
43.730,-0.408,0.855,0.389
43.740,-0.412,0.854,0.387
43.750,-0.416,0.857,0.387
43.760,-0.418,0.855,0.389
43.770,-0.418,0.859,0.385
43.780,-0.416,0.854,0.387
43.790,-0.412,0.848,0.391
43.800,-0.412,0.846,0.383
43.810,-0.412,0.852,0.389
43.820,-0.404,0.848,0.389
43.830,-0.404,0.852,0.389
43.840,-0.406,0.852,0.395
43.850,-0.404,0.850,0.389
43.860,-0.406,0.848,0.389
43.870,-0.410,0.848,0.389
43.879,-0.406,0.852,0.393
43.889,-0.410,0.854,0.391
43.899,-0.412,0.852,0.391
43.909,-0.418,0.852,0.389
43.919,-0.416,0.859,0.391
43.929,-0.416,0.855,0.391
43.939,-0.414,0.854,0.389
43.949,-0.414,0.846,0.383
43.959,-0.406,0.848,0.387
43.969,-0.408,0.854,0.389
43.979,-0.412,0.852,0.385
43.989,-0.400,0.834,0.383
43.999,-0.406,0.859,0.393
44.009,-0.412,0.861,0.387
44.019,-0.400,0.855,0.387
44.028,-0.402,0.863,0.391
44.038,-0.412,0.863,0.391
44.048,-0.406,0.848,0.385
44.058,-0.406,0.846,0.387
44.068,-0.408,0.846,0.389
44.078,-0.406,0.848,0.391
44.088,-0.406,0.855,0.391
44.098,-0.408,0.854,0.393
44.108,-0.408,0.848,0.389
44.118,-0.408,0.852,0.389
44.128,-0.410,0.848,0.393
44.138,-0.408,0.844,0.391
44.148,-0.410,0.842,0.381
44.158,-0.412,0.844,0.389
44.168,-0.414,0.848,0.389
44.177,-0.414,0.854,0.393
44.187,-0.414,0.854,0.389
44.197,-0.412,0.850,0.387
44.207,-0.414,0.850,0.389
44.217,-0.414,0.850,0.389
44.227,-0.416,0.855,0.389
44.237,-0.412,0.854,0.389
44.247,-0.412,0.852,0.389
44.257,-0.408,0.854,0.385
44.267,-0.406,0.869,0.396
44.277,-0.412,0.863,0.395
44.287,-0.410,0.846,0.385
44.297,-0.408,0.844,0.383
44.307,-0.410,0.848,0.385
44.317,-0.412,0.844,0.389
44.327,-0.412,0.846,0.389
44.336,-0.414,0.854,0.396
44.346,-0.416,0.855,0.393
44.356,-0.418,0.848,0.391
44.366,-0.416,0.848,0.391
44.376,-0.420,0.852,0.389
44.386,-0.420,0.842,0.381
44.396,-0.422,0.844,0.383
44.406,-0.416,0.850,0.387
44.416,-0.414,0.846,0.383
44.426,-0.416,0.848,0.381
44.436,-0.418,0.852,0.383
44.446,-0.412,0.852,0.383
44.456,-0.410,0.850,0.381
44.466,-0.412,0.850,0.377
44.476,-0.412,0.857,0.379
44.485,-0.412,0.855,0.377
44.495,-0.408,0.854,0.377
44.505,-0.412,0.854,0.377
44.515,-0.410,0.857,0.381
44.525,-0.412,0.857,0.379
44.535,-0.410,0.857,0.379
44.545,-0.414,0.859,0.379
44.555,-0.416,0.857,0.379
44.565,-0.412,0.857,0.383
44.575,-0.414,0.852,0.383
44.585,-0.416,0.855,0.383
44.595,-0.414,0.852,0.383
44.605,-0.412,0.848,0.383
44.615,-0.418,0.844,0.381
44.625,-0.418,0.844,0.381
44.635,-0.418,0.854,0.385
44.644,-0.422,0.855,0.381
44.654,-0.424,0.838,0.381
44.664,-0.422,0.850,0.383
44.674,-0.418,0.852,0.385
44.684,-0.412,0.846,0.385
44.694,-0.412,0.861,0.391
44.704,-0.416,0.865,0.393
44.714,-0.414,0.854,0.385
44.724,-0.412,0.848,0.385
44.734,-0.414,0.850,0.387
44.744,-0.414,0.854,0.389
44.754,-0.416,0.852,0.391
44.764,-0.414,0.850,0.391
44.774,-0.414,0.842,0.391
44.784,-0.414,0.844,0.385
44.793,-0.412,0.846,0.387
44.803,-0.406,0.846,0.381
44.813,-0.408,0.846,0.385
44.823,-0.410,0.846,0.383
44.833,-0.410,0.848,0.387
44.843,-0.414,0.852,0.387
44.853,-0.414,0.852,0.383
44.863,-0.414,0.854,0.387
44.873,-0.414,0.855,0.387
44.883,-0.412,0.855,0.381
44.893,-0.412,0.859,0.387
44.903,-0.412,0.855,0.387
44.913,-0.412,0.859,0.385
44.923,-0.414,0.855,0.383
44.933,-0.414,0.842,0.381
44.942,-0.410,0.852,0.387
44.952,-0.414,0.861,0.387
44.962,-0.412,0.852,0.381
44.972,-0.408,0.850,0.381
44.982,-0.404,0.850,0.381
44.992,-0.404,0.857,0.385
45.002,-0.406,0.859,0.385
45.012,-0.404,0.859,0.385
45.022,-0.400,0.852,0.393
45.032,-0.406,0.854,0.387
45.042,-0.406,0.850,0.385
45.052,-0.408,0.852,0.385
45.062,-0.404,0.854,0.387
45.072,-0.404,0.852,0.381
45.082,-0.404,0.854,0.385
45.092,-0.412,0.852,0.383
45.101,-0.410,0.852,0.389
45.111,-0.412,0.850,0.381
45.121,-0.408,0.852,0.385
45.131,-0.408,0.854,0.381
45.141,-0.410,0.855,0.381
45.151,-0.408,0.852,0.383
45.161,-0.408,0.854,0.383
45.171,-0.410,0.854,0.379
45.181,-0.406,0.854,0.379
45.191,-0.404,0.852,0.381
45.201,-0.408,0.854,0.383
45.211,-0.404,0.855,0.381
45.221,-0.406,0.857,0.381
45.231,-0.406,0.857,0.383
45.241,-0.412,0.857,0.389
45.250,-0.414,0.859,0.385
45.260,-0.414,0.854,0.381
45.270,-0.412,0.850,0.385
45.280,-0.410,0.850,0.385
45.290,-0.410,0.857,0.389
45.300,-0.410,0.857,0.385
45.310,-0.414,0.842,0.383
45.320,-0.408,0.855,0.385
45.330,-0.404,0.852,0.387
45.340,-0.404,0.850,0.387
45.350,-0.408,0.863,0.391
45.360,-0.410,0.863,0.387
45.370,-0.412,0.844,0.383
45.380,-0.410,0.840,0.377
45.390,-0.412,0.848,0.383
45.400,-0.418,0.855,0.385
45.409,-0.414,0.857,0.385
45.419,-0.414,0.852,0.381
45.429,-0.418,0.852,0.383
45.439,-0.414,0.852,0.381
45.449,-0.412,0.852,0.381
45.459,-0.412,0.850,0.385
45.469,-0.408,0.848,0.385
45.479,-0.408,0.850,0.387
45.489,-0.410,0.848,0.385
45.499,-0.414,0.850,0.383
45.509,-0.414,0.855,0.387
45.519,-0.414,0.855,0.387
45.529,-0.414,0.850,0.387
45.539,-0.416,0.850,0.387
45.549,-0.420,0.854,0.385
45.558,-0.420,0.854,0.387
45.568,-0.420,0.850,0.385
45.578,-0.424,0.850,0.383
45.588,-0.422,0.852,0.383
45.598,-0.418,0.844,0.387
45.608,-0.410,0.859,0.393
45.618,-0.408,0.855,0.385
45.628,-0.406,0.846,0.379
45.638,-0.406,0.852,0.381
45.648,-0.406,0.857,0.383
45.658,-0.402,0.859,0.385
45.668,-0.400,0.863,0.389
45.678,-0.398,0.863,0.389
45.688,-0.396,0.865,0.389
45.698,-0.400,0.857,0.389
45.707,-0.400,0.855,0.385
45.717,-0.402,0.852,0.381
45.727,-0.402,0.846,0.383
45.737,-0.400,0.846,0.385
45.747,-0.404,0.855,0.389
45.757,-0.408,0.854,0.387
45.767,-0.410,0.854,0.389
45.777,-0.412,0.852,0.387
45.787,-0.414,0.854,0.391
45.797,-0.416,0.852,0.389
45.807,-0.410,0.852,0.387
45.817,-0.412,0.846,0.389
45.827,-0.406,0.844,0.387
45.837,-0.406,0.852,0.391
45.847,-0.406,0.857,0.391
45.857,-0.408,0.854,0.395
45.866,-0.406,0.855,0.391
45.876,-0.406,0.855,0.389
45.886,-0.408,0.854,0.393
45.896,-0.408,0.854,0.391
45.906,-0.406,0.855,0.387
45.916,-0.404,0.855,0.393
45.926,-0.404,0.850,0.393
45.936,-0.404,0.844,0.391
45.946,-0.404,0.848,0.389
45.956,-0.404,0.850,0.385
45.966,-0.408,0.859,0.387
45.976,-0.412,0.861,0.393
45.986,-0.406,0.857,0.387
45.996,-0.410,0.855,0.391
46.006,-0.406,0.852,0.391
46.015,-0.404,0.855,0.393
46.025,-0.406,0.852,0.391
46.035,-0.406,0.846,0.387
46.045,-0.404,0.844,0.389
46.055,-0.408,0.850,0.385
46.065,-0.406,0.854,0.385
46.075,-0.410,0.854,0.391
46.085,-0.412,0.855,0.391
46.095,-0.406,0.857,0.393
46.105,-0.406,0.852,0.395
46.115,-0.400,0.861,0.396
46.125,-0.404,0.855,0.393
46.135,-0.400,0.838,0.387
46.145,-0.400,0.848,0.387
46.155,-0.398,0.846,0.391
46.165,-0.398,0.852,0.391
46.174,-0.402,0.867,0.400
46.184,-0.402,0.861,0.400
46.194,-0.402,0.844,0.391
46.204,-0.400,0.840,0.389
46.214,-0.400,0.850,0.393
46.224,-0.400,0.861,0.398
46.234,-0.398,0.857,0.393
46.244,-0.398,0.855,0.391
46.254,-0.396,0.854,0.389
46.264,-0.402,0.850,0.391
46.274,-0.402,0.850,0.389
46.284,-0.400,0.850,0.387
46.294,-0.404,0.850,0.389
46.304,-0.398,0.855,0.389
46.314,-0.398,0.857,0.389
46.323,-0.398,0.855,0.387
46.333,-0.395,0.854,0.387
46.343,-0.396,0.855,0.389
46.353,-0.395,0.857,0.391
46.363,-0.391,0.859,0.387
46.373,-0.395,0.861,0.391
46.383,-0.391,0.861,0.391
46.393,-0.389,0.861,0.389
46.403,-0.391,0.857,0.385
46.413,-0.393,0.861,0.385
46.423,-0.393,0.855,0.385
46.433,-0.395,0.859,0.387
46.443,-0.398,0.867,0.393
46.453,-0.400,0.863,0.385
46.463,-0.395,0.859,0.387
46.472,-0.396,0.859,0.385
46.482,-0.395,0.859,0.387
46.492,-0.393,0.861,0.387
46.502,-0.395,0.863,0.385
46.512,-0.396,0.863,0.393
46.522,-0.396,0.859,0.387
46.532,-0.391,0.855,0.391
46.542,-0.385,0.855,0.389
46.552,-0.385,0.850,0.389
46.562,-0.381,0.855,0.393
46.572,-0.383,0.865,0.389
46.582,-0.385,0.863,0.391
46.592,-0.385,0.859,0.385
46.602,-0.391,0.857,0.387
46.612,-0.391,0.855,0.383
46.622,-0.396,0.855,0.381
46.631,-0.395,0.859,0.383
46.641,-0.396,0.861,0.387
46.651,-0.400,0.861,0.385
46.661,-0.404,0.859,0.385
46.671,-0.398,0.863,0.387
46.681,-0.395,0.859,0.391
46.691,-0.395,0.859,0.389
46.701,-0.391,0.861,0.387
46.711,-0.389,0.854,0.385
46.721,-0.391,0.850,0.385
46.731,-0.391,0.852,0.381
46.741,-0.396,0.848,0.391
46.751,-0.400,0.854,0.383
46.761,-0.398,0.854,0.385
46.771,-0.396,0.857,0.387
46.780,-0.395,0.861,0.389
46.790,-0.389,0.859,0.389
46.800,-0.389,0.859,0.387
46.810,-0.385,0.861,0.389
46.820,-0.383,0.863,0.387
46.830,-0.381,0.863,0.389
46.840,-0.381,0.857,0.385
46.850,-0.383,0.861,0.389
46.860,-0.381,0.859,0.391
46.870,-0.383,0.865,0.389
46.880,-0.391,0.863,0.391
46.890,-0.391,0.859,0.393
46.900,-0.396,0.854,0.393
46.910,-0.393,0.857,0.389
46.920,-0.389,0.859,0.395
46.930,-0.381,0.855,0.393
46.939,-0.381,0.863,0.395
46.949,-0.381,0.865,0.393
46.959,-0.375,0.859,0.389
46.969,-0.373,0.855,0.387
46.979,-0.373,0.855,0.393
46.989,-0.373,0.863,0.391
46.999,-0.371,0.867,0.391
47.009,-0.371,0.867,0.387
47.019,-0.371,0.867,0.389
47.029,-0.369,0.871,0.383
47.039,-0.369,0.877,0.389
47.049,-0.369,0.865,0.383
47.059,-0.373,0.867,0.385
47.069,-0.375,0.863,0.383
47.079,-0.375,0.861,0.393
47.088,-0.385,0.865,0.393
47.098,-0.381,0.865,0.393
47.108,-0.377,0.854,0.387
47.118,-0.381,0.850,0.387
47.128,-0.377,0.855,0.391
47.138,-0.375,0.857,0.387
47.148,-0.375,0.865,0.389
47.158,-0.383,0.865,0.393
47.168,-0.383,0.863,0.387
47.178,-0.383,0.863,0.387
47.188,-0.383,0.865,0.381
47.198,-0.385,0.867,0.385
47.208,-0.377,0.867,0.383
47.218,-0.377,0.861,0.383
47.228,-0.373,0.861,0.377
47.237,-0.367,0.863,0.375
47.247,-0.357,0.867,0.379
47.257,-0.354,0.873,0.379
47.267,-0.352,0.871,0.377
47.277,-0.346,0.875,0.381
47.287,-0.350,0.875,0.379
47.297,-0.361,0.875,0.375
47.307,-0.365,0.879,0.373
47.317,-0.371,0.875,0.375
47.327,-0.387,0.877,0.371
47.337,-0.393,0.879,0.371
47.347,-0.389,0.863,0.371
47.357,-0.396,0.877,0.373
47.367,-0.398,0.871,0.377
47.377,-0.391,0.869,0.375
47.387,-0.396,0.873,0.375
47.396,-0.396,0.865,0.375
47.406,-0.398,0.861,0.371
47.416,-0.396,0.859,0.373
47.426,-0.393,0.859,0.373
47.436,-0.393,0.859,0.377
47.446,-0.389,0.859,0.373
47.456,-0.383,0.861,0.379
47.466,-0.385,0.863,0.377
47.476,-0.381,0.863,0.381
47.486,-0.383,0.865,0.381
47.496,-0.375,0.859,0.381
47.506,-0.373,0.867,0.383
47.516,-0.371,0.869,0.383
47.526,-0.367,0.869,0.383
47.536,-0.371,0.865,0.377
47.545,-0.371,0.865,0.375
47.555,-0.381,0.867,0.381
47.565,-0.383,0.865,0.379
47.575,-0.387,0.869,0.381
47.585,-0.385,0.867,0.381
47.595,-0.385,0.867,0.381
47.605,-0.383,0.869,0.381
47.615,-0.381,0.867,0.379
47.625,-0.379,0.863,0.379
47.635,-0.383,0.855,0.377
47.645,-0.381,0.861,0.385
47.655,-0.385,0.867,0.383
47.665,-0.379,0.865,0.385
47.675,-0.381,0.865,0.383
47.685,-0.379,0.863,0.383
47.695,-0.373,0.867,0.387
47.704,-0.379,0.865,0.387
47.714,-0.381,0.869,0.385
47.724,-0.381,0.869,0.385
47.734,-0.381,0.865,0.385
47.744,-0.381,0.865,0.383
47.754,-0.383,0.869,0.385
47.764,-0.377,0.869,0.385
47.774,-0.377,0.861,0.381
47.784,-0.379,0.855,0.379
47.794,-0.383,0.857,0.383
47.804,-0.385,0.859,0.383
47.814,-0.385,0.863,0.381
47.824,-0.383,0.867,0.387
47.834,-0.377,0.859,0.387
47.844,-0.373,0.859,0.387
47.853,-0.373,0.859,0.387
47.863,-0.369,0.861,0.385
47.873,-0.373,0.867,0.385
47.883,-0.375,0.863,0.381
47.893,-0.375,0.871,0.383
47.903,-0.373,0.873,0.389
47.913,-0.375,0.867,0.385
47.923,-0.375,0.867,0.385
47.933,-0.379,0.869,0.383
47.943,-0.375,0.875,0.385
47.953,-0.375,0.869,0.385
47.963,-0.377,0.865,0.381
47.973,-0.371,0.867,0.379
47.983,-0.373,0.863,0.377
47.993,-0.369,0.863,0.379
48.003,-0.373,0.873,0.385
48.012,-0.375,0.875,0.387
48.022,-0.375,0.867,0.379
48.032,-0.377,0.867,0.379
48.042,-0.371,0.861,0.381
48.052,-0.373,0.865,0.381
48.062,-0.373,0.865,0.383
48.072,-0.375,0.865,0.381
48.082,-0.381,0.869,0.379
48.092,-0.379,0.865,0.377
48.102,-0.383,0.863,0.377
48.112,-0.381,0.863,0.375
48.122,-0.379,0.867,0.375
48.132,-0.379,0.865,0.381
48.142,-0.375,0.867,0.379
48.152,-0.375,0.869,0.381
48.161,-0.371,0.865,0.381
48.171,-0.375,0.875,0.383
48.181,-0.377,0.873,0.387
48.191,-0.377,0.873,0.381
48.201,-0.375,0.871,0.379
48.211,-0.375,0.869,0.379
48.221,-0.377,0.865,0.375
48.231,-0.377,0.869,0.379
48.241,-0.375,0.859,0.381
48.251,-0.377,0.873,0.377
48.261,-0.373,0.879,0.383
48.271,-0.373,0.867,0.383
48.281,-0.377,0.873,0.381
48.291,-0.375,0.867,0.379
48.301,-0.373,0.867,0.381
48.310,-0.371,0.867,0.381
48.320,-0.367,0.873,0.379
48.330,-0.369,0.869,0.381
48.340,-0.369,0.869,0.379
48.350,-0.369,0.869,0.381
48.360,-0.367,0.867,0.377
48.370,-0.369,0.867,0.381
48.380,-0.367,0.865,0.385
48.390,-0.371,0.867,0.381
48.400,-0.371,0.867,0.383
48.410,-0.371,0.865,0.381
48.420,-0.375,0.867,0.381
48.430,-0.377,0.867,0.379
48.440,-0.381,0.865,0.383
48.450,-0.381,0.867,0.377
48.460,-0.379,0.869,0.385
48.469,-0.377,0.869,0.381
48.479,-0.377,0.867,0.379
48.489,-0.377,0.865,0.379
48.499,-0.377,0.869,0.381
48.509,-0.375,0.867,0.381
48.519,-0.373,0.863,0.379
48.529,-0.375,0.867,0.381
48.539,-0.377,0.869,0.383
48.549,-0.379,0.873,0.385
48.559,-0.379,0.871,0.381
48.569,-0.377,0.865,0.381
48.579,-0.375,0.861,0.383
48.589,-0.373,0.861,0.381
48.599,-0.373,0.857,0.383
48.609,-0.371,0.859,0.383
48.618,-0.377,0.865,0.383
48.628,-0.379,0.869,0.385
48.638,-0.383,0.865,0.383
48.648,-0.379,0.865,0.381
48.658,-0.383,0.865,0.379
48.668,-0.381,0.865,0.383
48.678,-0.379,0.865,0.379
48.688,-0.379,0.867,0.381
48.698,-0.379,0.869,0.381
48.708,-0.379,0.865,0.381
48.718,-0.381,0.869,0.377
48.728,-0.387,0.867,0.377
48.738,-0.381,0.867,0.383
48.748,-0.383,0.871,0.379
48.758,-0.379,0.867,0.381
48.768,-0.375,0.867,0.383
48.777,-0.377,0.865,0.379
48.787,-0.369,0.863,0.381
48.797,-0.371,0.859,0.381
48.807,-0.369,0.869,0.387
48.817,-0.369,0.873,0.389
48.827,-0.373,0.863,0.381
48.837,-0.371,0.869,0.383
48.847,-0.373,0.869,0.381
48.857,-0.367,0.867,0.385
48.867,-0.371,0.877,0.383
48.877,-0.367,0.879,0.385
48.887,-0.369,0.867,0.383
48.897,-0.371,0.869,0.379
48.907,-0.377,0.867,0.381
48.917,-0.375,0.869,0.385
48.926,-0.375,0.871,0.387
48.936,-0.373,0.869,0.387
48.946,-0.375,0.869,0.383
48.956,-0.373,0.863,0.385
48.966,-0.375,0.861,0.379
48.976,-0.371,0.859,0.379
48.986,-0.371,0.861,0.385
48.996,-0.369,0.865,0.381
49.006,-0.365,0.865,0.383
49.016,-0.369,0.871,0.383
49.026,-0.371,0.877,0.391
49.036,-0.373,0.875,0.391
49.046,-0.375,0.877,0.391
49.056,-0.377,0.873,0.391
49.066,-0.375,0.869,0.389
49.075,-0.375,0.865,0.389
49.085,-0.375,0.857,0.387
49.095,-0.369,0.854,0.383
49.105,-0.369,0.865,0.393
49.115,-0.369,0.879,0.396
49.125,-0.369,0.869,0.395
49.135,-0.365,0.861,0.387
49.145,-0.365,0.865,0.387
49.155,-0.363,0.855,0.387
49.165,-0.367,0.863,0.387
49.175,-0.367,0.867,0.385
49.185,-0.369,0.871,0.387
49.195,-0.367,0.867,0.385
49.205,-0.363,0.867,0.381
49.215,-0.363,0.867,0.383
49.225,-0.361,0.867,0.377
49.234,-0.359,0.869,0.383
49.244,-0.361,0.869,0.385
49.254,-0.367,0.875,0.385
49.264,-0.363,0.879,0.385
49.274,-0.363,0.871,0.383
49.284,-0.367,0.875,0.379
49.294,-0.361,0.869,0.377
49.304,-0.359,0.869,0.379
49.314,-0.357,0.871,0.375
49.324,-0.359,0.867,0.373
49.334,-0.354,0.873,0.371
49.344,-0.352,0.869,0.371
49.354,-0.357,0.877,0.371
49.364,-0.357,0.877,0.373
49.374,-0.355,0.877,0.375
49.383,-0.357,0.883,0.373
49.393,-0.359,0.885,0.373
49.403,-0.355,0.881,0.371
49.413,-0.352,0.883,0.369
49.423,-0.352,0.879,0.367
49.433,-0.348,0.875,0.367
49.443,-0.352,0.881,0.367
49.453,-0.352,0.881,0.367
49.463,-0.357,0.883,0.371
49.473,-0.361,0.889,0.367
49.483,-0.361,0.881,0.367
49.493,-0.357,0.879,0.365
49.503,-0.361,0.879,0.367
49.513,-0.355,0.877,0.363
49.523,-0.352,0.873,0.369
49.533,-0.357,0.873,0.367
49.542,-0.355,0.871,0.365
49.552,-0.354,0.879,0.369
49.562,-0.363,0.883,0.367
49.572,-0.369,0.879,0.363
49.582,-0.375,0.883,0.369
49.592,-0.379,0.891,0.371
49.602,-0.375,0.869,0.367
49.612,-0.377,0.869,0.359
49.622,-0.371,0.871,0.367
49.632,-0.367,0.873,0.367
49.642,-0.359,0.889,0.377
49.652,-0.363,0.896,0.383
49.662,-0.371,0.881,0.381
49.672,-0.385,0.861,0.375
49.682,-0.385,0.855,0.369
49.691,-0.379,0.857,0.371
49.701,-0.379,0.859,0.375
49.711,-0.375,0.867,0.373
49.721,-0.371,0.867,0.373
49.731,-0.377,0.859,0.373
49.741,-0.383,0.869,0.373
49.751,-0.373,0.863,0.367
49.761,-0.371,0.861,0.367
49.771,-0.373,0.863,0.367
49.781,-0.365,0.869,0.365
49.791,-0.361,0.875,0.363
49.801,-0.365,0.875,0.363
49.811,-0.367,0.877,0.369
49.821,-0.361,0.881,0.371
49.831,-0.359,0.885,0.373
49.840,-0.359,0.883,0.371
49.850,-0.354,0.881,0.369
49.860,-0.348,0.879,0.365
49.870,-0.340,0.871,0.369
49.880,-0.342,0.883,0.371
49.890,-0.344,0.896,0.377
49.900,-0.346,0.885,0.371
49.910,-0.348,0.877,0.365
49.920,-0.350,0.875,0.369
49.930,-0.350,0.879,0.367
49.940,-0.355,0.881,0.369
49.950,-0.352,0.885,0.373
49.960,-0.346,0.883,0.373
49.970,-0.344,0.873,0.367
49.980,-0.346,0.883,0.367
49.990,-0.344,0.887,0.369
49.999,-0.344,0.879,0.361
50.009,-0.344,0.883,0.367
50.019,-0.344,0.889,0.371
50.029,-0.340,0.889,0.367
50.039,-0.344,0.885,0.367
50.049,-0.342,0.883,0.371
50.059,-0.342,0.883,0.369
50.069,-0.340,0.885,0.373
50.079,-0.344,0.885,0.369
50.089,-0.342,0.883,0.367
50.099,-0.336,0.875,0.363
50.109,-0.336,0.877,0.367
50.119,-0.338,0.885,0.369
50.129,-0.346,0.885,0.369
50.139,-0.352,0.883,0.365
50.148,-0.354,0.875,0.363
50.158,-0.354,0.877,0.361
50.168,-0.348,0.877,0.367
50.178,-0.352,0.879,0.371
50.188,-0.350,0.887,0.365
50.198,-0.350,0.881,0.369
50.208,-0.350,0.883,0.367
50.218,-0.357,0.883,0.369
50.228,-0.359,0.877,0.365
50.238,-0.361,0.881,0.367
50.248,-0.357,0.877,0.363
50.258,-0.359,0.875,0.367
50.268,-0.359,0.885,0.373
50.278,-0.359,0.877,0.371
50.288,-0.361,0.867,0.367
50.298,-0.359,0.877,0.371
50.307,-0.354,0.875,0.369
50.317,-0.354,0.869,0.371
50.327,-0.361,0.887,0.375
50.337,-0.361,0.891,0.367
50.347,-0.365,0.879,0.363
50.357,-0.369,0.869,0.363
50.367,-0.367,0.871,0.367
50.377,-0.367,0.877,0.373
50.387,-0.367,0.879,0.377
50.397,-0.367,0.875,0.373
50.407,-0.363,0.873,0.375
50.417,-0.363,0.867,0.373
50.427,-0.361,0.863,0.367
50.437,-0.363,0.859,0.363
50.447,-0.361,0.865,0.367
50.456,-0.363,0.871,0.369
50.466,-0.365,0.877,0.365
50.476,-0.371,0.877,0.367
50.486,-0.367,0.879,0.371
50.496,-0.369,0.879,0.369
50.506,-0.363,0.873,0.371
50.516,-0.363,0.881,0.369
50.526,-0.361,0.885,0.373
50.536,-0.359,0.877,0.369
50.546,-0.361,0.871,0.365
50.556,-0.354,0.867,0.365
50.566,-0.357,0.887,0.369
50.576,-0.365,0.887,0.371
50.586,-0.363,0.877,0.367
50.596,-0.363,0.873,0.367
50.605,-0.365,0.879,0.369
50.615,-0.363,0.877,0.363
50.625,-0.359,0.885,0.373
50.635,-0.359,0.885,0.371
50.645,-0.355,0.881,0.371
50.655,-0.354,0.877,0.371
50.665,-0.354,0.871,0.367
50.675,-0.357,0.873,0.367
50.685,-0.355,0.869,0.367
50.695,-0.352,0.859,0.367
50.705,-0.355,0.875,0.369
50.715,-0.355,0.883,0.371
50.725,-0.359,0.879,0.367
50.735,-0.363,0.877,0.367
50.745,-0.363,0.879,0.365
50.755,-0.361,0.877,0.367
50.764,-0.355,0.875,0.363
50.774,-0.361,0.881,0.367
50.784,-0.361,0.881,0.369
50.794,-0.359,0.879,0.367
50.804,-0.363,0.877,0.367
50.814,-0.363,0.879,0.369
50.824,-0.363,0.885,0.369
50.834,-0.363,0.883,0.369
50.844,-0.363,0.877,0.369
50.854,-0.363,0.877,0.365
50.864,-0.359,0.873,0.369
50.874,-0.357,0.877,0.373
50.884,-0.357,0.865,0.367
50.894,-0.357,0.852,0.363
50.904,-0.357,0.875,0.377
50.913,-0.359,0.881,0.381
50.923,-0.361,0.877,0.373
50.933,-0.369,0.883,0.375
50.943,-0.371,0.877,0.375
50.953,-0.373,0.861,0.371
50.963,-0.371,0.855,0.365
50.973,-0.371,0.873,0.371
50.983,-0.377,0.877,0.377
50.993,-0.375,0.877,0.377
51.003,-0.377,0.881,0.375
51.013,-0.373,0.875,0.377
51.023,-0.373,0.869,0.373
51.033,-0.377,0.863,0.371
51.043,-0.371,0.861,0.369
51.053,-0.367,0.865,0.375
51.063,-0.369,0.869,0.369
51.072,-0.367,0.869,0.369
51.082,-0.367,0.875,0.369
51.092,-0.371,0.879,0.371
51.102,-0.373,0.879,0.369
51.112,-0.373,0.877,0.371
51.122,-0.371,0.879,0.373
51.132,-0.367,0.881,0.373
51.142,-0.365,0.877,0.373
51.152,-0.371,0.873,0.369
51.162,-0.367,0.865,0.369
51.172,-0.365,0.875,0.371
51.182,-0.375,0.887,0.377
51.192,-0.377,0.873,0.365
51.202,-0.371,0.865,0.363
51.212,-0.371,0.869,0.369
51.221,-0.367,0.875,0.369
51.231,-0.365,0.879,0.373
51.241,-0.363,0.879,0.373
51.251,-0.355,0.873,0.371
51.261,-0.359,0.875,0.371
