df_hash,22ZHK4.2TBHGE
device,HZ2X61
project_hash,29R7
project_name,istanbul_aydin_university
person_hash,29R7.HAY6
person_label,V36
date_time_start,2025-10-27_12-32-17.207000_+03
date_time_start_unix,1761553937.207
date_time_end,2025-10-27_12-39-34.139000_+03
length_difference_noticed,no

time,acc_x,acc_y,acc_z
5.221,-0.518,0.875,-0.127
5.231,-0.512,0.873,-0.125
5.241,-0.514,0.873,-0.123
5.251,-0.512,0.871,-0.123
5.261,-0.512,0.871,-0.127
5.271,-0.514,0.877,-0.123
5.281,-0.512,0.869,-0.125
5.291,-0.514,0.875,-0.125
5.301,-0.514,0.877,-0.125
5.311,-0.512,0.875,-0.127
5.321,-0.512,0.871,-0.125
5.331,-0.512,0.871,-0.123
5.341,-0.512,0.875,-0.121
5.350,-0.512,0.877,-0.121
5.360,-0.510,0.873,-0.123
5.370,-0.512,0.871,-0.125
5.380,-0.518,0.871,-0.127
5.390,-0.518,0.873,-0.125
5.400,-0.518,0.879,-0.125
5.410,-0.518,0.877,-0.123
5.420,-0.518,0.877,-0.127
5.430,-0.512,0.877,-0.127
5.440,-0.514,0.875,-0.125
5.450,-0.508,0.871,-0.125
5.460,-0.510,0.873,-0.129
5.470,-0.510,0.875,-0.123
5.479,-0.516,0.875,-0.125
5.489,-0.514,0.875,-0.125
5.499,-0.514,0.873,-0.123
5.509,-0.514,0.873,-0.123
5.519,-0.516,0.873,-0.125
5.529,-0.514,0.875,-0.121
5.539,-0.512,0.871,-0.125
5.549,-0.518,0.871,-0.125
5.559,-0.518,0.871,-0.127
5.569,-0.514,0.871,-0.129
5.579,-0.516,0.873,-0.125
5.589,-0.514,0.871,-0.123
5.598,-0.514,0.873,-0.123
5.608,-0.514,0.869,-0.123
5.618,-0.508,0.869,-0.127
5.628,-0.508,0.875,-0.127
5.638,-0.510,0.879,-0.125
5.648,-0.512,0.873,-0.123
5.658,-0.510,0.873,-0.127
5.668,-0.512,0.877,-0.127
5.678,-0.514,0.877,-0.127
5.688,-0.514,0.881,-0.127
5.698,-0.510,0.879,-0.129
5.708,-0.512,0.879,-0.125
5.718,-0.514,0.875,-0.129
5.727,-0.514,0.875,-0.127
5.737,-0.514,0.869,-0.131
5.747,-0.516,0.871,-0.129
5.757,-0.516,0.873,-0.127
5.767,-0.516,0.873,-0.129
5.777,-0.516,0.873,-0.127
5.787,-0.514,0.875,-0.125
5.797,-0.514,0.873,-0.127
5.807,-0.516,0.869,-0.127
5.817,-0.514,0.875,-0.127
5.827,-0.512,0.879,-0.129
5.837,-0.518,0.875,-0.123
5.847,-0.514,0.875,-0.127
5.856,-0.514,0.873,-0.125
5.866,-0.512,0.875,-0.125
5.876,-0.514,0.875,-0.123
5.886,-0.512,0.873,-0.123
5.896,-0.514,0.871,-0.123
5.906,-0.516,0.875,-0.125
5.916,-0.516,0.871,-0.127
5.926,-0.518,0.873,-0.123
5.936,-0.516,0.871,-0.123
5.946,-0.518,0.871,-0.123
5.956,-0.518,0.871,-0.125
5.966,-0.516,0.871,-0.123
5.976,-0.516,0.875,-0.125
5.985,-0.516,0.877,-0.125
5.995,-0.514,0.875,-0.123
6.005,-0.514,0.877,-0.123
6.015,-0.514,0.879,-0.125
6.025,-0.512,0.877,-0.125
6.035,-0.508,0.871,-0.123
6.045,-0.510,0.873,-0.127
6.055,-0.506,0.875,-0.125
6.065,-0.510,0.875,-0.123
6.075,-0.514,0.873,-0.123
6.085,-0.514,0.875,-0.129
6.095,-0.514,0.873,-0.129
6.105,-0.512,0.873,-0.123
6.114,-0.516,0.877,-0.129
6.124,-0.514,0.873,-0.125
6.134,-0.514,0.873,-0.127
6.144,-0.514,0.871,-0.125
6.154,-0.510,0.871,-0.129
6.164,-0.510,0.875,-0.127
6.174,-0.510,0.879,-0.125
6.184,-0.512,0.877,-0.127
6.194,-0.512,0.877,-0.131
6.204,-0.514,0.875,-0.129
6.214,-0.510,0.871,-0.129
6.224,-0.510,0.871,-0.125
6.234,-0.510,0.875,-0.129
6.243,-0.510,0.879,-0.127
6.253,-0.512,0.881,-0.127
6.263,-0.514,0.877,-0.127
6.273,-0.514,0.875,-0.125
6.283,-0.518,0.875,-0.127
6.293,-0.518,0.877,-0.125
6.303,-0.516,0.875,-0.127
6.313,-0.514,0.879,-0.123
6.323,-0.512,0.875,-0.125
6.333,-0.510,0.871,-0.125
6.343,-0.508,0.871,-0.123
6.353,-0.510,0.871,-0.127
6.362,-0.510,0.871,-0.125
6.372,-0.510,0.875,-0.121
6.382,-0.516,0.873,-0.123
6.392,-0.514,0.873,-0.123
6.402,-0.518,0.873,-0.125
6.412,-0.516,0.877,-0.121
6.422,-0.516,0.873,-0.123
6.432,-0.518,0.873,-0.123
6.442,-0.514,0.871,-0.121
6.452,-0.514,0.875,-0.125
6.462,-0.514,0.873,-0.125
6.472,-0.516,0.875,-0.121
6.482,-0.510,0.875,-0.123
6.491,-0.516,0.875,-0.123
6.501,-0.516,0.871,-0.121
6.511,-0.512,0.873,-0.123
6.521,-0.508,0.879,-0.121
6.531,-0.512,0.879,-0.123
6.541,-0.506,0.869,-0.121
6.551,-0.508,0.873,-0.127
6.561,-0.516,0.877,-0.125
6.571,-0.516,0.875,-0.129
6.581,-0.516,0.879,-0.127
6.591,-0.514,0.881,-0.125
6.601,-0.516,0.877,-0.127
6.611,-0.512,0.871,-0.125
6.620,-0.512,0.875,-0.125
6.630,-0.510,0.871,-0.127
6.640,-0.508,0.873,-0.121
6.650,-0.512,0.871,-0.125
6.660,-0.510,0.871,-0.125
6.670,-0.508,0.873,-0.127
6.680,-0.510,0.875,-0.127
6.690,-0.510,0.875,-0.129
6.700,-0.512,0.875,-0.127
6.710,-0.514,0.875,-0.127
6.720,-0.514,0.877,-0.125
6.730,-0.516,0.877,-0.129
6.740,-0.514,0.875,-0.127
6.749,-0.510,0.877,-0.125
6.759,-0.508,0.877,-0.125
6.769,-0.512,0.877,-0.127
6.779,-0.510,0.875,-0.125
6.789,-0.512,0.875,-0.125
6.799,-0.510,0.877,-0.123
6.809,-0.512,0.877,-0.125
6.819,-0.514,0.877,-0.121
6.829,-0.512,0.877,-0.125
6.839,-0.514,0.875,-0.123
6.849,-0.514,0.871,-0.121
6.859,-0.518,0.875,-0.121
6.869,-0.514,0.873,-0.123
6.878,-0.514,0.871,-0.121
6.888,-0.514,0.875,-0.121
6.898,-0.514,0.875,-0.119
6.908,-0.514,0.875,-0.121
6.918,-0.514,0.873,-0.119
6.928,-0.510,0.873,-0.121
6.938,-0.512,0.873,-0.123
6.948,-0.516,0.877,-0.123
6.958,-0.512,0.873,-0.121
6.968,-0.512,0.875,-0.121
6.978,-0.516,0.875,-0.123
6.988,-0.512,0.877,-0.123
6.998,-0.516,0.875,-0.123
7.007,-0.514,0.873,-0.123
7.017,-0.514,0.877,-0.123
7.027,-0.510,0.875,-0.123
7.037,-0.506,0.871,-0.123
7.047,-0.512,0.875,-0.123
7.057,-0.508,0.881,-0.127
7.067,-0.508,0.881,-0.127
7.077,-0.508,0.877,-0.125
7.087,-0.512,0.873,-0.127
7.097,-0.514,0.879,-0.129
7.107,-0.516,0.879,-0.127
7.117,-0.512,0.881,-0.127
7.126,-0.510,0.879,-0.127
7.136,-0.512,0.875,-0.127
7.146,-0.506,0.875,-0.123
7.156,-0.506,0.873,-0.123
7.166,-0.508,0.873,-0.123
7.176,-0.512,0.873,-0.127
7.186,-0.510,0.877,-0.125
7.196,-0.512,0.875,-0.129
7.206,-0.514,0.875,-0.125
7.216,-0.516,0.877,-0.123
7.226,-0.514,0.877,-0.127
7.236,-0.512,0.873,-0.125
7.246,-0.514,0.875,-0.127
7.255,-0.512,0.873,-0.125
7.265,-0.510,0.873,-0.125
7.275,-0.512,0.875,-0.125
7.285,-0.512,0.875,-0.123
7.295,-0.514,0.873,-0.123
7.305,-0.512,0.871,-0.123
7.315,-0.510,0.877,-0.127
7.325,-0.510,0.881,-0.121
7.335,-0.510,0.879,-0.123
7.345,-0.508,0.869,-0.125
7.355,-0.510,0.871,-0.123
7.365,-0.512,0.873,-0.123
7.375,-0.512,0.879,-0.123
7.384,-0.512,0.873,-0.125
7.394,-0.514,0.879,-0.127
7.404,-0.514,0.877,-0.123
7.414,-0.514,0.875,-0.125
7.424,-0.512,0.873,-0.127
7.434,-0.510,0.873,-0.125
7.444,-0.508,0.875,-0.123
7.454,-0.510,0.875,-0.123
7.464,-0.508,0.877,-0.127
7.474,-0.510,0.877,-0.131
7.484,-0.510,0.877,-0.127
7.494,-0.510,0.879,-0.123
7.504,-0.508,0.877,-0.125
7.513,-0.508,0.877,-0.127
7.523,-0.510,0.875,-0.129
7.533,-0.510,0.877,-0.127
7.543,-0.510,0.877,-0.129
7.553,-0.508,0.875,-0.127
7.563,-0.510,0.873,-0.129
7.573,-0.508,0.875,-0.127
7.583,-0.514,0.877,-0.125
7.593,-0.512,0.879,-0.127
7.603,-0.512,0.877,-0.131
7.613,-0.508,0.877,-0.125
7.623,-0.510,0.877,-0.125
7.633,-0.510,0.875,-0.121
7.642,-0.508,0.875,-0.125
7.652,-0.508,0.879,-0.125
7.662,-0.510,0.877,-0.125
7.672,-0.508,0.875,-0.123
7.682,-0.510,0.879,-0.125
7.692,-0.510,0.875,-0.125
7.702,-0.510,0.877,-0.123
7.712,-0.510,0.877,-0.127
7.722,-0.506,0.877,-0.125
7.732,-0.510,0.875,-0.125
7.742,-0.506,0.875,-0.123
7.752,-0.510,0.873,-0.125
7.762,-0.506,0.875,-0.125
7.771,-0.510,0.875,-0.125
7.781,-0.510,0.871,-0.125
7.791,-0.508,0.875,-0.125
7.801,-0.510,0.881,-0.127
7.811,-0.510,0.881,-0.127
7.821,-0.510,0.877,-0.129
7.831,-0.512,0.881,-0.127
7.841,-0.512,0.881,-0.127
7.851,-0.510,0.875,-0.123
7.861,-0.506,0.873,-0.123
7.871,-0.506,0.877,-0.123
7.881,-0.504,0.879,-0.121
7.890,-0.508,0.879,-0.121
7.900,-0.510,0.871,-0.123
7.910,-0.512,0.873,-0.121
7.920,-0.514,0.873,-0.125
7.930,-0.514,0.879,-0.125
7.940,-0.512,0.877,-0.127
7.950,-0.512,0.877,-0.125
7.960,-0.512,0.875,-0.125
7.970,-0.510,0.875,-0.125
7.980,-0.508,0.873,-0.125
7.990,-0.508,0.877,-0.125
8.000,-0.508,0.879,-0.123
8.010,-0.510,0.877,-0.125
8.019,-0.508,0.877,-0.125
8.029,-0.512,0.875,-0.125
8.039,-0.510,0.879,-0.125
8.049,-0.512,0.877,-0.127
8.059,-0.512,0.875,-0.127
8.069,-0.510,0.879,-0.123
8.079,-0.508,0.875,-0.127
8.089,-0.508,0.875,-0.127
8.099,-0.508,0.879,-0.123
8.109,-0.510,0.875,-0.125
8.119,-0.508,0.877,-0.125
8.129,-0.510,0.873,-0.123
8.139,-0.508,0.875,-0.123
8.148,-0.506,0.881,-0.123
8.158,-0.510,0.883,-0.125
8.168,-0.508,0.877,-0.125
8.178,-0.504,0.871,-0.125
8.188,-0.508,0.875,-0.125
8.198,-0.506,0.881,-0.125
8.208,-0.508,0.879,-0.125
8.218,-0.510,0.881,-0.127
8.228,-0.510,0.883,-0.125
8.238,-0.506,0.881,-0.125
8.248,-0.506,0.877,-0.129
8.258,-0.504,0.877,-0.127
8.268,-0.506,0.875,-0.129
8.277,-0.510,0.879,-0.127
8.287,-0.512,0.875,-0.127
8.297,-0.508,0.873,-0.125
8.307,-0.510,0.875,-0.125
8.317,-0.508,0.879,-0.125
8.327,-0.510,0.877,-0.127
8.337,-0.510,0.877,-0.131
8.347,-0.510,0.877,-0.127
8.357,-0.508,0.879,-0.125
8.367,-0.508,0.879,-0.125
8.377,-0.508,0.879,-0.123
8.387,-0.508,0.881,-0.129
8.397,-0.508,0.879,-0.127
8.406,-0.506,0.877,-0.123
8.416,-0.508,0.879,-0.127
8.426,-0.506,0.879,-0.123
8.436,-0.506,0.877,-0.125
8.446,-0.512,0.875,-0.125
8.456,-0.508,0.877,-0.123
8.466,-0.510,0.875,-0.123
8.476,-0.506,0.875,-0.119
8.486,-0.508,0.875,-0.123
8.496,-0.510,0.875,-0.123
8.506,-0.504,0.877,-0.121
8.516,-0.506,0.875,-0.123
8.526,-0.504,0.877,-0.125
8.535,-0.504,0.881,-0.121
8.545,-0.506,0.879,-0.125
8.555,-0.504,0.879,-0.125
8.565,-0.504,0.881,-0.125
8.575,-0.504,0.879,-0.127
8.585,-0.504,0.881,-0.125
8.595,-0.502,0.877,-0.125
8.605,-0.510,0.879,-0.123
8.615,-0.508,0.881,-0.127
8.625,-0.508,0.877,-0.125
8.635,-0.508,0.877,-0.131
8.645,-0.508,0.877,-0.127
8.654,-0.508,0.879,-0.125
8.664,-0.508,0.879,-0.129
8.674,-0.512,0.879,-0.129
8.684,-0.510,0.885,-0.127
8.694,-0.512,0.883,-0.125
8.704,-0.506,0.875,-0.129
8.714,-0.508,0.877,-0.127
8.724,-0.506,0.877,-0.127
8.734,-0.504,0.877,-0.127
8.744,-0.504,0.877,-0.125
8.754,-0.508,0.877,-0.131
8.764,-0.510,0.877,-0.127
8.774,-0.512,0.881,-0.125
8.783,-0.508,0.881,-0.127
8.793,-0.506,0.879,-0.127
8.803,-0.506,0.881,-0.129
8.813,-0.502,0.879,-0.127
8.823,-0.502,0.877,-0.127
8.833,-0.506,0.879,-0.125
8.843,-0.506,0.877,-0.125
8.853,-0.506,0.875,-0.123
8.863,-0.504,0.877,-0.127
8.873,-0.510,0.883,-0.127
8.883,-0.508,0.877,-0.123
8.893,-0.508,0.881,-0.123
8.903,-0.508,0.877,-0.121
8.912,-0.508,0.877,-0.123
8.922,-0.512,0.875,-0.127
8.932,-0.506,0.879,-0.123
8.942,-0.506,0.879,-0.125
8.952,-0.506,0.879,-0.123
8.962,-0.506,0.875,-0.121
8.972,-0.506,0.877,-0.123
8.982,-0.508,0.877,-0.123
8.992,-0.502,0.873,-0.125
9.002,-0.506,0.881,-0.121
9.012,-0.508,0.881,-0.123
9.022,-0.506,0.875,-0.123
9.032,-0.502,0.873,-0.123
9.041,-0.510,0.875,-0.121
9.051,-0.512,0.877,-0.123
9.061,-0.508,0.879,-0.125
9.071,-0.510,0.881,-0.121
9.081,-0.510,0.879,-0.125
9.091,-0.506,0.877,-0.123
9.101,-0.508,0.879,-0.123
9.111,-0.504,0.873,-0.123
9.121,-0.506,0.877,-0.123
9.131,-0.506,0.879,-0.125
9.141,-0.506,0.877,-0.129
9.151,-0.508,0.877,-0.127
9.161,-0.508,0.875,-0.127
9.170,-0.510,0.879,-0.129
9.180,-0.508,0.877,-0.123
9.190,-0.512,0.875,-0.127
9.200,-0.510,0.875,-0.129
9.210,-0.508,0.877,-0.129
9.220,-0.510,0.875,-0.127
9.230,-0.512,0.879,-0.131
9.240,-0.508,0.879,-0.129
9.250,-0.512,0.879,-0.131
9.260,-0.506,0.877,-0.125
9.270,-0.508,0.877,-0.125
9.280,-0.508,0.879,-0.127
9.290,-0.506,0.879,-0.127
9.299,-0.504,0.881,-0.129
9.309,-0.506,0.877,-0.125
9.319,-0.504,0.879,-0.127
9.329,-0.508,0.877,-0.125
9.339,-0.508,0.879,-0.125
9.349,-0.508,0.877,-0.123
9.359,-0.504,0.879,-0.127
9.369,-0.502,0.879,-0.125
9.379,-0.502,0.877,-0.123
9.389,-0.504,0.881,-0.125
9.399,-0.500,0.879,-0.123
9.409,-0.506,0.877,-0.125
9.418,-0.502,0.877,-0.123
9.428,-0.504,0.877,-0.119
9.438,-0.504,0.879,-0.121
9.448,-0.504,0.879,-0.125
9.458,-0.504,0.879,-0.123
9.468,-0.504,0.881,-0.125
9.478,-0.508,0.877,-0.125
9.488,-0.506,0.881,-0.125
9.498,-0.504,0.877,-0.125
9.508,-0.506,0.877,-0.127
9.518,-0.506,0.883,-0.125
9.528,-0.510,0.881,-0.127
9.538,-0.508,0.875,-0.125
9.547,-0.506,0.879,-0.125
9.557,-0.506,0.877,-0.123
9.567,-0.504,0.875,-0.121
9.577,-0.500,0.875,-0.123
9.587,-0.498,0.879,-0.121
9.597,-0.504,0.883,-0.125
9.607,-0.506,0.881,-0.125
9.617,-0.508,0.879,-0.131
9.627,-0.512,0.879,-0.127
9.637,-0.510,0.881,-0.127
9.647,-0.510,0.881,-0.125
9.657,-0.508,0.881,-0.123
9.667,-0.508,0.881,-0.125
9.676,-0.508,0.879,-0.125
9.686,-0.502,0.881,-0.125
9.696,-0.502,0.879,-0.121
9.706,-0.502,0.873,-0.123
9.716,-0.506,0.877,-0.121
9.726,-0.506,0.877,-0.123
9.736,-0.504,0.879,-0.125
9.746,-0.506,0.877,-0.125
9.756,-0.510,0.877,-0.123
9.766,-0.510,0.879,-0.121
9.776,-0.504,0.877,-0.123
9.786,-0.506,0.877,-0.123
9.796,-0.506,0.877,-0.125
9.805,-0.502,0.877,-0.121
9.815,-0.502,0.877,-0.123
9.825,-0.504,0.879,-0.123
9.835,-0.504,0.881,-0.123
9.845,-0.504,0.875,-0.123
9.855,-0.504,0.877,-0.123
9.865,-0.504,0.881,-0.121
9.875,-0.506,0.881,-0.123
9.885,-0.502,0.875,-0.127
9.895,-0.498,0.875,-0.123
9.905,-0.502,0.883,-0.121
9.915,-0.504,0.881,-0.121
9.925,-0.504,0.883,-0.125
9.934,-0.504,0.885,-0.121
9.944,-0.504,0.883,-0.119
9.954,-0.504,0.881,-0.125
9.964,-0.502,0.877,-0.123
9.974,-0.500,0.877,-0.123
9.984,-0.502,0.875,-0.125
9.994,-0.502,0.875,-0.125
10.004,-0.502,0.877,-0.123
10.014,-0.502,0.879,-0.125
10.024,-0.504,0.883,-0.125
10.034,-0.504,0.881,-0.127
10.044,-0.504,0.881,-0.129
10.054,-0.502,0.883,-0.129
10.063,-0.506,0.883,-0.125
10.073,-0.504,0.879,-0.127
10.083,-0.504,0.879,-0.127
10.093,-0.504,0.879,-0.125
10.103,-0.504,0.881,-0.125
10.113,-0.502,0.879,-0.123
10.123,-0.506,0.881,-0.125
10.133,-0.504,0.879,-0.125
10.143,-0.500,0.883,-0.125
10.153,-0.504,0.883,-0.121
10.163,-0.500,0.881,-0.123
10.173,-0.498,0.883,-0.121
10.182,-0.498,0.881,-0.121
10.192,-0.502,0.879,-0.121
10.202,-0.500,0.879,-0.121
10.212,-0.500,0.877,-0.123
10.222,-0.502,0.877,-0.121
10.232,-0.506,0.881,-0.123
10.242,-0.504,0.879,-0.123
10.252,-0.506,0.879,-0.123
10.262,-0.504,0.883,-0.121
10.272,-0.502,0.879,-0.121
10.282,-0.502,0.881,-0.125
10.292,-0.502,0.881,-0.121
10.302,-0.500,0.879,-0.121
10.311,-0.498,0.881,-0.121
10.321,-0.500,0.881,-0.125
10.331,-0.502,0.879,-0.123
10.341,-0.500,0.879,-0.121
10.351,-0.500,0.877,-0.123
10.361,-0.504,0.885,-0.123
10.371,-0.498,0.881,-0.123
10.381,-0.496,0.877,-0.127
10.391,-0.500,0.885,-0.123
10.401,-0.502,0.887,-0.123
10.411,-0.504,0.883,-0.125
10.421,-0.502,0.883,-0.125
10.431,-0.506,0.881,-0.127
10.440,-0.506,0.883,-0.125
10.450,-0.506,0.885,-0.127
10.460,-0.502,0.885,-0.123
10.470,-0.500,0.885,-0.125
10.480,-0.496,0.881,-0.121
10.490,-0.498,0.877,-0.123
10.500,-0.498,0.877,-0.123
10.510,-0.496,0.879,-0.125
10.520,-0.500,0.883,-0.123
10.530,-0.502,0.883,-0.125
10.540,-0.500,0.881,-0.123
10.550,-0.502,0.883,-0.123
10.560,-0.502,0.883,-0.125
10.569,-0.500,0.881,-0.123
10.579,-0.504,0.881,-0.127
10.589,-0.502,0.881,-0.125
10.599,-0.502,0.879,-0.121
10.609,-0.502,0.883,-0.123
10.619,-0.500,0.883,-0.123
10.629,-0.500,0.883,-0.121
10.639,-0.498,0.879,-0.123
10.649,-0.496,0.879,-0.121
10.659,-0.498,0.889,-0.119
10.669,-0.502,0.889,-0.125
10.679,-0.496,0.877,-0.119
10.689,-0.500,0.875,-0.123
10.698,-0.500,0.881,-0.123
10.708,-0.502,0.881,-0.121
10.718,-0.504,0.883,-0.125
10.728,-0.500,0.885,-0.121
10.738,-0.502,0.885,-0.125
10.748,-0.500,0.883,-0.123
10.758,-0.498,0.879,-0.127
10.768,-0.500,0.877,-0.125
10.778,-0.496,0.879,-0.125
10.788,-0.498,0.879,-0.125
10.798,-0.496,0.883,-0.129
10.808,-0.498,0.883,-0.125
10.818,-0.500,0.883,-0.129
10.827,-0.498,0.885,-0.131
10.837,-0.502,0.883,-0.127
10.847,-0.502,0.887,-0.127
10.857,-0.498,0.885,-0.125
10.867,-0.500,0.881,-0.129
10.877,-0.500,0.883,-0.131
10.887,-0.500,0.885,-0.125
10.897,-0.500,0.881,-0.127
10.907,-0.498,0.883,-0.127
10.917,-0.498,0.881,-0.127
10.927,-0.496,0.881,-0.129
10.937,-0.498,0.883,-0.125
10.946,-0.496,0.881,-0.123
10.956,-0.500,0.879,-0.127
10.966,-0.498,0.883,-0.123
10.976,-0.496,0.881,-0.123
10.986,-0.498,0.885,-0.125
10.996,-0.502,0.881,-0.127
11.006,-0.498,0.883,-0.125
11.016,-0.496,0.885,-0.125
11.026,-0.498,0.883,-0.125
11.036,-0.494,0.879,-0.123
11.046,-0.498,0.881,-0.127
11.056,-0.496,0.881,-0.123
11.066,-0.494,0.879,-0.125
11.075,-0.498,0.887,-0.123
11.085,-0.496,0.887,-0.125
11.095,-0.494,0.881,-0.127
11.105,-0.494,0.883,-0.123
11.115,-0.490,0.889,-0.123
11.125,-0.492,0.883,-0.123
11.135,-0.492,0.877,-0.125
11.145,-0.492,0.881,-0.125
11.155,-0.498,0.889,-0.125
11.165,-0.496,0.885,-0.127
11.175,-0.494,0.881,-0.127
11.185,-0.500,0.881,-0.129
11.195,-0.504,0.883,-0.125
11.204,-0.502,0.887,-0.123
11.214,-0.500,0.885,-0.127
11.224,-0.500,0.889,-0.127
11.234,-0.496,0.883,-0.127
11.244,-0.498,0.879,-0.127
11.254,-0.498,0.879,-0.125
11.264,-0.498,0.879,-0.125
11.274,-0.498,0.883,-0.125
11.284,-0.500,0.883,-0.125
11.294,-0.500,0.883,-0.127
11.304,-0.498,0.879,-0.123
11.314,-0.502,0.881,-0.125
11.324,-0.500,0.879,-0.125
11.333,-0.500,0.881,-0.127
11.343,-0.500,0.881,-0.125
11.353,-0.500,0.881,-0.125
11.363,-0.498,0.881,-0.125
11.373,-0.498,0.881,-0.125
11.383,-0.500,0.883,-0.127
11.393,-0.496,0.883,-0.123
11.403,-0.496,0.881,-0.123
11.413,-0.498,0.877,-0.121
11.423,-0.494,0.887,-0.123
11.433,-0.496,0.889,-0.125
11.443,-0.496,0.879,-0.125
11.453,-0.492,0.875,-0.127
11.462,-0.496,0.883,-0.125
11.472,-0.494,0.887,-0.127
11.482,-0.492,0.883,-0.125
11.492,-0.498,0.885,-0.125
11.502,-0.496,0.883,-0.127
11.512,-0.496,0.885,-0.127
11.522,-0.494,0.885,-0.125
11.532,-0.498,0.881,-0.125
11.542,-0.494,0.883,-0.127
11.552,-0.498,0.883,-0.129
11.562,-0.496,0.883,-0.127
11.572,-0.496,0.883,-0.127
11.582,-0.494,0.879,-0.127
11.591,-0.494,0.883,-0.131
11.601,-0.498,0.883,-0.127
11.611,-0.494,0.885,-0.127
11.621,-0.496,0.883,-0.125
11.631,-0.498,0.885,-0.127
11.641,-0.496,0.885,-0.127
11.651,-0.496,0.885,-0.127
11.661,-0.498,0.883,-0.127
11.671,-0.498,0.883,-0.129
11.681,-0.500,0.881,-0.129
11.691,-0.498,0.885,-0.127
11.701,-0.498,0.881,-0.125
11.710,-0.496,0.885,-0.127
11.720,-0.498,0.881,-0.125
11.730,-0.498,0.883,-0.125
11.740,-0.496,0.881,-0.123
11.750,-0.498,0.881,-0.123
11.760,-0.496,0.883,-0.123
11.770,-0.498,0.883,-0.123
11.780,-0.498,0.883,-0.123
11.790,-0.502,0.885,-0.127
11.800,-0.500,0.883,-0.121
11.810,-0.498,0.881,-0.121
11.820,-0.498,0.883,-0.127
11.830,-0.500,0.879,-0.121
11.839,-0.498,0.881,-0.123
11.849,-0.498,0.883,-0.127
11.859,-0.500,0.883,-0.125
11.869,-0.498,0.887,-0.125
11.879,-0.500,0.883,-0.125
11.889,-0.498,0.883,-0.127
11.899,-0.498,0.885,-0.127
11.909,-0.496,0.883,-0.121
11.919,-0.496,0.883,-0.121
11.929,-0.496,0.881,-0.123
11.939,-0.496,0.887,-0.121
11.949,-0.494,0.885,-0.121
11.959,-0.498,0.881,-0.123
11.968,-0.500,0.881,-0.123
11.978,-0.502,0.885,-0.125
11.988,-0.506,0.885,-0.123
11.998,-0.502,0.887,-0.121
12.008,-0.500,0.883,-0.121
12.018,-0.498,0.883,-0.129
12.028,-0.500,0.879,-0.123
12.038,-0.498,0.881,-0.125
12.048,-0.494,0.881,-0.123
12.058,-0.498,0.881,-0.123
12.068,-0.498,0.883,-0.125
12.078,-0.496,0.885,-0.125
12.088,-0.498,0.883,-0.123
12.097,-0.498,0.881,-0.125
12.107,-0.500,0.883,-0.127
12.117,-0.500,0.881,-0.121
12.127,-0.502,0.881,-0.125
12.137,-0.500,0.881,-0.123
12.147,-0.500,0.879,-0.125
12.157,-0.498,0.879,-0.125
12.167,-0.498,0.881,-0.121
12.177,-0.498,0.885,-0.125
12.187,-0.500,0.881,-0.125
12.197,-0.496,0.881,-0.123
12.207,-0.498,0.887,-0.125
12.217,-0.494,0.891,-0.123
12.226,-0.494,0.887,-0.125
12.236,-0.492,0.877,-0.123
12.246,-0.494,0.881,-0.125
12.256,-0.500,0.887,-0.123
12.266,-0.502,0.883,-0.127
12.276,-0.500,0.885,-0.123
12.286,-0.500,0.887,-0.125
12.296,-0.500,0.883,-0.127
12.306,-0.496,0.881,-0.125
12.316,-0.496,0.877,-0.123
12.326,-0.498,0.883,-0.127
12.336,-0.500,0.881,-0.125
12.346,-0.498,0.881,-0.125
12.355,-0.496,0.881,-0.127
12.365,-0.496,0.883,-0.127
12.375,-0.496,0.881,-0.125
12.385,-0.498,0.885,-0.127
12.395,-0.500,0.883,-0.125
12.405,-0.504,0.883,-0.125
12.415,-0.502,0.881,-0.129
12.425,-0.502,0.885,-0.127
12.435,-0.502,0.885,-0.125
12.445,-0.502,0.885,-0.127
12.455,-0.498,0.881,-0.123
12.465,-0.496,0.879,-0.123
12.474,-0.498,0.881,-0.123
12.484,-0.498,0.883,-0.123
12.494,-0.500,0.881,-0.123
12.504,-0.502,0.883,-0.123
12.514,-0.500,0.883,-0.125
12.524,-0.502,0.881,-0.125
12.534,-0.500,0.881,-0.123
12.544,-0.502,0.879,-0.125
12.554,-0.500,0.883,-0.127
12.564,-0.500,0.883,-0.123
12.574,-0.500,0.881,-0.123
12.584,-0.500,0.883,-0.123
12.594,-0.496,0.881,-0.123
12.603,-0.500,0.883,-0.123
12.613,-0.498,0.883,-0.125
12.623,-0.500,0.883,-0.125
12.633,-0.500,0.883,-0.125
12.643,-0.498,0.881,-0.123
12.653,-0.500,0.881,-0.127
12.663,-0.498,0.881,-0.123
12.673,-0.496,0.879,-0.123
12.683,-0.496,0.885,-0.125
12.693,-0.500,0.887,-0.129
12.703,-0.496,0.883,-0.123
12.713,-0.498,0.883,-0.123
12.723,-0.504,0.885,-0.125
12.732,-0.500,0.881,-0.129
12.742,-0.498,0.881,-0.125
12.752,-0.496,0.883,-0.125
12.762,-0.498,0.881,-0.125
12.772,-0.498,0.883,-0.123
12.782,-0.498,0.885,-0.125
12.792,-0.502,0.883,-0.125
12.802,-0.502,0.883,-0.123
12.812,-0.500,0.883,-0.123
12.822,-0.502,0.889,-0.121
12.832,-0.504,0.885,-0.121
12.842,-0.502,0.881,-0.123
12.852,-0.502,0.881,-0.123
12.861,-0.500,0.881,-0.125
12.871,-0.496,0.877,-0.121
12.881,-0.496,0.881,-0.123
12.891,-0.496,0.883,-0.125
12.901,-0.496,0.881,-0.123
12.911,-0.498,0.883,-0.123
12.921,-0.498,0.881,-0.119
12.931,-0.502,0.885,-0.123
12.941,-0.502,0.881,-0.125
12.951,-0.502,0.877,-0.121
12.961,-0.500,0.879,-0.119
12.971,-0.504,0.881,-0.121
12.981,-0.500,0.883,-0.125
12.990,-0.498,0.881,-0.123
13.000,-0.498,0.881,-0.125
13.010,-0.498,0.879,-0.121
13.020,-0.496,0.879,-0.119
13.030,-0.494,0.885,-0.123
13.040,-0.496,0.887,-0.119
13.050,-0.496,0.883,-0.121
13.060,-0.492,0.879,-0.119
13.070,-0.500,0.883,-0.125
13.080,-0.498,0.885,-0.121
13.090,-0.502,0.887,-0.121
13.100,-0.502,0.887,-0.121
13.110,-0.500,0.885,-0.123
13.119,-0.498,0.885,-0.127
13.129,-0.500,0.883,-0.121
13.139,-0.496,0.879,-0.123
13.149,-0.494,0.881,-0.121
13.159,-0.492,0.881,-0.125
13.169,-0.494,0.881,-0.125
13.179,-0.492,0.885,-0.121
13.189,-0.494,0.885,-0.125
13.199,-0.496,0.885,-0.125
13.209,-0.498,0.885,-0.123
13.219,-0.498,0.883,-0.129
13.229,-0.498,0.885,-0.127
13.238,-0.496,0.883,-0.125
13.248,-0.496,0.887,-0.125
13.258,-0.494,0.885,-0.125
13.268,-0.500,0.887,-0.123
13.278,-0.498,0.885,-0.127
13.288,-0.496,0.883,-0.127
13.298,-0.494,0.883,-0.123
13.308,-0.496,0.885,-0.125
13.318,-0.494,0.883,-0.125
13.328,-0.498,0.883,-0.121
13.338,-0.496,0.887,-0.123
13.348,-0.492,0.883,-0.121
13.358,-0.498,0.883,-0.119
13.367,-0.496,0.883,-0.121
13.377,-0.496,0.885,-0.123
13.387,-0.498,0.883,-0.123
13.397,-0.500,0.883,-0.123
13.407,-0.500,0.885,-0.121
13.417,-0.496,0.885,-0.121
13.427,-0.496,0.883,-0.121
13.437,-0.492,0.881,-0.121
13.447,-0.492,0.885,-0.119
13.457,-0.494,0.887,-0.119
13.467,-0.488,0.885,-0.121
13.477,-0.492,0.885,-0.121
13.487,-0.492,0.883,-0.119
13.496,-0.494,0.889,-0.119
13.506,-0.492,0.883,-0.123
13.516,-0.492,0.881,-0.123
13.526,-0.498,0.887,-0.121
13.536,-0.498,0.889,-0.125
13.546,-0.496,0.885,-0.121
13.556,-0.494,0.885,-0.127
13.566,-0.498,0.883,-0.123
13.576,-0.498,0.887,-0.123
13.586,-0.496,0.885,-0.121
13.596,-0.496,0.891,-0.127
13.606,-0.492,0.889,-0.127
13.616,-0.490,0.881,-0.123
13.625,-0.492,0.883,-0.123
13.635,-0.488,0.879,-0.125
13.645,-0.490,0.879,-0.123
13.655,-0.494,0.881,-0.123
13.665,-0.494,0.885,-0.123
13.675,-0.494,0.885,-0.125
13.685,-0.494,0.887,-0.125
13.695,-0.498,0.885,-0.127
13.705,-0.496,0.885,-0.125
13.715,-0.498,0.885,-0.123
13.725,-0.496,0.881,-0.125
13.735,-0.496,0.883,-0.125
13.745,-0.496,0.881,-0.123
13.754,-0.496,0.885,-0.123
13.764,-0.494,0.887,-0.123
13.774,-0.494,0.879,-0.125
13.784,-0.494,0.885,-0.125
13.794,-0.490,0.891,-0.119
13.804,-0.492,0.895,-0.121
13.814,-0.488,0.881,-0.123
13.824,-0.488,0.877,-0.123
13.834,-0.488,0.883,-0.121
13.844,-0.492,0.885,-0.123
13.854,-0.494,0.887,-0.125
13.864,-0.496,0.889,-0.123
13.874,-0.496,0.891,-0.123
13.883,-0.496,0.887,-0.123
13.893,-0.496,0.885,-0.127
13.903,-0.492,0.883,-0.123
13.913,-0.492,0.883,-0.127
13.923,-0.490,0.885,-0.123
13.933,-0.490,0.885,-0.125
13.943,-0.490,0.885,-0.121
13.953,-0.492,0.889,-0.123
13.963,-0.494,0.885,-0.127
13.973,-0.494,0.885,-0.125
13.983,-0.496,0.883,-0.123
13.993,-0.496,0.883,-0.125
14.002,-0.498,0.887,-0.125
14.012,-0.496,0.887,-0.127
14.022,-0.496,0.885,-0.127
14.032,-0.498,0.883,-0.125
14.042,-0.496,0.887,-0.123
14.052,-0.494,0.887,-0.123
14.062,-0.492,0.883,-0.123
14.072,-0.494,0.885,-0.125
14.082,-0.496,0.887,-0.121
14.092,-0.496,0.885,-0.123
14.102,-0.494,0.885,-0.125
14.112,-0.496,0.883,-0.125
14.122,-0.498,0.885,-0.123
14.131,-0.494,0.885,-0.123
14.141,-0.494,0.883,-0.125
14.151,-0.494,0.885,-0.123
14.161,-0.494,0.885,-0.123
14.171,-0.494,0.887,-0.125
14.181,-0.494,0.887,-0.123
14.191,-0.488,0.885,-0.123
14.201,-0.492,0.887,-0.125
14.211,-0.494,0.887,-0.127
14.221,-0.494,0.891,-0.121
14.231,-0.492,0.887,-0.127
14.241,-0.494,0.885,-0.123
14.251,-0.490,0.887,-0.123
14.260,-0.490,0.883,-0.123
14.270,-0.490,0.881,-0.121
14.280,-0.492,0.881,-0.123
14.290,-0.490,0.887,-0.125
14.300,-0.490,0.893,-0.123
14.310,-0.488,0.889,-0.127
14.320,-0.492,0.883,-0.127
14.330,-0.498,0.885,-0.127
14.340,-0.494,0.885,-0.127
14.350,-0.498,0.889,-0.125
14.360,-0.496,0.885,-0.127
14.370,-0.494,0.885,-0.127
14.380,-0.496,0.885,-0.125
14.389,-0.492,0.885,-0.127
14.399,-0.492,0.887,-0.125
14.409,-0.490,0.885,-0.127
14.419,-0.494,0.883,-0.121
14.429,-0.494,0.883,-0.127
14.439,-0.496,0.885,-0.121
14.449,-0.492,0.885,-0.123
14.459,-0.500,0.883,-0.123
14.469,-0.500,0.883,-0.123
14.479,-0.496,0.885,-0.125
14.489,-0.496,0.883,-0.125
14.499,-0.496,0.883,-0.127
14.509,-0.496,0.885,-0.125
14.518,-0.494,0.885,-0.121
14.528,-0.496,0.887,-0.123
14.538,-0.494,0.883,-0.125
14.548,-0.494,0.881,-0.125
14.558,-0.492,0.883,-0.123
14.568,-0.490,0.891,-0.125
14.578,-0.496,0.887,-0.125
14.588,-0.488,0.879,-0.129
14.598,-0.488,0.883,-0.129
14.608,-0.490,0.885,-0.125
14.618,-0.492,0.889,-0.127
14.628,-0.492,0.891,-0.125
14.638,-0.490,0.887,-0.127
14.647,-0.494,0.885,-0.129
14.657,-0.496,0.887,-0.131
14.667,-0.494,0.885,-0.129
14.677,-0.496,0.883,-0.125
14.687,-0.494,0.885,-0.129
14.697,-0.494,0.883,-0.127
14.707,-0.494,0.883,-0.127
14.717,-0.490,0.887,-0.127
14.727,-0.490,0.883,-0.125
14.737,-0.490,0.887,-0.129
14.747,-0.492,0.889,-0.127
14.757,-0.490,0.889,-0.127
14.766,-0.492,0.885,-0.127
14.776,-0.496,0.887,-0.123
14.786,-0.496,0.887,-0.127
14.796,-0.494,0.885,-0.129
14.806,-0.496,0.883,-0.125
14.816,-0.494,0.885,-0.129
14.826,-0.496,0.887,-0.125
14.836,-0.494,0.889,-0.127
14.846,-0.496,0.887,-0.125
14.856,-0.494,0.883,-0.129
14.866,-0.496,0.883,-0.127
14.876,-0.492,0.883,-0.123
14.886,-0.496,0.885,-0.123
14.895,-0.496,0.885,-0.119
14.905,-0.494,0.887,-0.127
14.915,-0.494,0.885,-0.123
14.925,-0.496,0.885,-0.123
14.935,-0.494,0.883,-0.123
14.945,-0.494,0.887,-0.125
14.955,-0.492,0.885,-0.127
14.965,-0.496,0.887,-0.121
14.975,-0.492,0.885,-0.121
14.985,-0.492,0.887,-0.125
14.995,-0.494,0.887,-0.123
15.005,-0.494,0.887,-0.125
15.015,-0.494,0.885,-0.121
15.024,-0.494,0.885,-0.125
15.034,-0.492,0.887,-0.123
15.044,-0.492,0.887,-0.125
15.054,-0.492,0.883,-0.125
15.064,-0.496,0.889,-0.125
15.074,-0.496,0.887,-0.129
15.084,-0.492,0.887,-0.125
15.094,-0.492,0.881,-0.125
15.104,-0.490,0.883,-0.123
15.114,-0.486,0.887,-0.123
15.124,-0.490,0.885,-0.127
15.134,-0.492,0.885,-0.125
15.144,-0.494,0.881,-0.127
15.153,-0.498,0.881,-0.125
15.163,-0.494,0.887,-0.131
15.173,-0.498,0.889,-0.129
15.183,-0.494,0.889,-0.127
15.193,-0.494,0.883,-0.131
15.203,-0.494,0.885,-0.129
15.213,-0.492,0.883,-0.127
15.223,-0.492,0.883,-0.127
15.233,-0.492,0.887,-0.125
15.243,-0.492,0.885,-0.129
15.253,-0.492,0.885,-0.127
15.263,-0.492,0.883,-0.123
15.273,-0.492,0.885,-0.125
15.282,-0.492,0.885,-0.129
15.292,-0.496,0.883,-0.127
15.302,-0.494,0.883,-0.129
15.312,-0.494,0.883,-0.123
15.322,-0.494,0.885,-0.127
15.332,-0.494,0.883,-0.127
15.342,-0.496,0.885,-0.121
15.352,-0.494,0.885,-0.125
15.362,-0.498,0.885,-0.127
15.372,-0.494,0.883,-0.125
15.382,-0.492,0.885,-0.123
15.392,-0.486,0.893,-0.123
15.402,-0.490,0.887,-0.125
15.411,-0.486,0.883,-0.123
15.421,-0.490,0.883,-0.121
15.431,-0.490,0.885,-0.125
15.441,-0.486,0.885,-0.123
15.451,-0.494,0.885,-0.123
15.461,-0.494,0.887,-0.125
15.471,-0.496,0.887,-0.125
15.481,-0.494,0.885,-0.125
15.491,-0.494,0.883,-0.127
15.501,-0.494,0.885,-0.127
15.511,-0.496,0.883,-0.125
15.521,-0.490,0.885,-0.129
15.530,-0.492,0.885,-0.125
15.540,-0.492,0.883,-0.127
15.550,-0.494,0.889,-0.127
15.560,-0.494,0.885,-0.127
15.570,-0.494,0.885,-0.129
15.580,-0.494,0.889,-0.129
15.590,-0.494,0.887,-0.127
15.600,-0.494,0.887,-0.129
15.610,-0.494,0.885,-0.129
15.620,-0.494,0.885,-0.127
15.630,-0.490,0.885,-0.127
15.640,-0.492,0.883,-0.127
15.650,-0.492,0.883,-0.127
15.659,-0.494,0.883,-0.127
15.669,-0.494,0.885,-0.129
15.679,-0.494,0.883,-0.125
15.689,-0.494,0.885,-0.127
15.699,-0.494,0.885,-0.125
15.709,-0.494,0.885,-0.123
15.719,-0.494,0.887,-0.125
15.729,-0.494,0.883,-0.127
15.739,-0.494,0.885,-0.125
15.749,-0.492,0.885,-0.123
15.759,-0.492,0.889,-0.125
15.769,-0.490,0.889,-0.127
15.779,-0.492,0.887,-0.125
15.788,-0.488,0.885,-0.125
15.798,-0.488,0.887,-0.123
15.808,-0.492,0.885,-0.127
15.818,-0.488,0.883,-0.127
15.828,-0.492,0.883,-0.121
15.838,-0.494,0.885,-0.123
15.848,-0.494,0.885,-0.125
15.858,-0.498,0.885,-0.129
15.868,-0.498,0.883,-0.125
15.878,-0.498,0.889,-0.129
15.888,-0.494,0.885,-0.125
15.898,-0.494,0.885,-0.125
15.908,-0.498,0.887,-0.125
15.917,-0.492,0.883,-0.127
15.927,-0.492,0.881,-0.125
15.937,-0.492,0.883,-0.127
15.947,-0.492,0.885,-0.123
15.957,-0.492,0.889,-0.125
15.967,-0.490,0.883,-0.125
15.977,-0.496,0.883,-0.125
15.987,-0.498,0.883,-0.123
15.997,-0.500,0.887,-0.129
16.007,-0.498,0.889,-0.129
16.017,-0.492,0.889,-0.129
16.027,-0.492,0.885,-0.125
16.037,-0.488,0.881,-0.127
16.046,-0.488,0.885,-0.123
16.056,-0.492,0.881,-0.127
16.066,-0.488,0.883,-0.125
16.076,-0.490,0.883,-0.125
16.086,-0.492,0.887,-0.129
16.096,-0.492,0.889,-0.125
16.106,-0.494,0.887,-0.127
16.116,-0.496,0.887,-0.125
16.126,-0.490,0.887,-0.131
16.136,-0.492,0.887,-0.125
16.146,-0.492,0.887,-0.127
16.156,-0.492,0.885,-0.127
16.166,-0.492,0.887,-0.127
16.175,-0.492,0.887,-0.127
16.185,-0.494,0.889,-0.129
16.195,-0.496,0.881,-0.125
16.205,-0.496,0.883,-0.123
16.215,-0.500,0.885,-0.125
16.225,-0.496,0.889,-0.127
16.235,-0.496,0.881,-0.125
16.245,-0.494,0.881,-0.127
16.255,-0.500,0.887,-0.129
16.265,-0.494,0.885,-0.127
16.275,-0.494,0.887,-0.129
16.285,-0.494,0.887,-0.125
16.294,-0.498,0.887,-0.127
16.304,-0.492,0.885,-0.127
16.314,-0.492,0.885,-0.125
16.324,-0.490,0.883,-0.127
16.334,-0.490,0.885,-0.125
16.344,-0.488,0.883,-0.127
16.354,-0.488,0.885,-0.129
16.364,-0.488,0.883,-0.129
16.374,-0.492,0.885,-0.127
16.384,-0.492,0.885,-0.129
16.394,-0.494,0.885,-0.131
16.404,-0.496,0.889,-0.129
16.414,-0.496,0.887,-0.131
16.423,-0.498,0.887,-0.131
16.433,-0.490,0.885,-0.127
16.443,-0.492,0.885,-0.129
16.453,-0.494,0.885,-0.127
16.463,-0.492,0.885,-0.125
16.473,-0.492,0.887,-0.129
16.483,-0.492,0.885,-0.125
16.493,-0.492,0.889,-0.123
16.503,-0.494,0.885,-0.121
16.513,-0.494,0.883,-0.125
16.523,-0.494,0.885,-0.125
16.533,-0.494,0.883,-0.123
16.543,-0.494,0.887,-0.121
16.552,-0.496,0.885,-0.121
16.562,-0.496,0.885,-0.127
16.572,-0.492,0.885,-0.123
16.582,-0.494,0.883,-0.123
16.592,-0.496,0.885,-0.125
16.602,-0.494,0.885,-0.121
16.612,-0.490,0.885,-0.121
16.622,-0.492,0.883,-0.123
16.632,-0.492,0.887,-0.121
16.642,-0.490,0.885,-0.123
16.652,-0.490,0.887,-0.123
16.662,-0.490,0.887,-0.127
16.672,-0.490,0.885,-0.121
16.681,-0.490,0.883,-0.125
16.691,-0.496,0.887,-0.121
16.701,-0.490,0.885,-0.123
16.711,-0.490,0.883,-0.125
16.721,-0.496,0.891,-0.127
16.731,-0.494,0.893,-0.127
16.741,-0.492,0.889,-0.125
16.751,-0.494,0.887,-0.127
16.761,-0.496,0.885,-0.123
16.771,-0.492,0.887,-0.127
16.781,-0.492,0.889,-0.125
16.791,-0.494,0.889,-0.125
16.801,-0.490,0.891,-0.125
16.810,-0.488,0.885,-0.121
16.820,-0.488,0.883,-0.125
16.830,-0.490,0.881,-0.127
16.840,-0.492,0.883,-0.123
16.850,-0.490,0.883,-0.127
16.860,-0.490,0.885,-0.127
16.870,-0.492,0.889,-0.125
16.880,-0.494,0.887,-0.127
16.890,-0.494,0.885,-0.127
16.900,-0.494,0.887,-0.125
16.910,-0.492,0.887,-0.123
16.920,-0.492,0.885,-0.123
16.930,-0.494,0.887,-0.123
16.939,-0.494,0.883,-0.123
16.949,-0.492,0.887,-0.125
16.959,-0.496,0.887,-0.125
16.969,-0.494,0.883,-0.125
16.979,-0.492,0.885,-0.127
16.989,-0.488,0.895,-0.125
16.999,-0.494,0.893,-0.123
17.009,-0.486,0.881,-0.123
17.019,-0.486,0.881,-0.123
17.029,-0.488,0.883,-0.125
17.039,-0.490,0.891,-0.129
17.049,-0.490,0.889,-0.125
17.058,-0.494,0.889,-0.125
17.068,-0.494,0.891,-0.125
17.078,-0.494,0.885,-0.125
17.088,-0.492,0.881,-0.129
17.098,-0.490,0.881,-0.127
17.108,-0.488,0.883,-0.127
17.118,-0.490,0.883,-0.125
17.128,-0.490,0.887,-0.123
17.138,-0.488,0.887,-0.125
17.148,-0.494,0.887,-0.125
17.158,-0.492,0.887,-0.127
17.168,-0.490,0.889,-0.129
17.178,-0.488,0.887,-0.129
17.187,-0.488,0.885,-0.129
17.197,-0.490,0.887,-0.129
17.207,-0.492,0.887,-0.129
17.217,-0.488,0.887,-0.127
17.227,-0.490,0.887,-0.129
17.237,-0.492,0.885,-0.125
17.247,-0.490,0.885,-0.129
17.257,-0.492,0.883,-0.123
17.267,-0.494,0.887,-0.127
17.277,-0.496,0.885,-0.125
17.287,-0.494,0.885,-0.127
17.297,-0.496,0.885,-0.127
17.307,-0.496,0.887,-0.125
17.316,-0.496,0.885,-0.127
17.326,-0.494,0.885,-0.125
17.336,-0.492,0.889,-0.125
17.346,-0.492,0.887,-0.123
17.356,-0.490,0.889,-0.123
17.366,-0.488,0.885,-0.127
17.376,-0.494,0.889,-0.125
17.386,-0.488,0.887,-0.121
17.396,-0.490,0.885,-0.123
17.406,-0.486,0.883,-0.125
17.416,-0.490,0.885,-0.125
17.426,-0.492,0.891,-0.127
17.436,-0.488,0.887,-0.123
17.445,-0.490,0.887,-0.127
17.455,-0.490,0.891,-0.123
17.465,-0.490,0.889,-0.123
17.475,-0.486,0.881,-0.125
17.485,-0.488,0.885,-0.123
17.495,-0.490,0.889,-0.123
17.505,-0.488,0.891,-0.125
17.515,-0.490,0.887,-0.125
17.525,-0.490,0.883,-0.125
17.535,-0.490,0.885,-0.127
17.545,-0.494,0.887,-0.123
17.555,-0.492,0.891,-0.127
17.565,-0.488,0.893,-0.125
17.574,-0.484,0.887,-0.125
17.584,-0.488,0.889,-0.125
17.594,-0.486,0.887,-0.125
17.604,-0.486,0.887,-0.127
17.614,-0.488,0.887,-0.125
17.624,-0.488,0.887,-0.125
17.634,-0.488,0.887,-0.129
17.644,-0.492,0.887,-0.123
17.654,-0.490,0.883,-0.127
17.664,-0.494,0.889,-0.127
17.674,-0.494,0.885,-0.127
17.684,-0.494,0.887,-0.125
17.694,-0.496,0.887,-0.125
17.703,-0.492,0.885,-0.127
17.713,-0.490,0.883,-0.123
17.723,-0.492,0.885,-0.125
17.733,-0.492,0.889,-0.125
17.743,-0.496,0.887,-0.129
17.753,-0.492,0.885,-0.123
17.763,-0.490,0.889,-0.125
17.773,-0.490,0.893,-0.123
17.783,-0.486,0.891,-0.123
17.793,-0.482,0.881,-0.125
17.803,-0.486,0.885,-0.123
17.813,-0.488,0.889,-0.125
17.822,-0.488,0.887,-0.123
17.832,-0.488,0.893,-0.125
17.842,-0.488,0.891,-0.121
17.852,-0.490,0.887,-0.123
17.862,-0.490,0.887,-0.125
17.872,-0.490,0.887,-0.125
17.882,-0.488,0.885,-0.123
17.892,-0.484,0.887,-0.121
17.902,-0.486,0.887,-0.125
17.912,-0.484,0.889,-0.125
17.922,-0.486,0.889,-0.125
17.932,-0.486,0.887,-0.125
17.942,-0.490,0.891,-0.125
17.951,-0.488,0.891,-0.129
17.961,-0.486,0.891,-0.125
17.971,-0.486,0.889,-0.123
17.981,-0.484,0.891,-0.127
17.991,-0.488,0.891,-0.125
18.001,-0.488,0.891,-0.125
18.011,-0.492,0.895,-0.127
18.021,-0.490,0.883,-0.125
18.031,-0.490,0.887,-0.123
18.041,-0.488,0.889,-0.123
18.051,-0.486,0.889,-0.123
18.061,-0.488,0.885,-0.123
18.071,-0.486,0.885,-0.121
18.080,-0.482,0.885,-0.121
18.090,-0.486,0.887,-0.123
18.100,-0.488,0.887,-0.123
18.110,-0.486,0.889,-0.123
18.120,-0.490,0.887,-0.125
18.130,-0.486,0.889,-0.123
18.140,-0.484,0.889,-0.123
18.150,-0.484,0.889,-0.121
18.160,-0.482,0.891,-0.125
18.170,-0.484,0.891,-0.125
18.180,-0.486,0.887,-0.123
18.190,-0.488,0.889,-0.123
18.200,-0.494,0.885,-0.125
18.209,-0.494,0.887,-0.125
18.219,-0.492,0.887,-0.121
18.229,-0.486,0.885,-0.121
18.239,-0.486,0.887,-0.123
18.249,-0.486,0.893,-0.121
18.259,-0.490,0.891,-0.123
18.269,-0.486,0.887,-0.121
18.279,-0.486,0.893,-0.121
18.289,-0.484,0.891,-0.121
18.299,-0.486,0.889,-0.119
18.309,-0.484,0.891,-0.121
18.319,-0.482,0.889,-0.123
18.329,-0.482,0.893,-0.119
18.338,-0.484,0.887,-0.119
18.348,-0.492,0.887,-0.125
18.358,-0.492,0.887,-0.121
18.368,-0.492,0.889,-0.125
18.378,-0.490,0.893,-0.119
18.388,-0.490,0.893,-0.125
18.398,-0.490,0.891,-0.123
18.408,-0.490,0.889,-0.123
18.418,-0.490,0.885,-0.123
18.428,-0.486,0.885,-0.123
18.438,-0.492,0.887,-0.121
18.448,-0.490,0.887,-0.123
18.458,-0.490,0.889,-0.121
18.467,-0.492,0.885,-0.121
18.477,-0.492,0.887,-0.125
18.487,-0.490,0.887,-0.121
18.497,-0.492,0.885,-0.121
18.507,-0.492,0.885,-0.121
18.517,-0.492,0.883,-0.123
18.527,-0.492,0.887,-0.125
18.537,-0.490,0.887,-0.119
18.547,-0.490,0.887,-0.119
18.557,-0.492,0.889,-0.123
18.567,-0.492,0.889,-0.123
18.577,-0.492,0.887,-0.119
18.586,-0.492,0.887,-0.121
18.596,-0.488,0.889,-0.119
18.606,-0.492,0.891,-0.121
18.616,-0.486,0.883,-0.123
18.626,-0.490,0.883,-0.125
18.636,-0.496,0.889,-0.125
18.646,-0.490,0.891,-0.121
18.656,-0.490,0.889,-0.123
18.666,-0.494,0.891,-0.121
18.676,-0.490,0.887,-0.125
18.686,-0.492,0.889,-0.125
18.696,-0.490,0.887,-0.123
18.706,-0.490,0.885,-0.127
18.715,-0.492,0.887,-0.125
18.725,-0.492,0.885,-0.125
18.735,-0.492,0.885,-0.121
18.745,-0.492,0.885,-0.123
18.755,-0.490,0.885,-0.125
18.765,-0.490,0.889,-0.125
18.775,-0.490,0.887,-0.123
18.785,-0.492,0.887,-0.125
18.795,-0.494,0.889,-0.125
18.805,-0.492,0.891,-0.127
18.815,-0.494,0.891,-0.125
18.825,-0.494,0.889,-0.125
18.835,-0.492,0.889,-0.125
18.844,-0.492,0.887,-0.125
18.854,-0.492,0.887,-0.123
18.864,-0.490,0.885,-0.121
18.874,-0.492,0.889,-0.123
18.884,-0.492,0.887,-0.123
18.894,-0.488,0.887,-0.123
18.904,-0.492,0.889,-0.119
18.914,-0.492,0.885,-0.123
18.924,-0.492,0.889,-0.123
18.934,-0.492,0.885,-0.121
18.944,-0.494,0.885,-0.123
18.954,-0.494,0.885,-0.119
18.964,-0.492,0.883,-0.121
18.973,-0.490,0.885,-0.119
18.983,-0.490,0.887,-0.117
18.993,-0.488,0.889,-0.123
19.003,-0.488,0.889,-0.121
19.013,-0.490,0.885,-0.119
19.023,-0.490,0.887,-0.121
19.033,-0.492,0.889,-0.117
19.043,-0.490,0.887,-0.117
19.053,-0.486,0.887,-0.121
19.063,-0.490,0.889,-0.119
19.073,-0.488,0.889,-0.121
19.083,-0.488,0.889,-0.121
19.093,-0.490,0.885,-0.123
19.102,-0.486,0.889,-0.123
19.112,-0.490,0.893,-0.125
19.122,-0.494,0.883,-0.127
19.132,-0.490,0.889,-0.121
19.142,-0.496,0.885,-0.123
19.152,-0.496,0.885,-0.119
19.162,-0.494,0.885,-0.121
19.172,-0.492,0.885,-0.123
19.182,-0.492,0.887,-0.121
19.192,-0.490,0.891,-0.119
19.202,-0.490,0.887,-0.123
19.212,-0.490,0.887,-0.125
19.222,-0.494,0.891,-0.123
19.231,-0.492,0.893,-0.123
19.241,-0.494,0.889,-0.125
19.251,-0.490,0.891,-0.121
19.261,-0.488,0.889,-0.123
19.271,-0.490,0.887,-0.121
19.281,-0.488,0.883,-0.123
19.291,-0.486,0.881,-0.125
19.301,-0.490,0.885,-0.121
19.311,-0.490,0.887,-0.119
19.321,-0.490,0.889,-0.125
19.331,-0.492,0.887,-0.127
19.341,-0.492,0.887,-0.121
19.350,-0.492,0.891,-0.121
19.360,-0.492,0.885,-0.123
19.370,-0.492,0.887,-0.125
19.380,-0.492,0.887,-0.121
19.390,-0.494,0.887,-0.123
19.400,-0.492,0.889,-0.121
19.410,-0.490,0.891,-0.119
19.420,-0.492,0.887,-0.123
19.430,-0.492,0.881,-0.119
19.440,-0.490,0.885,-0.123
19.450,-0.490,0.889,-0.121
19.460,-0.494,0.891,-0.123
19.470,-0.486,0.885,-0.121
19.479,-0.484,0.883,-0.121
19.489,-0.490,0.887,-0.121
19.499,-0.490,0.889,-0.121
19.509,-0.494,0.895,-0.121
19.519,-0.490,0.893,-0.121
19.529,-0.490,0.891,-0.121
19.539,-0.490,0.889,-0.121
19.549,-0.490,0.883,-0.119
19.559,-0.486,0.883,-0.119
19.569,-0.490,0.883,-0.121
19.579,-0.488,0.883,-0.121
19.589,-0.490,0.885,-0.123
19.599,-0.488,0.887,-0.121
19.608,-0.486,0.887,-0.121
19.618,-0.490,0.891,-0.121
19.628,-0.492,0.891,-0.125
19.638,-0.492,0.891,-0.121
19.648,-0.492,0.885,-0.121
19.658,-0.490,0.887,-0.123
19.668,-0.492,0.885,-0.123
19.678,-0.492,0.887,-0.123
19.688,-0.494,0.889,-0.123
19.698,-0.490,0.891,-0.125
19.708,-0.492,0.887,-0.123
19.718,-0.492,0.889,-0.121
19.728,-0.492,0.889,-0.123
19.737,-0.488,0.885,-0.119
19.747,-0.490,0.887,-0.121
19.757,-0.490,0.887,-0.121
19.767,-0.492,0.889,-0.121
19.777,-0.492,0.885,-0.119
19.787,-0.492,0.891,-0.119
19.797,-0.488,0.889,-0.117
19.807,-0.492,0.891,-0.119
19.817,-0.488,0.889,-0.117
19.827,-0.492,0.887,-0.115
19.837,-0.490,0.887,-0.119
19.847,-0.488,0.887,-0.117
19.857,-0.486,0.885,-0.121
19.866,-0.488,0.887,-0.121
19.876,-0.486,0.889,-0.119
19.886,-0.488,0.893,-0.123
19.896,-0.488,0.889,-0.121
19.906,-0.488,0.883,-0.119
19.916,-0.490,0.887,-0.121
19.926,-0.490,0.891,-0.121
19.936,-0.488,0.883,-0.121
19.946,-0.488,0.883,-0.121
19.956,-0.492,0.891,-0.125
19.966,-0.490,0.896,-0.121
19.976,-0.490,0.895,-0.119
19.986,-0.490,0.889,-0.125
19.995,-0.492,0.889,-0.123
20.005,-0.488,0.893,-0.125
20.015,-0.490,0.889,-0.123
20.025,-0.488,0.889,-0.123
20.035,-0.488,0.889,-0.119
20.045,-0.488,0.889,-0.121
20.055,-0.484,0.885,-0.119
20.065,-0.484,0.887,-0.121
20.075,-0.486,0.885,-0.121
20.085,-0.490,0.889,-0.119
20.095,-0.490,0.887,-0.123
20.105,-0.490,0.887,-0.123
20.114,-0.492,0.885,-0.121
20.124,-0.490,0.891,-0.121
20.134,-0.488,0.891,-0.121
20.144,-0.490,0.887,-0.119
20.154,-0.490,0.889,-0.119
20.164,-0.490,0.889,-0.121
20.174,-0.486,0.889,-0.121
20.184,-0.488,0.889,-0.117
20.194,-0.488,0.887,-0.119
20.204,-0.490,0.883,-0.119
20.214,-0.488,0.887,-0.119
20.224,-0.490,0.891,-0.121
20.234,-0.490,0.896,-0.117
20.243,-0.488,0.881,-0.117
20.253,-0.486,0.883,-0.119
20.263,-0.488,0.885,-0.117
20.273,-0.488,0.889,-0.119
20.283,-0.492,0.893,-0.119
20.293,-0.488,0.889,-0.117
20.303,-0.488,0.893,-0.121
20.313,-0.486,0.891,-0.121
20.323,-0.488,0.885,-0.123
20.333,-0.486,0.887,-0.123
20.343,-0.486,0.889,-0.125
20.353,-0.482,0.887,-0.121
20.363,-0.482,0.889,-0.123
20.372,-0.486,0.887,-0.119
20.382,-0.484,0.891,-0.121
20.392,-0.484,0.891,-0.123
20.402,-0.484,0.891,-0.127
20.412,-0.488,0.893,-0.123
20.422,-0.488,0.891,-0.125
20.432,-0.488,0.891,-0.127
20.442,-0.488,0.893,-0.123
20.452,-0.490,0.891,-0.123
20.462,-0.486,0.889,-0.125
20.472,-0.484,0.889,-0.123
20.482,-0.488,0.891,-0.119
20.492,-0.492,0.889,-0.121
20.501,-0.490,0.889,-0.123
20.511,-0.486,0.889,-0.123
20.521,-0.488,0.887,-0.121
20.531,-0.490,0.887,-0.123
20.541,-0.488,0.889,-0.123
20.551,-0.490,0.889,-0.123
20.561,-0.490,0.887,-0.121
20.571,-0.490,0.889,-0.123
20.581,-0.490,0.889,-0.121
20.591,-0.490,0.887,-0.121
20.601,-0.488,0.889,-0.123
20.611,-0.488,0.887,-0.119
20.621,-0.486,0.887,-0.125
20.630,-0.486,0.889,-0.121
20.640,-0.486,0.893,-0.123
20.650,-0.484,0.887,-0.123
20.660,-0.488,0.895,-0.121
20.670,-0.486,0.893,-0.119
20.680,-0.486,0.889,-0.121
20.690,-0.482,0.887,-0.121
20.700,-0.484,0.889,-0.119
20.710,-0.484,0.889,-0.123
20.720,-0.484,0.893,-0.121
20.730,-0.490,0.891,-0.125
20.740,-0.488,0.891,-0.127
20.750,-0.492,0.891,-0.125
20.759,-0.492,0.893,-0.125
20.769,-0.492,0.893,-0.125
20.779,-0.488,0.893,-0.121
20.789,-0.486,0.889,-0.121
20.799,-0.488,0.891,-0.125
20.809,-0.484,0.889,-0.125
20.819,-0.484,0.891,-0.121
20.829,-0.486,0.887,-0.121
20.839,-0.488,0.889,-0.123
20.849,-0.488,0.889,-0.123
20.859,-0.490,0.889,-0.123
20.869,-0.488,0.889,-0.125
20.878,-0.494,0.885,-0.125
20.888,-0.492,0.887,-0.123
20.898,-0.492,0.883,-0.121
20.908,-0.490,0.889,-0.123
20.918,-0.490,0.891,-0.125
20.928,-0.490,0.893,-0.125
20.938,-0.488,0.891,-0.119
20.948,-0.484,0.891,-0.123
20.958,-0.486,0.887,-0.125
20.968,-0.484,0.887,-0.121
20.978,-0.480,0.889,-0.121
20.988,-0.484,0.891,-0.127
20.998,-0.486,0.891,-0.123
21.007,-0.484,0.885,-0.121
21.017,-0.490,0.891,-0.125
21.027,-0.490,0.893,-0.125
21.037,-0.488,0.891,-0.123
21.047,-0.488,0.893,-0.123
21.057,-0.488,0.887,-0.121
21.067,-0.488,0.889,-0.125
21.077,-0.490,0.885,-0.125
21.087,-0.486,0.887,-0.121
21.097,-0.488,0.889,-0.121
21.107,-0.484,0.887,-0.123
21.117,-0.486,0.885,-0.125
21.127,-0.486,0.889,-0.125
21.136,-0.484,0.891,-0.125
21.146,-0.488,0.891,-0.129
21.156,-0.486,0.891,-0.123
21.166,-0.488,0.889,-0.125
21.176,-0.488,0.891,-0.127
21.186,-0.490,0.893,-0.123
21.196,-0.486,0.889,-0.125
21.206,-0.488,0.889,-0.123
21.216,-0.484,0.889,-0.123
21.226,-0.486,0.889,-0.125
21.236,-0.488,0.887,-0.125
21.246,-0.490,0.891,-0.127
21.256,-0.492,0.889,-0.121
21.265,-0.494,0.887,-0.123
21.275,-0.488,0.887,-0.123
21.285,-0.490,0.889,-0.125
21.295,-0.488,0.887,-0.123
21.305,-0.488,0.889,-0.125
21.315,-0.490,0.891,-0.123
21.325,-0.488,0.891,-0.121
21.335,-0.490,0.889,-0.123
21.345,-0.486,0.887,-0.123
21.355,-0.488,0.889,-0.125
21.365,-0.488,0.889,-0.127
21.375,-0.486,0.889,-0.125
21.385,-0.484,0.887,-0.121
21.394,-0.484,0.889,-0.125
21.404,-0.484,0.889,-0.123
21.414,-0.488,0.889,-0.127
21.424,-0.488,0.887,-0.125
21.434,-0.488,0.889,-0.121
21.444,-0.486,0.893,-0.125
21.454,-0.486,0.891,-0.125
21.464,-0.486,0.889,-0.123
21.474,-0.488,0.889,-0.125
21.484,-0.486,0.891,-0.123
21.494,-0.486,0.889,-0.125
21.504,-0.484,0.887,-0.123
21.514,-0.486,0.889,-0.121
21.523,-0.482,0.893,-0.121
21.533,-0.482,0.891,-0.119
21.543,-0.486,0.883,-0.123
21.553,-0.488,0.885,-0.123
21.563,-0.490,0.885,-0.119
21.573,-0.492,0.893,-0.123
21.583,-0.490,0.889,-0.123
21.593,-0.490,0.889,-0.123
21.603,-0.488,0.887,-0.125
21.613,-0.488,0.885,-0.121
21.623,-0.488,0.887,-0.123
21.633,-0.488,0.885,-0.123
21.643,-0.486,0.889,-0.119
21.652,-0.490,0.889,-0.123
21.662,-0.490,0.889,-0.121
21.672,-0.490,0.889,-0.121
21.682,-0.490,0.887,-0.123
21.692,-0.496,0.889,-0.123
21.702,-0.488,0.887,-0.119
21.712,-0.490,0.887,-0.121
21.722,-0.486,0.885,-0.117
21.732,-0.486,0.889,-0.117
21.742,-0.488,0.883,-0.121
21.752,-0.490,0.889,-0.123
21.762,-0.494,0.887,-0.121
21.771,-0.492,0.887,-0.123
21.781,-0.488,0.885,-0.121
21.791,-0.490,0.889,-0.123
21.801,-0.486,0.893,-0.123
21.811,-0.486,0.893,-0.123
21.821,-0.482,0.885,-0.121
21.831,-0.488,0.889,-0.121
21.841,-0.488,0.891,-0.123
21.851,-0.486,0.887,-0.123
21.861,-0.488,0.895,-0.123
21.871,-0.488,0.889,-0.123
21.881,-0.490,0.891,-0.123
21.891,-0.490,0.889,-0.121
21.900,-0.490,0.889,-0.121
21.910,-0.490,0.887,-0.123
21.920,-0.486,0.887,-0.123
21.930,-0.488,0.887,-0.125
21.940,-0.488,0.889,-0.123
21.950,-0.486,0.887,-0.123
21.960,-0.488,0.887,-0.125
21.970,-0.488,0.891,-0.125
21.980,-0.486,0.891,-0.127
21.990,-0.490,0.891,-0.125
22.000,-0.488,0.891,-0.127
22.010,-0.488,0.891,-0.127
22.020,-0.486,0.891,-0.123
22.029,-0.486,0.891,-0.123
22.039,-0.486,0.889,-0.125
22.049,-0.486,0.889,-0.125
22.059,-0.488,0.889,-0.121
22.069,-0.488,0.889,-0.125
22.079,-0.488,0.893,-0.125
22.089,-0.488,0.889,-0.123
22.099,-0.488,0.889,-0.121
22.109,-0.486,0.887,-0.119
22.119,-0.488,0.889,-0.121
22.129,-0.486,0.891,-0.119
22.139,-0.490,0.887,-0.119
22.149,-0.490,0.887,-0.119
22.158,-0.486,0.887,-0.123
22.168,-0.490,0.891,-0.121
22.178,-0.490,0.887,-0.121
22.188,-0.492,0.889,-0.123
22.198,-0.486,0.891,-0.119
22.208,-0.488,0.895,-0.121
22.218,-0.488,0.889,-0.117
22.228,-0.488,0.889,-0.121
22.238,-0.488,0.887,-0.123
22.248,-0.488,0.885,-0.123
22.258,-0.488,0.889,-0.127
22.268,-0.486,0.889,-0.125
22.278,-0.488,0.889,-0.121
22.287,-0.488,0.891,-0.125
22.297,-0.486,0.895,-0.125
22.307,-0.488,0.889,-0.121
22.317,-0.488,0.893,-0.125
22.327,-0.486,0.891,-0.121
22.337,-0.484,0.887,-0.123
22.347,-0.482,0.887,-0.117
22.357,-0.482,0.889,-0.119
22.367,-0.486,0.891,-0.123
22.377,-0.486,0.889,-0.119
22.387,-0.488,0.889,-0.123
22.397,-0.492,0.883,-0.127
22.407,-0.492,0.889,-0.125
22.416,-0.494,0.895,-0.125
22.426,-0.492,0.895,-0.127
22.436,-0.490,0.893,-0.123
22.446,-0.490,0.891,-0.127
22.456,-0.484,0.887,-0.125
22.466,-0.486,0.887,-0.121
22.476,-0.486,0.887,-0.125
22.486,-0.490,0.889,-0.123
22.496,-0.484,0.891,-0.121
22.506,-0.488,0.889,-0.123
22.516,-0.486,0.891,-0.123
22.526,-0.488,0.889,-0.121
22.535,-0.488,0.887,-0.123
22.545,-0.492,0.887,-0.121
22.555,-0.492,0.887,-0.121
22.565,-0.492,0.887,-0.123
22.575,-0.490,0.887,-0.121
22.585,-0.490,0.885,-0.123
22.595,-0.492,0.891,-0.123
22.605,-0.488,0.889,-0.123
22.615,-0.488,0.887,-0.121
22.625,-0.488,0.885,-0.123
22.635,-0.486,0.895,-0.121
22.645,-0.484,0.895,-0.121
22.655,-0.484,0.887,-0.123
22.664,-0.484,0.887,-0.123
22.674,-0.490,0.893,-0.123
22.684,-0.486,0.893,-0.121
22.694,-0.486,0.891,-0.121
22.704,-0.484,0.893,-0.121
22.714,-0.486,0.893,-0.119
22.724,-0.482,0.891,-0.117
22.734,-0.484,0.889,-0.117
22.744,-0.480,0.887,-0.119
22.754,-0.480,0.885,-0.115
22.764,-0.486,0.891,-0.117
22.774,-0.484,0.885,-0.117
22.784,-0.486,0.885,-0.119
22.793,-0.488,0.889,-0.121
22.803,-0.492,0.887,-0.119
22.813,-0.492,0.891,-0.119
22.823,-0.490,0.891,-0.123
22.833,-0.492,0.889,-0.123
22.843,-0.492,0.889,-0.121
22.853,-0.488,0.887,-0.123
22.863,-0.488,0.887,-0.123
22.873,-0.490,0.889,-0.115
22.883,-0.488,0.893,-0.121
22.893,-0.488,0.891,-0.121
22.903,-0.490,0.891,-0.121
22.913,-0.488,0.889,-0.121
22.922,-0.488,0.889,-0.121
22.932,-0.494,0.889,-0.121
22.942,-0.492,0.891,-0.121
22.952,-0.492,0.889,-0.117
22.962,-0.488,0.891,-0.117
22.972,-0.488,0.889,-0.117
22.982,-0.488,0.887,-0.121
22.992,-0.488,0.887,-0.119
23.002,-0.488,0.891,-0.117
23.012,-0.484,0.887,-0.117
23.022,-0.486,0.885,-0.121
23.032,-0.488,0.891,-0.119
23.042,-0.488,0.889,-0.119
23.051,-0.486,0.891,-0.119
23.061,-0.488,0.891,-0.123
23.071,-0.482,0.889,-0.119
23.081,-0.482,0.889,-0.119
23.091,-0.484,0.893,-0.121
23.101,-0.484,0.889,-0.121
23.111,-0.482,0.889,-0.121
23.121,-0.486,0.891,-0.119
23.131,-0.486,0.893,-0.121
23.141,-0.482,0.885,-0.123
23.151,-0.488,0.887,-0.125
23.161,-0.488,0.893,-0.123
23.171,-0.488,0.895,-0.125
23.180,-0.490,0.893,-0.127
23.190,-0.486,0.891,-0.125
23.200,-0.490,0.893,-0.125
23.210,-0.490,0.891,-0.123
23.220,-0.486,0.893,-0.125
23.230,-0.484,0.891,-0.121
23.240,-0.486,0.893,-0.119
23.250,-0.484,0.889,-0.125
23.260,-0.482,0.887,-0.125
23.270,-0.484,0.883,-0.119
23.280,-0.488,0.889,-0.121
23.290,-0.490,0.887,-0.121
23.299,-0.488,0.889,-0.121
23.309,-0.492,0.891,-0.119
23.319,-0.490,0.887,-0.121
23.329,-0.492,0.889,-0.119
23.339,-0.488,0.891,-0.121
23.349,-0.488,0.889,-0.119
23.359,-0.490,0.885,-0.117
23.369,-0.490,0.885,-0.119
23.379,-0.488,0.889,-0.119
23.389,-0.488,0.889,-0.121
23.399,-0.490,0.891,-0.121
23.409,-0.490,0.887,-0.121
23.419,-0.488,0.889,-0.121
23.428,-0.484,0.895,-0.119
23.438,-0.488,0.895,-0.119
23.448,-0.480,0.885,-0.119
23.458,-0.482,0.887,-0.119
23.468,-0.482,0.889,-0.119
23.478,-0.486,0.895,-0.121
23.488,-0.486,0.895,-0.121
23.498,-0.486,0.893,-0.119
23.508,-0.488,0.895,-0.125
23.518,-0.488,0.891,-0.121
23.528,-0.486,0.891,-0.125
23.538,-0.480,0.889,-0.119
23.548,-0.486,0.889,-0.121
23.557,-0.482,0.889,-0.123
23.567,-0.484,0.889,-0.119
23.577,-0.484,0.893,-0.125
23.587,-0.482,0.891,-0.123
23.597,-0.484,0.889,-0.123
23.607,-0.486,0.889,-0.121
23.617,-0.486,0.893,-0.125
23.627,-0.486,0.893,-0.123
23.637,-0.484,0.891,-0.125
23.647,-0.484,0.896,-0.123
23.657,-0.486,0.893,-0.123
23.667,-0.484,0.891,-0.123
23.677,-0.488,0.893,-0.121
23.686,-0.488,0.891,-0.123
23.696,-0.486,0.891,-0.119
23.706,-0.488,0.889,-0.117
23.716,-0.484,0.889,-0.121
23.726,-0.490,0.887,-0.119
23.736,-0.486,0.891,-0.117
23.746,-0.486,0.889,-0.119
23.756,-0.488,0.889,-0.119
23.766,-0.488,0.889,-0.119
23.776,-0.490,0.891,-0.117
23.786,-0.484,0.889,-0.119
23.796,-0.480,0.887,-0.117
23.806,-0.482,0.893,-0.119
23.815,-0.484,0.893,-0.123
23.825,-0.486,0.889,-0.117
23.835,-0.484,0.889,-0.113
23.845,-0.488,0.891,-0.115
23.855,-0.482,0.885,-0.119
23.865,-0.480,0.883,-0.119
23.875,-0.482,0.889,-0.117
23.885,-0.486,0.895,-0.119
23.895,-0.482,0.895,-0.121
23.905,-0.486,0.893,-0.119
23.915,-0.488,0.891,-0.119
23.925,-0.492,0.893,-0.121
23.935,-0.488,0.891,-0.121
23.944,-0.488,0.895,-0.123
23.954,-0.484,0.893,-0.117
23.964,-0.484,0.891,-0.121
23.974,-0.486,0.891,-0.119
23.984,-0.484,0.889,-0.119
23.994,-0.482,0.889,-0.121
24.004,-0.484,0.889,-0.117
24.014,-0.484,0.893,-0.123
24.024,-0.486,0.891,-0.123
24.034,-0.486,0.893,-0.125
24.044,-0.486,0.895,-0.127
24.054,-0.488,0.889,-0.125
24.063,-0.486,0.891,-0.123
24.073,-0.482,0.889,-0.123
24.083,-0.486,0.891,-0.127
24.093,-0.482,0.891,-0.125
24.103,-0.482,0.893,-0.125
24.113,-0.482,0.893,-0.125
24.123,-0.484,0.887,-0.123
24.133,-0.482,0.887,-0.123
24.143,-0.482,0.893,-0.125
24.153,-0.484,0.898,-0.119
24.163,-0.484,0.891,-0.121
24.173,-0.480,0.887,-0.123
24.183,-0.482,0.889,-0.125
24.192,-0.486,0.893,-0.121
24.202,-0.484,0.891,-0.123
24.212,-0.484,0.895,-0.121
24.222,-0.484,0.893,-0.123
24.232,-0.480,0.895,-0.123
24.242,-0.484,0.889,-0.123
24.252,-0.484,0.889,-0.125
24.262,-0.484,0.887,-0.125
24.272,-0.480,0.889,-0.123
24.282,-0.480,0.889,-0.123
24.292,-0.480,0.891,-0.125
24.302,-0.486,0.891,-0.123
24.312,-0.484,0.893,-0.125
24.321,-0.486,0.893,-0.125
24.331,-0.486,0.891,-0.127
24.341,-0.486,0.895,-0.129
24.351,-0.486,0.891,-0.125
24.361,-0.484,0.893,-0.125
24.371,-0.484,0.891,-0.123
24.381,-0.484,0.893,-0.123
24.391,-0.482,0.891,-0.125
24.401,-0.484,0.891,-0.127
24.411,-0.486,0.891,-0.123
24.421,-0.484,0.893,-0.121
24.431,-0.484,0.893,-0.123
24.441,-0.484,0.889,-0.123
24.450,-0.482,0.889,-0.121
24.460,-0.486,0.891,-0.123
24.470,-0.486,0.891,-0.119
24.480,-0.488,0.889,-0.121
24.490,-0.486,0.887,-0.123
24.500,-0.488,0.889,-0.121
24.510,-0.484,0.891,-0.121
24.520,-0.486,0.893,-0.123
24.530,-0.484,0.891,-0.121
24.540,-0.484,0.891,-0.121
24.550,-0.482,0.893,-0.121
24.560,-0.480,0.891,-0.123
24.570,-0.482,0.889,-0.119
24.579,-0.482,0.893,-0.123
24.589,-0.484,0.893,-0.127
24.599,-0.482,0.891,-0.123
24.609,-0.486,0.896,-0.123
24.619,-0.482,0.893,-0.123
24.629,-0.484,0.891,-0.125
24.639,-0.482,0.889,-0.125
24.649,-0.482,0.893,-0.123
24.659,-0.482,0.893,-0.123
24.669,-0.482,0.887,-0.123
24.679,-0.486,0.887,-0.121
24.689,-0.488,0.889,-0.121
24.699,-0.486,0.891,-0.125
24.708,-0.486,0.893,-0.123
24.718,-0.488,0.893,-0.125
24.728,-0.484,0.895,-0.125
24.738,-0.486,0.891,-0.123
24.748,-0.484,0.893,-0.123
24.758,-0.482,0.889,-0.129
24.768,-0.480,0.889,-0.125
24.778,-0.484,0.893,-0.125
24.788,-0.486,0.891,-0.123
24.798,-0.486,0.891,-0.123
24.808,-0.486,0.893,-0.125
24.818,-0.486,0.891,-0.123
24.827,-0.488,0.889,-0.125
24.837,-0.486,0.891,-0.121
24.847,-0.484,0.889,-0.123
24.857,-0.486,0.889,-0.123
24.867,-0.486,0.889,-0.125
24.877,-0.492,0.887,-0.125
24.887,-0.492,0.887,-0.121
24.897,-0.486,0.889,-0.125
24.907,-0.488,0.885,-0.121
24.917,-0.488,0.889,-0.121
24.927,-0.480,0.895,-0.119
24.937,-0.477,0.895,-0.121
24.947,-0.475,0.887,-0.121
24.956,-0.477,0.887,-0.123
24.966,-0.479,0.893,-0.121
24.976,-0.479,0.893,-0.123
24.986,-0.482,0.896,-0.123
24.996,-0.484,0.893,-0.123
25.006,-0.486,0.891,-0.125
25.016,-0.490,0.889,-0.125
25.026,-0.490,0.891,-0.127
25.036,-0.488,0.891,-0.123
25.046,-0.488,0.887,-0.125
25.056,-0.484,0.889,-0.125
25.066,-0.488,0.887,-0.125
25.076,-0.482,0.887,-0.123
25.085,-0.482,0.891,-0.125
25.095,-0.482,0.891,-0.127
25.105,-0.484,0.893,-0.127
25.115,-0.482,0.893,-0.125
25.125,-0.482,0.893,-0.123
25.135,-0.482,0.893,-0.127
25.145,-0.484,0.893,-0.125
25.155,-0.484,0.895,-0.125
25.165,-0.486,0.893,-0.121
25.175,-0.484,0.893,-0.125
25.185,-0.484,0.893,-0.123
25.195,-0.482,0.893,-0.123
25.205,-0.486,0.891,-0.121
25.214,-0.482,0.889,-0.121
25.224,-0.486,0.889,-0.119
25.234,-0.486,0.889,-0.119
25.244,-0.484,0.889,-0.119
25.254,-0.484,0.893,-0.121
25.264,-0.484,0.891,-0.121
25.274,-0.484,0.891,-0.119
25.284,-0.484,0.889,-0.119
25.294,-0.486,0.895,-0.121
25.304,-0.482,0.893,-0.119
25.314,-0.480,0.893,-0.123
25.324,-0.482,0.895,-0.121
25.334,-0.480,0.893,-0.125
25.343,-0.486,0.891,-0.123
25.353,-0.482,0.891,-0.121
25.363,-0.484,0.891,-0.123
25.373,-0.488,0.889,-0.123
25.383,-0.488,0.891,-0.121
25.393,-0.486,0.891,-0.121
25.403,-0.484,0.889,-0.123
25.413,-0.486,0.889,-0.123
25.423,-0.484,0.895,-0.123
25.433,-0.484,0.893,-0.125
25.443,-0.486,0.889,-0.125
25.453,-0.484,0.893,-0.123
25.463,-0.486,0.891,-0.127
25.472,-0.482,0.887,-0.123
25.482,-0.484,0.889,-0.125
25.492,-0.484,0.895,-0.125
25.502,-0.480,0.895,-0.125
25.512,-0.482,0.891,-0.123
25.522,-0.482,0.887,-0.125
25.532,-0.486,0.889,-0.125
25.542,-0.486,0.896,-0.125
25.552,-0.488,0.893,-0.125
25.562,-0.488,0.893,-0.125
25.572,-0.484,0.891,-0.125
25.582,-0.482,0.889,-0.125
25.591,-0.482,0.889,-0.121
25.601,-0.482,0.887,-0.121
25.611,-0.482,0.891,-0.125
25.621,-0.484,0.893,-0.123
25.631,-0.488,0.891,-0.121
25.641,-0.482,0.891,-0.125
25.651,-0.486,0.889,-0.123
25.661,-0.486,0.891,-0.123
25.671,-0.488,0.889,-0.119
25.681,-0.484,0.889,-0.121
25.691,-0.486,0.887,-0.123
25.701,-0.490,0.887,-0.123
25.711,-0.486,0.887,-0.121
25.720,-0.490,0.891,-0.123
25.730,-0.486,0.891,-0.123
25.740,-0.490,0.891,-0.121
25.750,-0.488,0.887,-0.121
25.760,-0.484,0.889,-0.119
25.770,-0.484,0.895,-0.121
25.780,-0.482,0.895,-0.119
25.790,-0.482,0.887,-0.121
25.800,-0.486,0.889,-0.123
25.810,-0.490,0.891,-0.119
25.820,-0.486,0.889,-0.123
25.830,-0.486,0.895,-0.123
25.840,-0.488,0.896,-0.123
25.849,-0.488,0.893,-0.123
25.859,-0.488,0.887,-0.123
25.869,-0.490,0.889,-0.125
25.879,-0.484,0.887,-0.121
25.889,-0.488,0.891,-0.127
25.899,-0.482,0.889,-0.123
25.909,-0.486,0.889,-0.123
25.919,-0.484,0.891,-0.125
25.929,-0.484,0.889,-0.125
25.939,-0.486,0.889,-0.123
25.949,-0.490,0.891,-0.125
25.959,-0.488,0.891,-0.125
25.969,-0.484,0.893,-0.123
25.978,-0.486,0.893,-0.125
25.988,-0.480,0.891,-0.125
25.998,-0.484,0.891,-0.123
26.008,-0.486,0.891,-0.121
26.018,-0.486,0.889,-0.123
26.028,-0.490,0.893,-0.123
26.038,-0.488,0.891,-0.121
26.048,-0.490,0.891,-0.117
26.058,-0.490,0.891,-0.119
26.068,-0.486,0.889,-0.121
26.078,-0.488,0.887,-0.123
26.088,-0.490,0.891,-0.121
26.098,-0.488,0.889,-0.121
26.107,-0.490,0.891,-0.123
26.117,-0.490,0.891,-0.119
26.127,-0.488,0.891,-0.119
26.137,-0.490,0.891,-0.121
26.147,-0.486,0.891,-0.119
26.157,-0.484,0.893,-0.121
26.167,-0.484,0.891,-0.119
26.177,-0.484,0.891,-0.117
26.187,-0.482,0.891,-0.119
26.197,-0.486,0.889,-0.121
26.207,-0.486,0.887,-0.121
26.217,-0.488,0.889,-0.119
26.227,-0.490,0.887,-0.119
26.236,-0.486,0.889,-0.123
26.246,-0.490,0.895,-0.125
26.256,-0.484,0.889,-0.123
26.266,-0.486,0.891,-0.119
26.276,-0.484,0.893,-0.125
26.286,-0.482,0.891,-0.125
26.296,-0.482,0.889,-0.123
26.306,-0.480,0.887,-0.125
26.316,-0.480,0.893,-0.123
26.326,-0.484,0.896,-0.123
26.336,-0.484,0.895,-0.121
26.346,-0.486,0.893,-0.127
26.355,-0.490,0.893,-0.121
26.365,-0.490,0.895,-0.125
26.375,-0.490,0.896,-0.125
26.385,-0.484,0.893,-0.125
26.395,-0.484,0.891,-0.123
26.405,-0.484,0.889,-0.123
26.415,-0.484,0.887,-0.119
26.425,-0.482,0.887,-0.121
26.435,-0.484,0.887,-0.121
26.445,-0.482,0.889,-0.123
26.455,-0.486,0.893,-0.117
26.465,-0.488,0.889,-0.119
26.475,-0.488,0.893,-0.123
26.484,-0.488,0.891,-0.121
26.494,-0.486,0.891,-0.121
26.504,-0.490,0.891,-0.121
26.514,-0.488,0.893,-0.121
26.524,-0.484,0.887,-0.121
26.534,-0.484,0.891,-0.119
26.544,-0.484,0.891,-0.117
26.554,-0.486,0.891,-0.119
26.564,-0.486,0.887,-0.119
26.574,-0.486,0.887,-0.115
26.584,-0.486,0.893,-0.117
26.594,-0.488,0.895,-0.119
26.604,-0.484,0.887,-0.121
26.613,-0.482,0.885,-0.119
26.623,-0.486,0.891,-0.119
26.633,-0.482,0.893,-0.119
26.643,-0.488,0.893,-0.123
26.653,-0.484,0.895,-0.121
26.663,-0.486,0.893,-0.123
26.673,-0.482,0.893,-0.121
26.683,-0.482,0.887,-0.119
26.693,-0.482,0.885,-0.119
26.703,-0.480,0.887,-0.117
26.713,-0.482,0.889,-0.117
26.723,-0.479,0.887,-0.117
26.733,-0.482,0.891,-0.125
26.742,-0.484,0.891,-0.123
26.752,-0.484,0.891,-0.125
26.762,-0.484,0.891,-0.123
26.772,-0.484,0.889,-0.123
26.782,-0.486,0.893,-0.123
26.792,-0.484,0.893,-0.125
26.802,-0.480,0.893,-0.121
26.812,-0.486,0.895,-0.121
26.822,-0.482,0.891,-0.121
26.832,-0.480,0.893,-0.123
26.842,-0.486,0.891,-0.123
26.852,-0.484,0.895,-0.121
26.862,-0.482,0.889,-0.123
26.871,-0.482,0.893,-0.121
26.881,-0.484,0.891,-0.117
26.891,-0.486,0.893,-0.121
26.901,-0.486,0.893,-0.121
26.911,-0.484,0.891,-0.119
26.921,-0.484,0.893,-0.119
26.931,-0.482,0.893,-0.117
26.941,-0.482,0.891,-0.119
26.951,-0.484,0.889,-0.121
26.961,-0.486,0.891,-0.119
26.971,-0.484,0.893,-0.119
26.981,-0.484,0.893,-0.121
26.991,-0.484,0.891,-0.121
27.000,-0.486,0.895,-0.119
27.010,-0.480,0.893,-0.123
27.020,-0.482,0.889,-0.121
27.030,-0.482,0.893,-0.119
27.040,-0.480,0.895,-0.119
27.050,-0.480,0.889,-0.123
27.060,-0.479,0.887,-0.127
27.070,-0.482,0.893,-0.123
27.080,-0.480,0.896,-0.119
27.090,-0.482,0.895,-0.125
27.100,-0.484,0.889,-0.123
27.110,-0.484,0.891,-0.125
27.119,-0.488,0.893,-0.125
27.129,-0.486,0.895,-0.123
27.139,-0.486,0.895,-0.121
27.149,-0.482,0.896,-0.125
27.159,-0.482,0.895,-0.121
27.169,-0.480,0.891,-0.121
27.179,-0.480,0.887,-0.117
27.189,-0.480,0.889,-0.119
27.199,-0.482,0.889,-0.121
27.209,-0.482,0.895,-0.119
27.219,-0.486,0.893,-0.119
27.229,-0.482,0.893,-0.119
27.239,-0.482,0.893,-0.121
27.248,-0.486,0.895,-0.121
27.258,-0.486,0.893,-0.121
27.268,-0.480,0.891,-0.123
27.278,-0.484,0.889,-0.121
27.288,-0.484,0.889,-0.121
27.298,-0.484,0.889,-0.117
27.308,-0.482,0.893,-0.123
27.318,-0.480,0.891,-0.121
27.328,-0.480,0.893,-0.119
27.338,-0.482,0.898,-0.119
27.348,-0.486,0.900,-0.121
27.358,-0.479,0.887,-0.121
27.368,-0.477,0.891,-0.121
27.377,-0.482,0.889,-0.121
27.387,-0.480,0.891,-0.127
27.397,-0.484,0.895,-0.123
27.407,-0.480,0.893,-0.125
27.417,-0.482,0.895,-0.121
27.427,-0.484,0.896,-0.123
27.437,-0.480,0.891,-0.125
27.447,-0.482,0.891,-0.125
27.457,-0.484,0.891,-0.125
27.467,-0.482,0.887,-0.123
27.477,-0.479,0.891,-0.123
27.487,-0.479,0.891,-0.123
27.497,-0.479,0.895,-0.125
27.506,-0.482,0.895,-0.123
27.516,-0.480,0.895,-0.129
27.526,-0.482,0.893,-0.125
27.536,-0.480,0.893,-0.123
27.546,-0.482,0.893,-0.127
27.556,-0.479,0.891,-0.125
27.566,-0.477,0.895,-0.125
27.576,-0.479,0.893,-0.125
27.586,-0.480,0.895,-0.127
27.596,-0.480,0.895,-0.119
27.606,-0.479,0.891,-0.121
27.616,-0.482,0.889,-0.123
27.626,-0.480,0.889,-0.121
27.635,-0.482,0.891,-0.121
27.645,-0.482,0.891,-0.121
27.655,-0.482,0.889,-0.125
27.665,-0.482,0.893,-0.123
27.675,-0.482,0.891,-0.121
27.685,-0.480,0.891,-0.123
27.695,-0.480,0.893,-0.119
27.705,-0.482,0.889,-0.123
27.715,-0.479,0.893,-0.121
27.725,-0.482,0.895,-0.123
27.735,-0.480,0.895,-0.119
27.745,-0.480,0.893,-0.123
27.755,-0.480,0.893,-0.121
27.764,-0.482,0.893,-0.125
27.774,-0.482,0.893,-0.127
27.784,-0.480,0.891,-0.123
27.794,-0.479,0.891,-0.125
27.804,-0.480,0.893,-0.123
27.814,-0.480,0.895,-0.123
27.824,-0.480,0.896,-0.125
27.834,-0.479,0.895,-0.121
27.844,-0.480,0.898,-0.123
27.854,-0.480,0.895,-0.125
27.864,-0.479,0.889,-0.125
27.874,-0.477,0.891,-0.123
27.883,-0.479,0.896,-0.123
27.893,-0.479,0.898,-0.121
27.903,-0.480,0.893,-0.125
27.913,-0.480,0.891,-0.127
27.923,-0.482,0.895,-0.127
27.933,-0.480,0.898,-0.123
27.943,-0.480,0.896,-0.127
27.953,-0.480,0.895,-0.125
27.963,-0.479,0.893,-0.125
27.973,-0.477,0.891,-0.129
27.983,-0.473,0.893,-0.125
27.993,-0.475,0.893,-0.123
28.003,-0.479,0.893,-0.127
28.012,-0.479,0.895,-0.125
28.022,-0.479,0.895,-0.123
28.032,-0.482,0.896,-0.125
28.042,-0.480,0.891,-0.127
28.052,-0.486,0.891,-0.125
28.062,-0.484,0.889,-0.123
28.072,-0.482,0.889,-0.123
28.082,-0.482,0.889,-0.123
28.092,-0.479,0.891,-0.125
28.102,-0.480,0.895,-0.121
28.112,-0.480,0.893,-0.123
28.122,-0.480,0.893,-0.123
28.132,-0.484,0.895,-0.121
28.141,-0.482,0.891,-0.125
28.151,-0.480,0.895,-0.123
28.161,-0.480,0.898,-0.121
28.171,-0.479,0.893,-0.123
28.181,-0.475,0.887,-0.121
28.191,-0.479,0.889,-0.121
28.201,-0.480,0.891,-0.127
28.211,-0.480,0.895,-0.123
28.221,-0.479,0.895,-0.123
28.231,-0.480,0.896,-0.125
28.241,-0.482,0.896,-0.123
28.251,-0.482,0.891,-0.129
28.261,-0.480,0.893,-0.125
28.270,-0.480,0.895,-0.127
28.280,-0.477,0.891,-0.123
28.290,-0.477,0.893,-0.125
28.300,-0.477,0.893,-0.127
28.310,-0.479,0.891,-0.125
28.320,-0.475,0.893,-0.129
28.330,-0.479,0.896,-0.123
28.340,-0.479,0.896,-0.127
28.350,-0.479,0.896,-0.125
28.360,-0.479,0.896,-0.129
28.370,-0.479,0.896,-0.123
28.380,-0.479,0.898,-0.123
28.390,-0.479,0.896,-0.125
28.399,-0.479,0.893,-0.125
28.409,-0.477,0.887,-0.125
28.419,-0.480,0.891,-0.123
28.429,-0.479,0.891,-0.123
28.439,-0.480,0.893,-0.123
28.449,-0.482,0.893,-0.123
28.459,-0.480,0.889,-0.125
28.469,-0.480,0.891,-0.121
28.479,-0.480,0.893,-0.119
28.489,-0.479,0.893,-0.121
28.499,-0.480,0.891,-0.123
28.509,-0.479,0.893,-0.123
28.519,-0.480,0.891,-0.123
28.528,-0.480,0.896,-0.123
28.538,-0.480,0.893,-0.123
28.548,-0.479,0.891,-0.123
28.558,-0.477,0.893,-0.121
28.568,-0.477,0.893,-0.123
28.578,-0.475,0.895,-0.123
28.588,-0.477,0.895,-0.123
28.598,-0.482,0.893,-0.123
28.608,-0.482,0.895,-0.123
28.618,-0.480,0.893,-0.125
28.628,-0.482,0.893,-0.125
28.638,-0.482,0.891,-0.123
28.647,-0.482,0.891,-0.123
28.657,-0.480,0.895,-0.123
28.667,-0.482,0.893,-0.123
28.677,-0.480,0.893,-0.125
28.687,-0.482,0.895,-0.125
28.697,-0.479,0.889,-0.123
28.707,-0.479,0.891,-0.125
28.717,-0.477,0.895,-0.121
28.727,-0.475,0.895,-0.121
28.737,-0.479,0.893,-0.123
28.747,-0.480,0.887,-0.123
28.757,-0.482,0.889,-0.125
28.767,-0.484,0.893,-0.123
28.776,-0.484,0.895,-0.125
28.786,-0.484,0.898,-0.123
28.796,-0.482,0.895,-0.123
28.806,-0.482,0.893,-0.125
28.816,-0.480,0.889,-0.125
28.826,-0.480,0.893,-0.123
28.836,-0.479,0.891,-0.123
28.846,-0.479,0.891,-0.125
28.856,-0.477,0.893,-0.123
28.866,-0.477,0.893,-0.121
28.876,-0.479,0.895,-0.127
28.886,-0.480,0.893,-0.125
28.896,-0.484,0.891,-0.123
28.905,-0.484,0.895,-0.125
28.915,-0.482,0.893,-0.123
28.925,-0.484,0.891,-0.125
28.935,-0.480,0.891,-0.123
28.945,-0.480,0.893,-0.123
28.955,-0.482,0.889,-0.125
28.965,-0.482,0.891,-0.125
28.975,-0.482,0.889,-0.121
28.985,-0.484,0.889,-0.125
28.995,-0.482,0.891,-0.123
29.005,-0.482,0.896,-0.127
29.015,-0.480,0.889,-0.123
29.025,-0.479,0.891,-0.127
29.034,-0.480,0.893,-0.123
29.044,-0.480,0.895,-0.125
29.054,-0.480,0.896,-0.123
29.064,-0.480,0.893,-0.123
29.074,-0.482,0.895,-0.125
29.084,-0.480,0.893,-0.125
29.094,-0.480,0.891,-0.123
29.104,-0.482,0.891,-0.123
29.114,-0.480,0.891,-0.123
29.124,-0.482,0.889,-0.123
29.134,-0.482,0.889,-0.123
29.144,-0.480,0.891,-0.123
29.154,-0.480,0.891,-0.125
29.163,-0.482,0.891,-0.121
29.173,-0.482,0.895,-0.125
29.183,-0.480,0.893,-0.123
29.193,-0.482,0.893,-0.123
29.203,-0.484,0.895,-0.127
29.213,-0.480,0.893,-0.123
29.223,-0.479,0.895,-0.123
29.233,-0.479,0.895,-0.123
29.243,-0.479,0.896,-0.121
29.253,-0.479,0.895,-0.119
29.263,-0.480,0.896,-0.123
29.273,-0.482,0.895,-0.121
29.283,-0.484,0.891,-0.121
29.292,-0.486,0.895,-0.121
29.302,-0.486,0.891,-0.121
29.312,-0.490,0.889,-0.119
29.322,-0.484,0.889,-0.123
29.332,-0.484,0.889,-0.121
29.342,-0.486,0.891,-0.123
29.352,-0.484,0.887,-0.123
29.362,-0.486,0.889,-0.119
29.372,-0.484,0.891,-0.121
29.382,-0.486,0.893,-0.125
29.392,-0.482,0.893,-0.125
29.402,-0.482,0.893,-0.123
29.411,-0.482,0.893,-0.121
29.421,-0.480,0.895,-0.125
29.431,-0.477,0.893,-0.129
29.441,-0.479,0.896,-0.121
29.451,-0.479,0.893,-0.125
29.461,-0.479,0.893,-0.123
29.471,-0.479,0.891,-0.127
29.481,-0.480,0.895,-0.125
29.491,-0.479,0.891,-0.125
29.501,-0.482,0.891,-0.127
29.511,-0.482,0.887,-0.129
29.521,-0.482,0.889,-0.125
29.531,-0.482,0.887,-0.125
29.540,-0.482,0.891,-0.125
29.550,-0.484,0.896,-0.123
29.560,-0.484,0.898,-0.127
29.570,-0.482,0.896,-0.129
29.580,-0.486,0.896,-0.125
29.590,-0.482,0.895,-0.129
29.600,-0.484,0.893,-0.123
29.610,-0.477,0.898,-0.121
29.620,-0.479,0.895,-0.125
29.630,-0.480,0.891,-0.123
29.640,-0.477,0.893,-0.125
29.650,-0.477,0.887,-0.121
29.660,-0.479,0.889,-0.123
29.669,-0.480,0.893,-0.121
29.679,-0.480,0.893,-0.121
29.689,-0.479,0.891,-0.125
29.699,-0.480,0.893,-0.121
29.709,-0.484,0.893,-0.119
29.719,-0.480,0.891,-0.121
29.729,-0.486,0.895,-0.123
29.739,-0.482,0.891,-0.121
29.749,-0.486,0.891,-0.121
29.759,-0.486,0.891,-0.119
29.769,-0.486,0.893,-0.123
29.779,-0.482,0.895,-0.121
29.789,-0.484,0.889,-0.119
29.798,-0.480,0.893,-0.123
29.808,-0.479,0.898,-0.117
29.818,-0.480,0.896,-0.121
29.828,-0.477,0.889,-0.121
29.838,-0.477,0.889,-0.121
29.848,-0.479,0.891,-0.123
29.858,-0.484,0.895,-0.123
29.868,-0.482,0.898,-0.123
29.878,-0.480,0.896,-0.125
29.888,-0.482,0.896,-0.123
29.898,-0.484,0.891,-0.121
29.908,-0.480,0.891,-0.127
29.918,-0.480,0.889,-0.127
29.927,-0.482,0.889,-0.125
29.937,-0.480,0.893,-0.123
29.947,-0.477,0.893,-0.125
29.957,-0.479,0.896,-0.125
29.967,-0.477,0.898,-0.123
29.977,-0.479,0.896,-0.127
29.987,-0.477,0.895,-0.125
29.997,-0.475,0.893,-0.129
30.007,-0.479,0.895,-0.125
30.017,-0.477,0.893,-0.123
30.027,-0.480,0.893,-0.125
30.037,-0.480,0.893,-0.127
30.047,-0.482,0.895,-0.123
30.056,-0.479,0.893,-0.123
30.066,-0.480,0.893,-0.123
30.076,-0.482,0.895,-0.123
30.086,-0.482,0.893,-0.119
30.096,-0.479,0.893,-0.121
30.106,-0.479,0.893,-0.125
30.116,-0.477,0.893,-0.119
30.126,-0.479,0.895,-0.123
30.136,-0.480,0.893,-0.123
30.146,-0.480,0.895,-0.117
30.156,-0.480,0.893,-0.119
30.166,-0.479,0.895,-0.119
30.175,-0.477,0.893,-0.123
30.185,-0.477,0.891,-0.123
30.195,-0.479,0.891,-0.123
30.205,-0.482,0.896,-0.123
30.215,-0.482,0.895,-0.123
30.225,-0.475,0.895,-0.123
30.235,-0.479,0.895,-0.123
30.245,-0.479,0.896,-0.121
30.255,-0.473,0.889,-0.125
30.265,-0.477,0.891,-0.125
30.275,-0.479,0.896,-0.125
30.285,-0.479,0.898,-0.119
30.295,-0.479,0.895,-0.125
30.304,-0.480,0.891,-0.123
30.314,-0.484,0.893,-0.123
30.324,-0.482,0.896,-0.125
30.334,-0.482,0.898,-0.125
30.344,-0.479,0.895,-0.127
30.354,-0.480,0.898,-0.125
30.364,-0.480,0.891,-0.123
30.374,-0.479,0.891,-0.125
30.384,-0.477,0.889,-0.125
30.394,-0.480,0.889,-0.123
30.404,-0.480,0.887,-0.125
30.414,-0.482,0.891,-0.123
30.424,-0.482,0.891,-0.125
30.433,-0.480,0.895,-0.123
30.443,-0.484,0.895,-0.129
30.453,-0.480,0.893,-0.123
30.463,-0.480,0.893,-0.125
30.473,-0.477,0.891,-0.129
30.483,-0.477,0.891,-0.125
30.493,-0.479,0.895,-0.123
30.503,-0.479,0.893,-0.125
30.513,-0.475,0.891,-0.123
30.523,-0.477,0.891,-0.123
30.533,-0.479,0.896,-0.125
30.543,-0.477,0.898,-0.123
30.553,-0.479,0.895,-0.121
30.562,-0.477,0.887,-0.123
30.572,-0.479,0.887,-0.123
30.582,-0.477,0.891,-0.129
30.592,-0.477,0.896,-0.127
30.602,-0.479,0.896,-0.125
30.612,-0.477,0.895,-0.125
30.622,-0.479,0.895,-0.125
30.632,-0.479,0.893,-0.125
30.642,-0.479,0.893,-0.123
30.652,-0.479,0.891,-0.125
30.662,-0.479,0.887,-0.125
30.672,-0.477,0.893,-0.125
30.682,-0.477,0.896,-0.125
30.691,-0.475,0.893,-0.125
30.701,-0.479,0.896,-0.127
30.711,-0.479,0.895,-0.125
30.721,-0.477,0.896,-0.125
30.731,-0.477,0.895,-0.127
30.741,-0.479,0.893,-0.129
30.751,-0.480,0.893,-0.125
30.761,-0.482,0.893,-0.127
30.771,-0.479,0.893,-0.125
30.781,-0.482,0.893,-0.127
30.791,-0.480,0.893,-0.125
30.801,-0.482,0.893,-0.125
30.811,-0.482,0.891,-0.125
30.820,-0.482,0.893,-0.125
30.830,-0.480,0.895,-0.123
30.840,-0.479,0.891,-0.123
30.850,-0.480,0.893,-0.123
30.860,-0.482,0.895,-0.121
30.870,-0.480,0.893,-0.123
30.880,-0.480,0.893,-0.123
30.890,-0.479,0.891,-0.123
30.900,-0.479,0.893,-0.125
30.910,-0.477,0.896,-0.127
30.920,-0.479,0.896,-0.125
30.930,-0.475,0.893,-0.125
30.939,-0.475,0.895,-0.127
30.949,-0.475,0.896,-0.125
30.959,-0.473,0.893,-0.127
30.969,-0.471,0.893,-0.121
30.979,-0.473,0.895,-0.121
30.989,-0.473,0.898,-0.121
30.999,-0.471,0.895,-0.125
31.009,-0.475,0.891,-0.125
31.019,-0.480,0.893,-0.125
31.029,-0.480,0.898,-0.123
31.039,-0.482,0.898,-0.125
31.049,-0.480,0.898,-0.127
31.059,-0.477,0.896,-0.123
31.068,-0.475,0.898,-0.127
31.078,-0.479,0.891,-0.127
31.088,-0.479,0.891,-0.125
31.098,-0.475,0.893,-0.125
31.108,-0.479,0.893,-0.123
31.118,-0.479,0.893,-0.123
31.128,-0.480,0.896,-0.125
31.138,-0.480,0.891,-0.123
31.148,-0.482,0.895,-0.121
31.158,-0.482,0.893,-0.127
31.168,-0.482,0.887,-0.121
31.178,-0.484,0.895,-0.127
31.188,-0.480,0.891,-0.125
31.197,-0.482,0.893,-0.123
31.207,-0.480,0.891,-0.123
31.217,-0.479,0.893,-0.121
31.227,-0.479,0.893,-0.127
31.237,-0.477,0.891,-0.121
31.247,-0.473,0.896,-0.123
31.257,-0.473,0.900,-0.121
31.267,-0.473,0.896,-0.123
31.277,-0.471,0.891,-0.125
31.287,-0.477,0.893,-0.123
31.297,-0.475,0.898,-0.127
31.307,-0.477,0.898,-0.125
31.317,-0.477,0.898,-0.123
31.326,-0.479,0.895,-0.125
31.336,-0.477,0.896,-0.125
31.346,-0.475,0.895,-0.127
31.356,-0.477,0.895,-0.127
31.366,-0.477,0.893,-0.127
31.376,-0.477,0.893,-0.127
31.386,-0.471,0.891,-0.127
31.396,-0.475,0.898,-0.127
31.406,-0.473,0.893,-0.125
31.416,-0.475,0.895,-0.127
31.426,-0.475,0.895,-0.125
31.436,-0.473,0.896,-0.129
31.446,-0.477,0.895,-0.127
31.455,-0.477,0.896,-0.125
31.465,-0.477,0.893,-0.131
31.475,-0.477,0.895,-0.127
31.485,-0.477,0.895,-0.127
31.495,-0.475,0.896,-0.127
31.505,-0.475,0.895,-0.123
31.515,-0.477,0.893,-0.123
31.525,-0.477,0.891,-0.125
31.535,-0.479,0.895,-0.125
31.545,-0.477,0.895,-0.123
31.555,-0.479,0.893,-0.125
31.565,-0.480,0.893,-0.123
31.575,-0.480,0.895,-0.125
31.584,-0.480,0.893,-0.125
31.594,-0.479,0.893,-0.125
31.604,-0.479,0.896,-0.121
31.614,-0.479,0.893,-0.121
31.624,-0.477,0.895,-0.123
31.634,-0.479,0.891,-0.123
31.644,-0.477,0.895,-0.123
31.654,-0.477,0.893,-0.127
31.664,-0.475,0.895,-0.125
31.674,-0.477,0.893,-0.123
31.684,-0.475,0.893,-0.123
31.694,-0.475,0.896,-0.125
31.703,-0.477,0.896,-0.127
31.713,-0.475,0.898,-0.125
31.723,-0.479,0.896,-0.121
31.733,-0.479,0.896,-0.123
31.743,-0.477,0.895,-0.125
31.753,-0.477,0.895,-0.125
31.763,-0.475,0.895,-0.125
31.773,-0.475,0.896,-0.127
31.783,-0.471,0.895,-0.125
31.793,-0.475,0.893,-0.125
31.803,-0.477,0.893,-0.127
31.813,-0.482,0.896,-0.123
31.823,-0.479,0.900,-0.127
31.832,-0.477,0.900,-0.127
31.842,-0.475,0.898,-0.129
31.852,-0.477,0.898,-0.127
31.862,-0.473,0.895,-0.125
31.872,-0.475,0.896,-0.125
31.882,-0.477,0.893,-0.127
31.892,-0.479,0.895,-0.127
31.902,-0.477,0.893,-0.127
31.912,-0.477,0.893,-0.127
31.922,-0.480,0.891,-0.127
31.932,-0.479,0.893,-0.123
31.942,-0.477,0.895,-0.123
31.952,-0.480,0.891,-0.123
31.961,-0.475,0.893,-0.125
31.971,-0.482,0.895,-0.125
31.981,-0.479,0.895,-0.123
31.991,-0.479,0.893,-0.123
32.001,-0.477,0.893,-0.123
32.011,-0.479,0.893,-0.119
32.021,-0.477,0.891,-0.119
32.031,-0.479,0.893,-0.121
32.041,-0.473,0.898,-0.121
32.051,-0.475,0.898,-0.123
32.061,-0.471,0.891,-0.125
32.071,-0.473,0.893,-0.125
32.081,-0.479,0.896,-0.121
32.090,-0.475,0.900,-0.125
32.100,-0.477,0.895,-0.125
32.110,-0.480,0.896,-0.125
32.120,-0.479,0.898,-0.127
32.130,-0.479,0.896,-0.125
32.140,-0.480,0.896,-0.125
32.150,-0.479,0.891,-0.127
32.160,-0.477,0.891,-0.127
32.170,-0.477,0.893,-0.127
32.180,-0.475,0.895,-0.133
32.190,-0.477,0.895,-0.125
32.200,-0.475,0.896,-0.127
32.210,-0.477,0.891,-0.127
32.219,-0.480,0.895,-0.129
32.229,-0.480,0.895,-0.127
32.239,-0.479,0.895,-0.127
32.249,-0.479,0.895,-0.129
32.259,-0.477,0.896,-0.127
32.269,-0.480,0.895,-0.125
32.279,-0.479,0.895,-0.125
32.289,-0.479,0.896,-0.123
32.299,-0.477,0.895,-0.127
32.309,-0.479,0.893,-0.127
32.319,-0.477,0.895,-0.125
32.329,-0.479,0.895,-0.123
32.339,-0.479,0.893,-0.121
32.348,-0.480,0.893,-0.123
32.358,-0.477,0.893,-0.123
32.368,-0.479,0.895,-0.121
32.378,-0.477,0.895,-0.121
32.388,-0.477,0.893,-0.123
32.398,-0.475,0.895,-0.123
32.408,-0.477,0.893,-0.119
32.418,-0.479,0.895,-0.125
32.428,-0.475,0.893,-0.123
32.438,-0.477,0.896,-0.123
32.448,-0.475,0.895,-0.123
32.458,-0.475,0.896,-0.125
32.467,-0.475,0.896,-0.121
32.477,-0.471,0.893,-0.121
32.487,-0.473,0.896,-0.123
32.497,-0.475,0.900,-0.129
32.507,-0.477,0.895,-0.127
32.517,-0.477,0.898,-0.123
32.527,-0.475,0.896,-0.125
32.537,-0.471,0.895,-0.123
32.547,-0.473,0.889,-0.123
32.557,-0.471,0.895,-0.125
32.567,-0.473,0.896,-0.123
32.577,-0.475,0.900,-0.123
32.587,-0.477,0.898,-0.125
32.596,-0.479,0.893,-0.127
32.606,-0.480,0.896,-0.125
32.616,-0.479,0.898,-0.127
32.626,-0.479,0.896,-0.125
32.636,-0.477,0.898,-0.123
32.646,-0.473,0.898,-0.125
32.656,-0.475,0.896,-0.125
32.666,-0.473,0.891,-0.123
32.676,-0.475,0.893,-0.125
32.686,-0.471,0.893,-0.121
32.696,-0.473,0.895,-0.123
32.706,-0.473,0.896,-0.125
32.716,-0.475,0.895,-0.121
32.725,-0.473,0.895,-0.121
32.735,-0.473,0.895,-0.123
32.745,-0.471,0.895,-0.125
32.755,-0.477,0.893,-0.121
32.765,-0.473,0.896,-0.123
32.775,-0.471,0.896,-0.125
32.785,-0.475,0.895,-0.123
32.795,-0.475,0.896,-0.123
32.805,-0.479,0.893,-0.127
32.815,-0.473,0.893,-0.123
32.825,-0.469,0.898,-0.123
32.835,-0.473,0.902,-0.121
32.845,-0.473,0.896,-0.123
32.854,-0.467,0.891,-0.123
32.864,-0.471,0.896,-0.125
32.874,-0.475,0.898,-0.123
32.884,-0.471,0.898,-0.131
32.894,-0.473,0.900,-0.125
32.904,-0.475,0.896,-0.123
32.914,-0.471,0.896,-0.125
32.924,-0.473,0.896,-0.125
32.934,-0.473,0.895,-0.121
32.944,-0.471,0.895,-0.125
32.954,-0.469,0.893,-0.125
32.964,-0.469,0.896,-0.125
32.974,-0.469,0.895,-0.127
32.983,-0.471,0.898,-0.125
32.993,-0.471,0.898,-0.129
33.003,-0.475,0.896,-0.127
33.013,-0.475,0.898,-0.127
33.023,-0.473,0.898,-0.127
33.033,-0.473,0.898,-0.129
33.043,-0.469,0.896,-0.131
33.053,-0.473,0.896,-0.129
33.063,-0.473,0.896,-0.129
33.073,-0.475,0.895,-0.127
33.083,-0.475,0.896,-0.127
33.093,-0.475,0.896,-0.125
33.103,-0.471,0.896,-0.125
33.112,-0.475,0.896,-0.123
33.122,-0.471,0.898,-0.123
33.132,-0.471,0.896,-0.125
33.142,-0.471,0.895,-0.123
33.152,-0.471,0.896,-0.125
33.162,-0.473,0.896,-0.125
33.172,-0.477,0.896,-0.123
33.182,-0.473,0.895,-0.121
33.192,-0.475,0.896,-0.121
33.202,-0.473,0.896,-0.121
33.212,-0.477,0.896,-0.119
33.222,-0.473,0.898,-0.123
33.231,-0.471,0.895,-0.121
33.241,-0.473,0.900,-0.123
33.251,-0.473,0.900,-0.125
33.261,-0.467,0.893,-0.121
33.271,-0.473,0.893,-0.121
33.281,-0.473,0.898,-0.121
33.291,-0.471,0.895,-0.123
33.301,-0.467,0.891,-0.123
33.311,-0.475,0.898,-0.121
33.321,-0.475,0.902,-0.123
33.331,-0.471,0.900,-0.125
33.341,-0.473,0.895,-0.129
33.351,-0.475,0.896,-0.123
33.360,-0.477,0.898,-0.123
33.370,-0.475,0.900,-0.125
33.380,-0.471,0.900,-0.125
33.390,-0.471,0.896,-0.123
33.400,-0.469,0.898,-0.121
33.410,-0.463,0.896,-0.127
33.420,-0.469,0.896,-0.123
33.430,-0.469,0.893,-0.127
33.440,-0.471,0.895,-0.125
33.450,-0.471,0.896,-0.125
33.460,-0.477,0.898,-0.125
33.470,-0.475,0.898,-0.127
33.480,-0.473,0.898,-0.125
33.489,-0.475,0.898,-0.127
33.499,-0.475,0.898,-0.125
33.509,-0.471,0.895,-0.123
33.519,-0.471,0.896,-0.127
33.529,-0.473,0.898,-0.123
33.539,-0.473,0.896,-0.123
33.549,-0.473,0.896,-0.125
33.559,-0.471,0.896,-0.123
33.569,-0.471,0.896,-0.127
33.579,-0.471,0.900,-0.121
33.589,-0.471,0.902,-0.125
33.599,-0.469,0.891,-0.125
33.609,-0.471,0.895,-0.125
33.618,-0.469,0.896,-0.125
33.628,-0.469,0.898,-0.127
33.638,-0.471,0.900,-0.125
33.648,-0.473,0.900,-0.123
33.658,-0.471,0.900,-0.127
33.668,-0.473,0.896,-0.127
33.678,-0.471,0.895,-0.125
33.688,-0.469,0.896,-0.127
33.698,-0.469,0.896,-0.129
33.708,-0.467,0.895,-0.127
33.718,-0.471,0.898,-0.127
33.728,-0.471,0.900,-0.127
33.738,-0.475,0.900,-0.127
33.747,-0.473,0.898,-0.127
33.757,-0.467,0.898,-0.127
33.767,-0.471,0.896,-0.129
33.777,-0.471,0.896,-0.127
33.787,-0.471,0.895,-0.129
33.797,-0.475,0.898,-0.129
33.807,-0.475,0.898,-0.125
33.817,-0.471,0.898,-0.125
33.827,-0.467,0.898,-0.127
33.837,-0.469,0.898,-0.125
33.847,-0.471,0.896,-0.125
33.857,-0.473,0.898,-0.127
33.867,-0.469,0.896,-0.123
33.876,-0.473,0.896,-0.121
33.886,-0.471,0.896,-0.125
33.896,-0.473,0.898,-0.125
33.906,-0.471,0.898,-0.125
33.916,-0.471,0.898,-0.123
33.926,-0.469,0.896,-0.123
33.936,-0.473,0.896,-0.123
33.946,-0.471,0.895,-0.125
33.956,-0.469,0.898,-0.125
33.966,-0.473,0.898,-0.127
33.976,-0.471,0.896,-0.125
33.986,-0.471,0.898,-0.123
33.995,-0.469,0.898,-0.127
34.005,-0.469,0.900,-0.127
34.015,-0.469,0.896,-0.123
34.025,-0.469,0.896,-0.125
34.035,-0.469,0.898,-0.125
34.045,-0.469,0.898,-0.129
34.055,-0.473,0.893,-0.125
34.065,-0.473,0.898,-0.127
34.075,-0.471,0.900,-0.125
34.085,-0.471,0.893,-0.125
34.095,-0.471,0.893,-0.127
34.105,-0.469,0.898,-0.123
34.115,-0.469,0.898,-0.127
34.124,-0.469,0.898,-0.127
34.134,-0.473,0.896,-0.127
34.144,-0.473,0.895,-0.125
34.154,-0.477,0.900,-0.127
34.164,-0.473,0.902,-0.131
34.174,-0.473,0.900,-0.125
34.184,-0.471,0.898,-0.129
34.194,-0.467,0.896,-0.127
34.204,-0.469,0.896,-0.131
34.214,-0.467,0.895,-0.125
34.224,-0.469,0.896,-0.125
34.234,-0.471,0.898,-0.123
34.244,-0.473,0.895,-0.123
34.253,-0.473,0.898,-0.127
34.263,-0.473,0.896,-0.125
34.273,-0.475,0.895,-0.127
34.283,-0.475,0.895,-0.127
34.293,-0.473,0.896,-0.121
34.303,-0.471,0.895,-0.127
34.313,-0.473,0.893,-0.127
34.323,-0.473,0.896,-0.127
34.333,-0.469,0.896,-0.123
34.343,-0.471,0.898,-0.125
34.353,-0.473,0.896,-0.125
34.363,-0.471,0.893,-0.125
34.373,-0.469,0.900,-0.123
34.382,-0.469,0.904,-0.123
34.392,-0.469,0.898,-0.125
34.402,-0.467,0.891,-0.123
34.412,-0.469,0.896,-0.125
34.422,-0.473,0.900,-0.125
34.432,-0.473,0.895,-0.127
34.442,-0.471,0.898,-0.127
34.452,-0.471,0.900,-0.127
34.462,-0.473,0.896,-0.129
34.472,-0.475,0.893,-0.125
34.482,-0.475,0.895,-0.127
34.492,-0.471,0.895,-0.127
34.502,-0.471,0.896,-0.125
34.511,-0.473,0.896,-0.127
34.521,-0.471,0.896,-0.123
34.531,-0.471,0.896,-0.127
34.541,-0.469,0.895,-0.125
34.551,-0.471,0.898,-0.127
34.561,-0.475,0.895,-0.125
34.571,-0.471,0.895,-0.129
34.581,-0.471,0.896,-0.127
34.591,-0.475,0.896,-0.127
34.601,-0.471,0.898,-0.127
34.611,-0.473,0.900,-0.129
34.621,-0.473,0.898,-0.129
34.631,-0.475,0.898,-0.127
34.640,-0.473,0.895,-0.127
34.650,-0.471,0.898,-0.129
34.660,-0.473,0.896,-0.125
34.670,-0.471,0.893,-0.123
34.680,-0.473,0.896,-0.125
34.690,-0.471,0.896,-0.125
34.700,-0.473,0.896,-0.123
34.710,-0.473,0.896,-0.127
34.720,-0.473,0.896,-0.123
34.730,-0.473,0.893,-0.123
34.740,-0.475,0.896,-0.125
34.750,-0.475,0.896,-0.125
34.759,-0.471,0.895,-0.127
34.769,-0.471,0.896,-0.125
34.779,-0.471,0.898,-0.125
34.789,-0.469,0.896,-0.127
34.799,-0.469,0.896,-0.125
34.809,-0.471,0.898,-0.125
34.819,-0.473,0.898,-0.129
34.829,-0.473,0.895,-0.125
34.839,-0.473,0.893,-0.127
34.849,-0.471,0.895,-0.127
34.859,-0.473,0.898,-0.129
34.869,-0.473,0.896,-0.127
34.879,-0.473,0.898,-0.127
34.888,-0.473,0.900,-0.125
34.898,-0.471,0.896,-0.127
34.908,-0.473,0.895,-0.125
34.918,-0.473,0.898,-0.125
34.928,-0.473,0.898,-0.123
34.938,-0.473,0.891,-0.125
34.948,-0.469,0.895,-0.125
34.958,-0.471,0.900,-0.123
34.968,-0.471,0.898,-0.123
34.978,-0.471,0.896,-0.125
34.988,-0.473,0.893,-0.127
34.998,-0.477,0.896,-0.125
35.008,-0.477,0.898,-0.125
35.017,-0.475,0.896,-0.125
35.027,-0.473,0.896,-0.127
35.037,-0.473,0.898,-0.127
35.047,-0.473,0.895,-0.125
35.057,-0.469,0.896,-0.125
35.067,-0.469,0.896,-0.125
35.077,-0.469,0.895,-0.125
35.087,-0.471,0.896,-0.129
35.097,-0.471,0.896,-0.127
35.107,-0.473,0.896,-0.127
35.117,-0.473,0.895,-0.121
35.127,-0.473,0.896,-0.123
35.137,-0.477,0.896,-0.123
35.146,-0.477,0.895,-0.125
35.156,-0.477,0.895,-0.125
35.166,-0.471,0.893,-0.125
35.176,-0.473,0.895,-0.125
35.186,-0.475,0.896,-0.125
35.196,-0.477,0.896,-0.121
35.206,-0.477,0.896,-0.123
35.216,-0.471,0.893,-0.125
35.226,-0.471,0.896,-0.123
35.236,-0.471,0.898,-0.123
35.246,-0.471,0.900,-0.123
35.256,-0.467,0.895,-0.123
35.266,-0.473,0.895,-0.127
35.275,-0.473,0.898,-0.125
35.285,-0.473,0.898,-0.125
35.295,-0.473,0.898,-0.125
35.305,-0.475,0.898,-0.125
35.315,-0.473,0.896,-0.125
35.325,-0.475,0.893,-0.127
35.335,-0.473,0.895,-0.127
35.345,-0.473,0.895,-0.127
35.355,-0.473,0.896,-0.125
35.365,-0.473,0.891,-0.125
35.375,-0.473,0.893,-0.127
35.385,-0.473,0.896,-0.127
35.395,-0.473,0.896,-0.125
35.404,-0.473,0.896,-0.129
35.414,-0.471,0.898,-0.127
35.424,-0.471,0.896,-0.129
35.434,-0.473,0.900,-0.129
35.444,-0.473,0.898,-0.129
35.454,-0.475,0.898,-0.129
35.464,-0.473,0.898,-0.127
35.474,-0.477,0.896,-0.127
35.484,-0.473,0.895,-0.125
35.494,-0.471,0.895,-0.127
35.504,-0.473,0.896,-0.123
35.514,-0.473,0.895,-0.127
35.523,-0.473,0.895,-0.125
35.533,-0.471,0.893,-0.121
35.543,-0.473,0.895,-0.125
35.553,-0.475,0.896,-0.123
35.563,-0.471,0.895,-0.121
35.573,-0.471,0.895,-0.129
35.583,-0.475,0.895,-0.125
35.593,-0.479,0.898,-0.125
35.603,-0.471,0.895,-0.127
35.613,-0.475,0.895,-0.125
35.623,-0.473,0.896,-0.127
35.633,-0.473,0.896,-0.125
35.643,-0.473,0.896,-0.125
35.652,-0.473,0.898,-0.125
35.662,-0.471,0.896,-0.125
35.672,-0.471,0.896,-0.121
35.682,-0.473,0.898,-0.125
35.692,-0.471,0.896,-0.123
35.702,-0.473,0.895,-0.129
35.712,-0.473,0.896,-0.125
35.722,-0.473,0.896,-0.129
35.732,-0.477,0.893,-0.125
35.742,-0.473,0.896,-0.127
35.752,-0.473,0.895,-0.125
35.762,-0.473,0.896,-0.127
35.772,-0.471,0.902,-0.129
35.781,-0.471,0.898,-0.125
35.791,-0.473,0.900,-0.129
35.801,-0.473,0.900,-0.127
35.811,-0.471,0.896,-0.127
35.821,-0.469,0.893,-0.125
35.831,-0.469,0.895,-0.123
35.841,-0.469,0.895,-0.127
35.851,-0.469,0.896,-0.127
35.861,-0.473,0.895,-0.123
35.871,-0.475,0.896,-0.127
35.881,-0.475,0.898,-0.127
35.891,-0.473,0.898,-0.127
35.901,-0.475,0.900,-0.127
35.910,-0.471,0.898,-0.129
35.920,-0.471,0.895,-0.129
35.930,-0.469,0.896,-0.129
35.940,-0.471,0.893,-0.129
35.950,-0.469,0.896,-0.127
35.960,-0.475,0.895,-0.125
35.970,-0.475,0.896,-0.127
35.980,-0.477,0.898,-0.129
35.990,-0.477,0.896,-0.125
36.000,-0.479,0.895,-0.127
36.010,-0.480,0.895,-0.129
36.020,-0.479,0.895,-0.129
36.030,-0.479,0.896,-0.125
36.039,-0.479,0.893,-0.127
36.049,-0.477,0.893,-0.121
36.059,-0.475,0.893,-0.127
36.069,-0.473,0.893,-0.125
36.079,-0.479,0.895,-0.125
36.089,-0.473,0.893,-0.121
36.099,-0.471,0.896,-0.123
36.109,-0.471,0.904,-0.121
36.119,-0.473,0.896,-0.121
36.129,-0.469,0.889,-0.127
36.139,-0.473,0.893,-0.125
36.149,-0.473,0.896,-0.117
36.159,-0.475,0.898,-0.125
36.168,-0.475,0.896,-0.123
36.178,-0.475,0.898,-0.127
36.188,-0.473,0.900,-0.125
36.198,-0.471,0.893,-0.121
36.208,-0.469,0.896,-0.123
36.218,-0.469,0.895,-0.125
36.228,-0.467,0.895,-0.125
36.238,-0.463,0.891,-0.125
36.248,-0.467,0.895,-0.127
36.258,-0.473,0.895,-0.129
36.268,-0.471,0.896,-0.127
36.278,-0.473,0.896,-0.125
36.287,-0.477,0.898,-0.129
36.297,-0.469,0.900,-0.131
36.307,-0.475,0.896,-0.129
36.317,-0.475,0.898,-0.131
36.327,-0.471,0.898,-0.131
36.337,-0.473,0.896,-0.129
36.347,-0.471,0.895,-0.133
36.357,-0.471,0.893,-0.131
36.367,-0.473,0.895,-0.127
36.377,-0.473,0.896,-0.127
36.387,-0.471,0.896,-0.125
36.397,-0.473,0.900,-0.127
36.407,-0.469,0.896,-0.129
36.416,-0.471,0.893,-0.125
36.426,-0.471,0.895,-0.125
36.436,-0.473,0.896,-0.129
36.446,-0.477,0.895,-0.125
36.456,-0.475,0.896,-0.121
36.466,-0.477,0.896,-0.125
36.476,-0.479,0.895,-0.127
36.486,-0.475,0.896,-0.125
36.496,-0.477,0.896,-0.123
36.506,-0.475,0.895,-0.123
36.516,-0.475,0.895,-0.123
36.526,-0.473,0.896,-0.125
36.536,-0.473,0.898,-0.123
36.545,-0.471,0.895,-0.123
36.555,-0.471,0.898,-0.127
36.565,-0.471,0.898,-0.127
36.575,-0.471,0.896,-0.125
36.585,-0.473,0.896,-0.127
36.595,-0.471,0.896,-0.119
36.605,-0.471,0.896,-0.129
36.615,-0.473,0.900,-0.127
36.625,-0.469,0.898,-0.127
36.635,-0.471,0.893,-0.125
36.645,-0.467,0.895,-0.125
36.655,-0.469,0.896,-0.121
36.665,-0.469,0.895,-0.123
36.674,-0.467,0.895,-0.125
36.684,-0.475,0.900,-0.125
36.694,-0.473,0.904,-0.127
36.704,-0.473,0.898,-0.125
36.714,-0.473,0.896,-0.125
36.724,-0.479,0.898,-0.125
36.734,-0.473,0.898,-0.127
36.744,-0.475,0.900,-0.125
36.754,-0.475,0.896,-0.125
36.764,-0.471,0.895,-0.125
36.774,-0.469,0.895,-0.123
36.784,-0.469,0.895,-0.123
36.794,-0.469,0.893,-0.123
36.803,-0.471,0.891,-0.125
36.813,-0.479,0.891,-0.125
36.823,-0.475,0.896,-0.125
36.833,-0.480,0.898,-0.125
36.843,-0.477,0.898,-0.125
36.853,-0.479,0.898,-0.125
36.863,-0.479,0.900,-0.127
36.873,-0.479,0.896,-0.127
36.883,-0.475,0.896,-0.125
36.893,-0.473,0.895,-0.123
36.903,-0.469,0.893,-0.125
36.913,-0.471,0.896,-0.123
36.923,-0.471,0.896,-0.123
36.932,-0.471,0.895,-0.121
36.942,-0.467,0.895,-0.123
36.952,-0.471,0.904,-0.123
36.962,-0.475,0.900,-0.119
36.972,-0.469,0.889,-0.123
36.982,-0.471,0.891,-0.121
36.992,-0.473,0.895,-0.123
37.002,-0.477,0.896,-0.125
37.012,-0.477,0.898,-0.125
37.022,-0.473,0.902,-0.127
37.032,-0.479,0.898,-0.127
37.042,-0.475,0.898,-0.127
37.051,-0.473,0.896,-0.123
37.061,-0.467,0.893,-0.125
37.071,-0.467,0.893,-0.123
37.081,-0.465,0.893,-0.125
37.091,-0.467,0.898,-0.123
37.101,-0.467,0.898,-0.123
37.111,-0.469,0.900,-0.125
37.121,-0.469,0.898,-0.125
37.131,-0.471,0.900,-0.125
37.141,-0.473,0.900,-0.125
37.151,-0.471,0.898,-0.125
37.161,-0.471,0.895,-0.127
37.171,-0.473,0.896,-0.127
37.180,-0.471,0.900,-0.123
37.190,-0.469,0.898,-0.127
37.200,-0.471,0.895,-0.125
37.210,-0.471,0.898,-0.125
37.220,-0.471,0.896,-0.127
37.230,-0.471,0.896,-0.125
37.240,-0.471,0.896,-0.125
37.250,-0.473,0.898,-0.125
37.260,-0.473,0.898,-0.123
37.270,-0.473,0.896,-0.123
37.280,-0.473,0.896,-0.123
37.290,-0.471,0.900,-0.125
37.300,-0.469,0.896,-0.123
37.309,-0.469,0.895,-0.123
37.319,-0.467,0.896,-0.121
37.329,-0.473,0.896,-0.125
37.339,-0.471,0.898,-0.123
37.349,-0.473,0.896,-0.125
37.359,-0.471,0.896,-0.123
37.369,-0.471,0.898,-0.125
37.379,-0.471,0.896,-0.125
37.389,-0.469,0.898,-0.123
37.399,-0.471,0.896,-0.123
37.409,-0.471,0.898,-0.123
37.419,-0.471,0.896,-0.123
37.429,-0.471,0.900,-0.125
37.438,-0.473,0.902,-0.127
37.448,-0.471,0.896,-0.123
37.458,-0.469,0.896,-0.123
37.468,-0.471,0.900,-0.123
37.478,-0.471,0.898,-0.129
37.488,-0.465,0.893,-0.125
37.498,-0.465,0.896,-0.123
37.508,-0.469,0.900,-0.127
37.518,-0.467,0.904,-0.129
37.528,-0.469,0.896,-0.127
37.538,-0.471,0.898,-0.129
37.548,-0.471,0.898,-0.127
37.558,-0.473,0.902,-0.127
37.567,-0.471,0.904,-0.125
37.577,-0.469,0.900,-0.125
37.587,-0.469,0.895,-0.127
37.597,-0.467,0.896,-0.125
37.607,-0.469,0.896,-0.123
37.617,-0.469,0.895,-0.125
37.627,-0.469,0.895,-0.125
37.637,-0.471,0.898,-0.125
37.647,-0.469,0.900,-0.129
37.657,-0.469,0.898,-0.125
37.667,-0.469,0.898,-0.125
37.677,-0.471,0.895,-0.125
37.687,-0.467,0.896,-0.123
37.696,-0.467,0.898,-0.125
37.706,-0.469,0.896,-0.123
37.716,-0.467,0.898,-0.127
37.726,-0.469,0.896,-0.123
37.736,-0.471,0.898,-0.125
37.746,-0.469,0.902,-0.125
37.756,-0.469,0.895,-0.127
37.766,-0.467,0.898,-0.123
37.776,-0.469,0.900,-0.125
37.786,-0.471,0.900,-0.125
37.796,-0.465,0.889,-0.125
37.806,-0.467,0.896,-0.125
37.815,-0.467,0.895,-0.125
37.825,-0.469,0.900,-0.127
37.835,-0.471,0.902,-0.123
37.845,-0.471,0.904,-0.127
37.855,-0.471,0.898,-0.127
37.865,-0.471,0.896,-0.129
37.875,-0.469,0.896,-0.129
37.885,-0.467,0.893,-0.129
37.895,-0.467,0.896,-0.127
37.905,-0.465,0.896,-0.127
37.915,-0.463,0.898,-0.125
37.925,-0.471,0.900,-0.127
37.935,-0.467,0.900,-0.129
37.944,-0.469,0.900,-0.129
37.954,-0.465,0.900,-0.131
37.964,-0.469,0.898,-0.131
37.974,-0.467,0.898,-0.127
37.984,-0.469,0.898,-0.127
37.994,-0.467,0.900,-0.131
38.004,-0.469,0.898,-0.125
38.014,-0.467,0.896,-0.129
38.024,-0.467,0.898,-0.129
38.034,-0.469,0.896,-0.129
38.044,-0.469,0.896,-0.127
38.054,-0.467,0.898,-0.125
38.064,-0.471,0.898,-0.125
38.073,-0.469,0.896,-0.125
38.083,-0.467,0.898,-0.123
38.093,-0.469,0.896,-0.125
38.103,-0.469,0.898,-0.125
38.113,-0.471,0.898,-0.127
38.123,-0.473,0.898,-0.127
38.133,-0.471,0.896,-0.125
38.143,-0.469,0.898,-0.125
38.153,-0.471,0.898,-0.125
38.163,-0.471,0.904,-0.125
38.173,-0.465,0.900,-0.127
38.183,-0.465,0.900,-0.123
38.193,-0.465,0.898,-0.125
38.202,-0.465,0.898,-0.127
38.212,-0.465,0.898,-0.127
38.222,-0.469,0.902,-0.127
38.232,-0.471,0.898,-0.129
38.242,-0.467,0.900,-0.127
38.252,-0.467,0.898,-0.127
38.262,-0.463,0.898,-0.127
38.272,-0.465,0.900,-0.131
38.282,-0.467,0.900,-0.129
38.292,-0.467,0.898,-0.131
38.302,-0.469,0.902,-0.131
38.312,-0.471,0.900,-0.127
38.322,-0.469,0.900,-0.127
38.331,-0.463,0.895,-0.127
38.341,-0.465,0.896,-0.125
38.351,-0.465,0.900,-0.123
38.361,-0.465,0.898,-0.125
38.371,-0.467,0.895,-0.127
38.381,-0.469,0.896,-0.129
38.391,-0.469,0.898,-0.127
38.401,-0.473,0.902,-0.131
38.411,-0.471,0.902,-0.127
38.421,-0.465,0.900,-0.131
38.431,-0.469,0.898,-0.129
38.441,-0.469,0.898,-0.129
38.451,-0.467,0.896,-0.127
38.460,-0.467,0.898,-0.127
38.470,-0.469,0.900,-0.129
38.480,-0.465,0.895,-0.125
38.490,-0.469,0.898,-0.127
38.500,-0.471,0.896,-0.127
38.510,-0.473,0.896,-0.129
38.520,-0.471,0.898,-0.129
38.530,-0.473,0.896,-0.127
38.540,-0.469,0.898,-0.131
38.550,-0.469,0.896,-0.129
38.560,-0.471,0.896,-0.127
38.570,-0.467,0.896,-0.125
38.579,-0.469,0.898,-0.127
38.589,-0.467,0.898,-0.125
38.599,-0.469,0.895,-0.123
38.609,-0.469,0.896,-0.127
38.619,-0.469,0.898,-0.127
38.629,-0.467,0.902,-0.121
38.639,-0.467,0.900,-0.123
38.649,-0.463,0.891,-0.129
38.659,-0.467,0.898,-0.125
38.669,-0.469,0.902,-0.127
38.679,-0.469,0.900,-0.127
38.689,-0.469,0.900,-0.127
38.699,-0.467,0.902,-0.129
38.708,-0.471,0.900,-0.127
38.718,-0.465,0.898,-0.125
38.728,-0.467,0.896,-0.127
38.738,-0.465,0.896,-0.129
38.748,-0.467,0.896,-0.131
38.758,-0.465,0.896,-0.131
38.768,-0.465,0.898,-0.131
38.778,-0.467,0.900,-0.131
38.788,-0.469,0.898,-0.127
38.798,-0.469,0.898,-0.127
38.808,-0.467,0.900,-0.133
38.818,-0.467,0.900,-0.131
38.828,-0.465,0.896,-0.129
38.837,-0.469,0.900,-0.131
38.847,-0.469,0.898,-0.131
38.857,-0.467,0.900,-0.127
38.867,-0.463,0.898,-0.131
38.877,-0.465,0.898,-0.127
38.887,-0.469,0.896,-0.131
38.897,-0.467,0.896,-0.129
38.907,-0.465,0.898,-0.127
38.917,-0.465,0.896,-0.127
38.927,-0.469,0.895,-0.125
38.937,-0.471,0.896,-0.127
38.947,-0.469,0.896,-0.127
38.957,-0.471,0.898,-0.127
38.966,-0.467,0.898,-0.127
38.976,-0.469,0.898,-0.129
38.986,-0.467,0.900,-0.125
38.996,-0.469,0.900,-0.129
39.006,-0.467,0.900,-0.125
39.016,-0.467,0.898,-0.125
39.026,-0.465,0.898,-0.127
39.036,-0.465,0.900,-0.123
39.046,-0.467,0.898,-0.123
39.056,-0.463,0.898,-0.123
39.066,-0.467,0.900,-0.127
39.076,-0.463,0.896,-0.129
39.086,-0.467,0.898,-0.127
39.095,-0.467,0.898,-0.127
39.105,-0.467,0.900,-0.129
39.115,-0.465,0.898,-0.129
39.125,-0.467,0.900,-0.131
39.135,-0.469,0.902,-0.129
39.145,-0.467,0.898,-0.131
39.155,-0.469,0.900,-0.129
39.165,-0.471,0.900,-0.131
39.175,-0.469,0.898,-0.129
39.185,-0.469,0.898,-0.129
39.195,-0.469,0.902,-0.127
39.205,-0.467,0.900,-0.127
39.215,-0.463,0.898,-0.129
39.224,-0.463,0.898,-0.127
39.234,-0.465,0.902,-0.127
39.244,-0.465,0.900,-0.129
39.254,-0.465,0.896,-0.129
39.264,-0.469,0.895,-0.129
39.274,-0.475,0.898,-0.131
39.284,-0.471,0.904,-0.129
39.294,-0.469,0.902,-0.133
39.304,-0.471,0.900,-0.129
39.314,-0.465,0.898,-0.129
39.324,-0.467,0.896,-0.129
39.334,-0.467,0.895,-0.129
39.343,-0.465,0.896,-0.129
39.353,-0.469,0.896,-0.127
39.363,-0.469,0.902,-0.127
39.373,-0.467,0.898,-0.125
39.383,-0.473,0.898,-0.127
39.393,-0.469,0.898,-0.127
39.403,-0.469,0.898,-0.129
39.413,-0.471,0.896,-0.127
39.423,-0.471,0.898,-0.125
39.433,-0.471,0.898,-0.127
39.443,-0.469,0.896,-0.127
39.453,-0.469,0.895,-0.127
39.463,-0.467,0.896,-0.127
39.472,-0.465,0.898,-0.125
39.482,-0.469,0.896,-0.127
39.492,-0.469,0.895,-0.127
39.502,-0.467,0.898,-0.127
39.512,-0.467,0.902,-0.125
39.522,-0.467,0.900,-0.127
39.532,-0.467,0.891,-0.127
39.542,-0.465,0.895,-0.127
39.552,-0.467,0.898,-0.127
39.562,-0.467,0.896,-0.125
39.572,-0.465,0.902,-0.129
39.582,-0.469,0.904,-0.129
39.592,-0.469,0.900,-0.129
39.601,-0.465,0.898,-0.131
39.611,-0.465,0.898,-0.129
39.621,-0.465,0.898,-0.129
39.631,-0.465,0.900,-0.129
39.641,-0.467,0.898,-0.131
39.651,-0.465,0.896,-0.129
39.661,-0.465,0.896,-0.127
39.671,-0.467,0.900,-0.131
39.681,-0.469,0.900,-0.133
39.691,-0.469,0.898,-0.133
39.701,-0.469,0.896,-0.131
39.711,-0.471,0.898,-0.127
39.721,-0.469,0.898,-0.131
39.730,-0.469,0.902,-0.131
39.740,-0.469,0.898,-0.129
39.750,-0.467,0.900,-0.131
39.760,-0.467,0.900,-0.129
39.770,-0.467,0.898,-0.129
39.780,-0.469,0.898,-0.127
39.790,-0.467,0.900,-0.127
39.800,-0.463,0.898,-0.125
39.810,-0.469,0.900,-0.129
39.820,-0.465,0.898,-0.123
39.830,-0.467,0.898,-0.127
39.840,-0.467,0.898,-0.121
39.850,-0.465,0.900,-0.125
39.859,-0.465,0.900,-0.123
39.869,-0.467,0.898,-0.125
39.879,-0.467,0.898,-0.125
39.889,-0.469,0.900,-0.127
39.899,-0.469,0.898,-0.127
39.909,-0.469,0.898,-0.125
39.919,-0.467,0.900,-0.127
39.929,-0.467,0.900,-0.127
39.939,-0.467,0.898,-0.125
39.949,-0.467,0.900,-0.125
39.959,-0.465,0.898,-0.127
39.969,-0.467,0.896,-0.127
39.979,-0.465,0.898,-0.123
39.988,-0.469,0.900,-0.127
39.998,-0.469,0.898,-0.127
40.008,-0.467,0.900,-0.127
40.018,-0.467,0.900,-0.129
40.028,-0.467,0.898,-0.127
40.038,-0.465,0.898,-0.133
40.048,-0.467,0.896,-0.127
40.058,-0.467,0.900,-0.129
40.068,-0.471,0.902,-0.127
40.078,-0.471,0.902,-0.129
40.088,-0.469,0.896,-0.129
40.098,-0.467,0.900,-0.129
40.107,-0.467,0.898,-0.127
40.117,-0.465,0.896,-0.131
40.127,-0.465,0.895,-0.127
40.137,-0.465,0.898,-0.127
40.147,-0.467,0.900,-0.127
40.157,-0.463,0.896,-0.127
40.167,-0.469,0.898,-0.127
40.177,-0.471,0.900,-0.129
40.187,-0.471,0.900,-0.127
40.197,-0.469,0.900,-0.129
40.207,-0.467,0.902,-0.131
40.217,-0.471,0.902,-0.129
40.227,-0.465,0.896,-0.127
40.236,-0.467,0.898,-0.125
40.246,-0.463,0.896,-0.125
40.256,-0.463,0.896,-0.127
40.266,-0.465,0.896,-0.123
40.276,-0.471,0.898,-0.127
40.286,-0.473,0.898,-0.129
40.296,-0.471,0.896,-0.127
40.306,-0.475,0.896,-0.125
40.316,-0.473,0.896,-0.129
40.326,-0.471,0.898,-0.127
40.336,-0.467,0.896,-0.127
40.346,-0.469,0.898,-0.125
40.356,-0.471,0.896,-0.125
40.365,-0.467,0.898,-0.123
40.375,-0.469,0.898,-0.127
40.385,-0.469,0.895,-0.129
40.395,-0.465,0.893,-0.127
40.405,-0.469,0.900,-0.125
40.415,-0.467,0.904,-0.129
40.425,-0.473,0.902,-0.129
40.435,-0.467,0.889,-0.131
40.445,-0.471,0.893,-0.127
40.455,-0.469,0.896,-0.129
40.465,-0.469,0.900,-0.129
40.475,-0.467,0.902,-0.129
40.485,-0.469,0.902,-0.131
40.494,-0.467,0.902,-0.133
40.504,-0.467,0.900,-0.133
40.514,-0.469,0.898,-0.129
40.524,-0.465,0.895,-0.129
40.534,-0.467,0.898,-0.125
40.544,-0.467,0.898,-0.129
40.554,-0.467,0.898,-0.127
40.564,-0.465,0.896,-0.129
40.574,-0.465,0.896,-0.127
40.584,-0.469,0.898,-0.131
40.594,-0.469,0.898,-0.133
40.604,-0.471,0.900,-0.127
40.614,-0.469,0.900,-0.131
40.623,-0.471,0.898,-0.127
40.633,-0.469,0.896,-0.131
40.643,-0.467,0.898,-0.129
40.653,-0.467,0.896,-0.129
40.663,-0.467,0.898,-0.129
40.673,-0.469,0.898,-0.127
40.683,-0.467,0.896,-0.129
40.693,-0.467,0.900,-0.125
40.703,-0.467,0.898,-0.131
40.713,-0.467,0.896,-0.127
40.723,-0.467,0.898,-0.123
40.733,-0.469,0.898,-0.125
40.743,-0.469,0.898,-0.125
40.752,-0.469,0.898,-0.127
40.762,-0.467,0.896,-0.125
40.772,-0.469,0.902,-0.127
40.782,-0.467,0.898,-0.123
40.792,-0.469,0.896,-0.123
40.802,-0.469,0.898,-0.121
40.812,-0.467,0.898,-0.125
40.822,-0.467,0.896,-0.125
40.832,-0.465,0.898,-0.127
40.842,-0.469,0.900,-0.125
40.852,-0.471,0.898,-0.127
40.862,-0.469,0.896,-0.127
40.871,-0.469,0.900,-0.125
40.881,-0.469,0.898,-0.127
40.891,-0.471,0.896,-0.125
40.901,-0.469,0.900,-0.125
40.911,-0.469,0.898,-0.129
40.921,-0.467,0.896,-0.129
40.931,-0.471,0.900,-0.125
40.941,-0.469,0.898,-0.127
40.951,-0.469,0.898,-0.129
40.961,-0.467,0.900,-0.129
40.971,-0.471,0.902,-0.127
40.981,-0.469,0.898,-0.131
40.991,-0.471,0.902,-0.129
41.000,-0.467,0.900,-0.129
41.010,-0.467,0.898,-0.123
41.020,-0.463,0.895,-0.123
41.030,-0.465,0.900,-0.127
41.040,-0.467,0.902,-0.125
41.050,-0.467,0.900,-0.125
41.060,-0.467,0.898,-0.125
41.070,-0.475,0.902,-0.127
41.080,-0.475,0.904,-0.129
41.090,-0.473,0.900,-0.127
41.100,-0.473,0.900,-0.127
41.110,-0.471,0.896,-0.125
41.120,-0.471,0.896,-0.123
41.129,-0.467,0.893,-0.125
41.139,-0.469,0.895,-0.123
41.149,-0.467,0.895,-0.125
41.159,-0.469,0.895,-0.121
41.169,-0.469,0.896,-0.125
41.179,-0.473,0.900,-0.127
41.189,-0.473,0.900,-0.127
41.199,-0.475,0.898,-0.127
41.209,-0.475,0.895,-0.125
41.219,-0.473,0.896,-0.125
41.229,-0.475,0.896,-0.123
41.239,-0.471,0.893,-0.123
41.249,-0.471,0.896,-0.123
41.258,-0.469,0.898,-0.119
41.268,-0.469,0.896,-0.125
41.278,-0.473,0.898,-0.123
41.288,-0.467,0.893,-0.121
41.298,-0.469,0.898,-0.121
41.308,-0.471,0.902,-0.123
41.318,-0.471,0.900,-0.125
41.328,-0.469,0.891,-0.123
41.338,-0.471,0.895,-0.125
41.348,-0.471,0.896,-0.129
41.358,-0.469,0.900,-0.127
41.368,-0.471,0.900,-0.129
41.378,-0.469,0.900,-0.127
41.387,-0.469,0.902,-0.129
41.397,-0.469,0.898,-0.127
41.407,-0.469,0.898,-0.129
41.417,-0.465,0.896,-0.129
41.427,-0.463,0.896,-0.125
41.437,-0.463,0.898,-0.127
41.447,-0.461,0.898,-0.129
41.457,-0.467,0.900,-0.127
41.467,-0.465,0.896,-0.129
41.477,-0.467,0.900,-0.129
41.487,-0.467,0.900,-0.129
41.497,-0.467,0.900,-0.129
41.507,-0.467,0.898,-0.127
41.516,-0.465,0.896,-0.129
41.526,-0.467,0.896,-0.129
41.536,-0.467,0.898,-0.131
41.546,-0.467,0.900,-0.129
41.556,-0.469,0.898,-0.129
41.566,-0.467,0.902,-0.125
41.576,-0.467,0.900,-0.129
41.586,-0.467,0.896,-0.127
41.596,-0.469,0.898,-0.125
41.606,-0.471,0.902,-0.127
41.616,-0.469,0.896,-0.125
41.626,-0.471,0.895,-0.125
41.635,-0.473,0.895,-0.127
41.645,-0.469,0.896,-0.121
41.655,-0.469,0.898,-0.123
41.665,-0.467,0.896,-0.125
41.675,-0.471,0.898,-0.123
41.685,-0.469,0.900,-0.123
41.695,-0.467,0.898,-0.125
41.705,-0.465,0.900,-0.121
41.715,-0.469,0.898,-0.125
41.725,-0.465,0.898,-0.119
41.735,-0.467,0.898,-0.127
41.745,-0.469,0.900,-0.125
41.755,-0.469,0.895,-0.125
41.764,-0.467,0.898,-0.123
41.774,-0.473,0.898,-0.127
41.784,-0.469,0.895,-0.123
41.794,-0.467,0.896,-0.127
41.804,-0.471,0.898,-0.127
41.814,-0.471,0.900,-0.127
41.824,-0.467,0.896,-0.129
41.834,-0.467,0.896,-0.129
41.844,-0.467,0.900,-0.129
41.854,-0.465,0.898,-0.129
41.864,-0.465,0.895,-0.131
41.874,-0.469,0.900,-0.127
41.884,-0.467,0.902,-0.129
41.893,-0.463,0.900,-0.125
41.903,-0.465,0.898,-0.127
41.913,-0.473,0.900,-0.127
41.923,-0.467,0.902,-0.127
41.933,-0.469,0.900,-0.127
41.943,-0.469,0.902,-0.127
41.953,-0.469,0.900,-0.129
41.963,-0.467,0.896,-0.129
41.973,-0.467,0.896,-0.125
41.983,-0.469,0.895,-0.125
41.993,-0.467,0.895,-0.129
42.003,-0.465,0.893,-0.127
42.013,-0.469,0.895,-0.125
42.022,-0.473,0.898,-0.129
42.032,-0.471,0.900,-0.129
42.042,-0.475,0.900,-0.127
42.052,-0.471,0.900,-0.127
42.062,-0.469,0.898,-0.129
42.072,-0.467,0.893,-0.127
42.082,-0.467,0.896,-0.127
42.092,-0.469,0.896,-0.131
42.102,-0.471,0.896,-0.127
42.112,-0.471,0.900,-0.129
42.122,-0.469,0.895,-0.125
42.132,-0.471,0.898,-0.127
42.142,-0.469,0.900,-0.127
42.151,-0.471,0.904,-0.123
42.161,-0.467,0.893,-0.127
42.171,-0.469,0.891,-0.129
42.181,-0.471,0.895,-0.129
42.191,-0.469,0.900,-0.129
42.201,-0.471,0.900,-0.129
42.211,-0.473,0.900,-0.129
42.221,-0.471,0.898,-0.129
42.231,-0.473,0.898,-0.129
42.241,-0.471,0.896,-0.129
42.251,-0.471,0.895,-0.125
42.261,-0.467,0.895,-0.131
42.271,-0.465,0.893,-0.127
42.280,-0.465,0.896,-0.129
42.290,-0.469,0.898,-0.131
42.300,-0.465,0.898,-0.131
42.310,-0.469,0.902,-0.131
42.320,-0.467,0.900,-0.133
42.330,-0.469,0.898,-0.133
42.340,-0.467,0.896,-0.131
42.350,-0.471,0.900,-0.133
42.360,-0.471,0.898,-0.133
42.370,-0.471,0.898,-0.129
42.380,-0.473,0.896,-0.133
42.390,-0.469,0.895,-0.129
42.399,-0.469,0.895,-0.129
42.409,-0.473,0.898,-0.127
42.419,-0.469,0.895,-0.131
42.429,-0.469,0.900,-0.133
42.439,-0.473,0.898,-0.129
42.449,-0.471,0.896,-0.129
42.459,-0.473,0.896,-0.129
42.469,-0.471,0.895,-0.129
42.479,-0.471,0.896,-0.125
42.489,-0.473,0.895,-0.127
42.499,-0.473,0.898,-0.127
42.509,-0.473,0.900,-0.131
42.519,-0.471,0.902,-0.129
42.528,-0.469,0.898,-0.123
42.538,-0.467,0.898,-0.123
42.548,-0.469,0.895,-0.127
42.558,-0.471,0.893,-0.129
42.568,-0.471,0.895,-0.127
42.578,-0.473,0.893,-0.131
42.588,-0.475,0.896,-0.129
42.598,-0.475,0.898,-0.133
42.608,-0.475,0.895,-0.127
42.618,-0.475,0.898,-0.127
42.628,-0.473,0.895,-0.131
42.638,-0.471,0.891,-0.127
42.648,-0.469,0.896,-0.129
42.657,-0.471,0.900,-0.131
42.667,-0.469,0.898,-0.131
42.677,-0.469,0.898,-0.127
42.687,-0.471,0.900,-0.125
42.697,-0.467,0.895,-0.131
42.707,-0.469,0.895,-0.125
42.717,-0.471,0.896,-0.131
42.727,-0.473,0.896,-0.127
42.737,-0.469,0.898,-0.129
42.747,-0.471,0.896,-0.131
42.757,-0.473,0.898,-0.129
42.767,-0.473,0.898,-0.129
42.777,-0.473,0.898,-0.131
42.786,-0.471,0.898,-0.131
42.796,-0.471,0.896,-0.129
42.806,-0.469,0.896,-0.131
42.816,-0.471,0.895,-0.131
42.826,-0.469,0.893,-0.129
42.836,-0.471,0.895,-0.131
42.846,-0.475,0.896,-0.129
42.856,-0.471,0.898,-0.129
42.866,-0.471,0.895,-0.131
42.876,-0.471,0.895,-0.129
42.886,-0.473,0.896,-0.127
42.896,-0.471,0.896,-0.129
42.906,-0.473,0.898,-0.129
42.915,-0.471,0.898,-0.127
42.925,-0.473,0.896,-0.127
42.935,-0.473,0.895,-0.129
42.945,-0.475,0.896,-0.127
42.955,-0.473,0.896,-0.129
42.965,-0.475,0.898,-0.127
42.975,-0.475,0.896,-0.129
42.985,-0.473,0.893,-0.131
42.995,-0.467,0.898,-0.127
43.005,-0.471,0.900,-0.123
43.015,-0.467,0.898,-0.123
43.025,-0.465,0.891,-0.127
43.035,-0.469,0.895,-0.131
43.044,-0.473,0.898,-0.129
43.054,-0.471,0.900,-0.127
43.064,-0.471,0.900,-0.129
43.074,-0.471,0.898,-0.131
43.084,-0.473,0.896,-0.129
43.094,-0.471,0.896,-0.129
43.104,-0.473,0.896,-0.133
43.114,-0.473,0.893,-0.131
43.124,-0.471,0.893,-0.131
43.134,-0.467,0.893,-0.129
43.144,-0.469,0.896,-0.129
43.154,-0.471,0.898,-0.131
43.163,-0.469,0.896,-0.131
43.173,-0.469,0.896,-0.129
43.183,-0.467,0.898,-0.131
43.193,-0.469,0.900,-0.127
43.203,-0.469,0.898,-0.131
43.213,-0.471,0.898,-0.131
43.223,-0.471,0.898,-0.131
43.233,-0.471,0.898,-0.129
43.243,-0.473,0.896,-0.131
43.253,-0.469,0.895,-0.131
43.263,-0.473,0.902,-0.127
43.273,-0.475,0.896,-0.129
43.283,-0.471,0.896,-0.129
43.292,-0.469,0.896,-0.129
43.302,-0.471,0.896,-0.131
43.312,-0.469,0.898,-0.127
43.322,-0.473,0.896,-0.127
43.332,-0.471,0.898,-0.131
43.342,-0.473,0.896,-0.129
43.352,-0.473,0.895,-0.127
43.362,-0.471,0.895,-0.125
43.372,-0.471,0.896,-0.129
43.382,-0.469,0.896,-0.127
43.392,-0.471,0.896,-0.125
43.402,-0.469,0.896,-0.125
43.412,-0.469,0.895,-0.127
43.421,-0.471,0.900,-0.131
43.431,-0.467,0.896,-0.127
43.441,-0.469,0.898,-0.133
43.451,-0.469,0.900,-0.129
43.461,-0.467,0.898,-0.127
43.471,-0.471,0.896,-0.127
43.481,-0.471,0.898,-0.129
43.491,-0.471,0.896,-0.133
43.501,-0.471,0.895,-0.129
43.511,-0.473,0.895,-0.127
43.521,-0.471,0.896,-0.133
43.531,-0.475,0.895,-0.129
43.541,-0.471,0.891,-0.131
43.550,-0.473,0.900,-0.131
43.560,-0.471,0.898,-0.131
43.570,-0.469,0.896,-0.125
43.580,-0.471,0.900,-0.131
43.590,-0.471,0.898,-0.125
43.600,-0.469,0.895,-0.127
43.610,-0.469,0.895,-0.127
43.620,-0.467,0.898,-0.129
43.630,-0.467,0.900,-0.129
43.640,-0.471,0.896,-0.127
43.650,-0.475,0.891,-0.129
43.660,-0.475,0.898,-0.127
43.670,-0.473,0.902,-0.131
43.679,-0.477,0.900,-0.131
43.689,-0.473,0.900,-0.129
43.699,-0.473,0.896,-0.129
43.709,-0.469,0.895,-0.129
43.719,-0.471,0.895,-0.129
43.729,-0.473,0.896,-0.127
43.739,-0.469,0.893,-0.127
43.749,-0.473,0.896,-0.125
43.759,-0.469,0.895,-0.127
43.769,-0.469,0.898,-0.129
43.779,-0.471,0.896,-0.127
43.789,-0.471,0.896,-0.127
43.799,-0.473,0.898,-0.129
43.808,-0.477,0.895,-0.127
43.818,-0.475,0.891,-0.127
43.828,-0.473,0.893,-0.129
43.838,-0.473,0.898,-0.129
43.848,-0.471,0.896,-0.127
43.858,-0.473,0.893,-0.125
43.868,-0.471,0.896,-0.123
43.878,-0.475,0.895,-0.125
43.888,-0.473,0.898,-0.127
43.898,-0.471,0.896,-0.129
43.908,-0.477,0.900,-0.125
43.918,-0.469,0.895,-0.127
43.927,-0.469,0.893,-0.125
43.937,-0.473,0.896,-0.127
43.947,-0.473,0.898,-0.127
43.957,-0.471,0.898,-0.129
43.967,-0.473,0.898,-0.127
43.977,-0.473,0.896,-0.129
43.987,-0.471,0.895,-0.129
43.997,-0.471,0.896,-0.127
44.007,-0.473,0.895,-0.131
44.017,-0.475,0.893,-0.129
44.027,-0.477,0.896,-0.131
44.037,-0.473,0.893,-0.129
44.047,-0.473,0.895,-0.129
44.056,-0.473,0.893,-0.131
44.066,-0.471,0.895,-0.131
44.076,-0.473,0.898,-0.131
44.086,-0.473,0.896,-0.131
44.096,-0.471,0.898,-0.127
44.106,-0.473,0.898,-0.133
44.116,-0.471,0.896,-0.129
44.126,-0.471,0.896,-0.133
44.136,-0.473,0.900,-0.129
44.146,-0.475,0.896,-0.127
44.156,-0.475,0.895,-0.127
44.166,-0.477,0.896,-0.129
44.176,-0.477,0.896,-0.127
44.185,-0.475,0.896,-0.129
44.195,-0.475,0.896,-0.125
44.205,-0.473,0.895,-0.127
44.215,-0.475,0.895,-0.129
44.225,-0.469,0.893,-0.125
44.235,-0.471,0.893,-0.123
44.245,-0.471,0.896,-0.125
44.255,-0.473,0.900,-0.125
44.265,-0.473,0.896,-0.123
44.275,-0.475,0.896,-0.127
44.285,-0.473,0.895,-0.125
44.295,-0.475,0.896,-0.125
44.305,-0.471,0.896,-0.129
44.314,-0.473,0.898,-0.127
44.324,-0.473,0.898,-0.129
44.334,-0.471,0.898,-0.129
44.344,-0.471,0.896,-0.125
44.354,-0.471,0.895,-0.127
44.364,-0.471,0.895,-0.125
44.374,-0.475,0.895,-0.125
44.384,-0.477,0.895,-0.131
44.394,-0.475,0.898,-0.123
44.404,-0.475,0.896,-0.129
44.414,-0.477,0.898,-0.127
44.424,-0.475,0.896,-0.127
44.434,-0.473,0.895,-0.127
44.443,-0.475,0.893,-0.129
44.453,-0.473,0.898,-0.131
44.463,-0.475,0.898,-0.129
44.473,-0.473,0.896,-0.129
44.483,-0.475,0.896,-0.127
44.493,-0.473,0.895,-0.129
44.503,-0.471,0.893,-0.127
44.513,-0.471,0.893,-0.125
44.523,-0.469,0.893,-0.129
44.533,-0.469,0.898,-0.127
44.543,-0.473,0.895,-0.127
44.553,-0.475,0.893,-0.131
44.563,-0.479,0.896,-0.131
44.572,-0.477,0.898,-0.131
44.582,-0.477,0.896,-0.133
44.592,-0.475,0.898,-0.131
44.602,-0.473,0.898,-0.129
44.612,-0.471,0.896,-0.133
44.622,-0.469,0.893,-0.129
44.632,-0.467,0.891,-0.133
44.642,-0.469,0.895,-0.125
44.652,-0.471,0.893,-0.133
44.662,-0.473,0.896,-0.129
44.672,-0.473,0.898,-0.131
44.682,-0.477,0.896,-0.129
44.691,-0.475,0.896,-0.129
44.701,-0.475,0.893,-0.131
44.711,-0.475,0.896,-0.129
44.721,-0.475,0.895,-0.127
44.731,-0.475,0.895,-0.127
44.741,-0.473,0.896,-0.129
44.751,-0.473,0.893,-0.127
44.761,-0.473,0.896,-0.127
44.771,-0.475,0.898,-0.127
44.781,-0.475,0.895,-0.127
44.791,-0.473,0.895,-0.129
44.801,-0.469,0.902,-0.127
44.811,-0.473,0.898,-0.127
44.820,-0.469,0.889,-0.129
44.830,-0.469,0.893,-0.131
44.840,-0.475,0.893,-0.125
44.850,-0.475,0.898,-0.127
44.860,-0.475,0.900,-0.125
44.870,-0.477,0.900,-0.129
44.880,-0.471,0.895,-0.127
44.890,-0.473,0.895,-0.127
44.900,-0.471,0.895,-0.125
44.910,-0.469,0.891,-0.127
44.920,-0.471,0.895,-0.127
44.930,-0.473,0.893,-0.129
44.940,-0.471,0.893,-0.125
44.949,-0.471,0.893,-0.129
44.959,-0.473,0.896,-0.129
44.969,-0.477,0.896,-0.129
44.979,-0.475,0.896,-0.129
44.989,-0.477,0.896,-0.131
44.999,-0.473,0.898,-0.131
45.009,-0.473,0.895,-0.127
45.019,-0.471,0.896,-0.129
45.029,-0.471,0.896,-0.129
45.039,-0.471,0.895,-0.127
45.049,-0.475,0.893,-0.129
45.059,-0.475,0.896,-0.129
45.069,-0.475,0.896,-0.129
45.078,-0.475,0.896,-0.131
45.088,-0.475,0.898,-0.129
45.098,-0.473,0.896,-0.127
45.108,-0.477,0.896,-0.125
45.118,-0.473,0.895,-0.129
45.128,-0.473,0.900,-0.129
45.138,-0.475,0.896,-0.127
45.148,-0.471,0.898,-0.127
45.158,-0.471,0.898,-0.125
45.168,-0.473,0.896,-0.129
45.178,-0.473,0.895,-0.125
45.188,-0.473,0.895,-0.127
45.198,-0.471,0.895,-0.125
45.207,-0.475,0.896,-0.127
45.217,-0.471,0.895,-0.123
45.227,-0.473,0.896,-0.125
45.237,-0.471,0.898,-0.127
45.247,-0.473,0.896,-0.125
45.257,-0.473,0.896,-0.127
45.267,-0.473,0.896,-0.127
45.277,-0.475,0.895,-0.127
45.287,-0.467,0.896,-0.131
45.297,-0.473,0.895,-0.129
45.307,-0.473,0.902,-0.131
45.317,-0.473,0.900,-0.129
45.327,-0.471,0.898,-0.129
45.336,-0.471,0.895,-0.127
45.346,-0.473,0.900,-0.129
45.356,-0.467,0.895,-0.131
45.366,-0.465,0.893,-0.129
45.376,-0.473,0.898,-0.127
45.386,-0.473,0.900,-0.127
45.396,-0.469,0.902,-0.127
45.406,-0.475,0.896,-0.129
45.416,-0.477,0.895,-0.127
45.426,-0.479,0.895,-0.129
45.436,-0.473,0.898,-0.129
45.446,-0.473,0.898,-0.129
45.455,-0.473,0.900,-0.127
45.465,-0.469,0.898,-0.129
45.475,-0.469,0.893,-0.127
45.485,-0.471,0.891,-0.129
45.495,-0.473,0.896,-0.129
45.505,-0.473,0.896,-0.131
45.515,-0.471,0.896,-0.127
45.525,-0.475,0.896,-0.129
45.535,-0.475,0.896,-0.131
45.545,-0.475,0.895,-0.129
45.555,-0.475,0.896,-0.129
45.565,-0.475,0.895,-0.127
45.575,-0.473,0.896,-0.127
45.584,-0.471,0.893,-0.127
45.594,-0.473,0.896,-0.127
45.604,-0.469,0.898,-0.131
45.614,-0.471,0.898,-0.131
45.624,-0.471,0.896,-0.129
45.634,-0.471,0.896,-0.129
45.644,-0.471,0.900,-0.127
45.654,-0.471,0.904,-0.127
45.664,-0.469,0.895,-0.131
45.674,-0.465,0.893,-0.127
45.684,-0.471,0.893,-0.127
45.694,-0.467,0.896,-0.131
45.704,-0.469,0.898,-0.129
45.713,-0.471,0.900,-0.131
45.723,-0.471,0.902,-0.127
45.733,-0.473,0.900,-0.131
45.743,-0.471,0.898,-0.129
45.753,-0.469,0.895,-0.131
45.763,-0.471,0.895,-0.129
45.773,-0.469,0.895,-0.131
45.783,-0.471,0.895,-0.129
45.793,-0.471,0.898,-0.131
45.803,-0.473,0.898,-0.131
45.813,-0.469,0.898,-0.131
45.823,-0.473,0.900,-0.129
45.833,-0.473,0.896,-0.133
45.842,-0.475,0.898,-0.133
45.852,-0.477,0.896,-0.129
45.862,-0.475,0.895,-0.133
45.872,-0.475,0.898,-0.129
45.882,-0.475,0.896,-0.129
45.892,-0.473,0.896,-0.129
45.902,-0.475,0.895,-0.131
45.912,-0.473,0.896,-0.127
45.922,-0.473,0.896,-0.129
45.932,-0.469,0.896,-0.129
45.942,-0.473,0.896,-0.129
45.952,-0.471,0.895,-0.129
45.962,-0.473,0.898,-0.129
45.971,-0.471,0.896,-0.129
45.981,-0.473,0.896,-0.127
45.991,-0.473,0.895,-0.127
46.001,-0.473,0.896,-0.125
46.011,-0.471,0.896,-0.131
46.021,-0.469,0.896,-0.127
46.031,-0.469,0.898,-0.129
46.041,-0.469,0.898,-0.131
46.051,-0.471,0.898,-0.131
46.061,-0.467,0.893,-0.127
46.071,-0.469,0.900,-0.127
46.081,-0.467,0.898,-0.129
46.091,-0.469,0.896,-0.129
46.100,-0.469,0.898,-0.125
46.110,-0.467,0.898,-0.129
46.120,-0.469,0.896,-0.129
46.130,-0.471,0.895,-0.131
46.140,-0.471,0.896,-0.133
46.150,-0.471,0.896,-0.133
46.160,-0.473,0.896,-0.131
46.170,-0.473,0.895,-0.127
46.180,-0.473,0.898,-0.131
46.190,-0.473,0.900,-0.129
46.200,-0.473,0.895,-0.131
46.210,-0.473,0.898,-0.133
46.219,-0.473,0.898,-0.129
46.229,-0.469,0.896,-0.131
46.239,-0.471,0.893,-0.127
46.249,-0.469,0.896,-0.131
46.259,-0.465,0.900,-0.131
46.269,-0.467,0.898,-0.129
46.279,-0.469,0.895,-0.135
46.289,-0.473,0.895,-0.131
46.299,-0.473,0.895,-0.131
46.309,-0.477,0.898,-0.129
46.319,-0.477,0.900,-0.131
46.329,-0.473,0.902,-0.133
46.339,-0.473,0.898,-0.133
46.348,-0.473,0.895,-0.129
46.358,-0.469,0.896,-0.133
46.368,-0.469,0.896,-0.131
46.378,-0.469,0.895,-0.131
46.388,-0.469,0.896,-0.131
46.398,-0.471,0.900,-0.129
46.408,-0.473,0.898,-0.133
46.418,-0.475,0.896,-0.131
46.428,-0.475,0.896,-0.131
46.438,-0.473,0.895,-0.127
46.448,-0.477,0.895,-0.131
46.458,-0.475,0.893,-0.125
46.468,-0.473,0.896,-0.129
46.477,-0.475,0.895,-0.125
46.487,-0.469,0.896,-0.127
46.497,-0.471,0.895,-0.125
46.507,-0.473,0.895,-0.127
46.517,-0.471,0.895,-0.127
46.527,-0.473,0.896,-0.129
46.537,-0.471,0.900,-0.125
46.547,-0.473,0.902,-0.127
46.557,-0.471,0.891,-0.129
46.567,-0.469,0.891,-0.129
46.577,-0.475,0.898,-0.129
46.587,-0.469,0.898,-0.131
46.597,-0.469,0.900,-0.127
46.606,-0.473,0.898,-0.127
46.616,-0.471,0.896,-0.127
46.626,-0.471,0.893,-0.129
46.636,-0.471,0.896,-0.127
46.646,-0.469,0.896,-0.129
46.656,-0.469,0.893,-0.129
46.666,-0.473,0.893,-0.127
46.676,-0.473,0.895,-0.133
46.686,-0.473,0.895,-0.129
46.696,-0.473,0.895,-0.135
46.706,-0.473,0.896,-0.131
46.716,-0.471,0.900,-0.133
46.726,-0.471,0.896,-0.131
46.735,-0.473,0.896,-0.131
46.745,-0.471,0.898,-0.131
46.755,-0.473,0.898,-0.129
46.765,-0.471,0.898,-0.131
46.775,-0.471,0.898,-0.131
46.785,-0.471,0.898,-0.133
46.795,-0.473,0.896,-0.133
46.805,-0.471,0.896,-0.127
46.815,-0.473,0.895,-0.131
46.825,-0.475,0.895,-0.129
46.835,-0.475,0.896,-0.131
46.845,-0.473,0.893,-0.127
46.855,-0.475,0.891,-0.125
46.864,-0.477,0.896,-0.127
46.874,-0.473,0.893,-0.129
46.884,-0.477,0.895,-0.129
46.894,-0.475,0.896,-0.127
46.904,-0.473,0.895,-0.129
46.914,-0.471,0.895,-0.125
46.924,-0.473,0.896,-0.129
46.934,-0.469,0.896,-0.129
46.944,-0.473,0.896,-0.129
46.954,-0.471,0.898,-0.129
46.964,-0.469,0.895,-0.125
46.974,-0.471,0.895,-0.133
46.983,-0.469,0.898,-0.131
46.993,-0.473,0.895,-0.131
47.003,-0.471,0.896,-0.131
47.013,-0.471,0.895,-0.129
47.023,-0.473,0.896,-0.129
47.033,-0.475,0.895,-0.131
47.043,-0.473,0.895,-0.129
47.053,-0.471,0.898,-0.131
47.063,-0.475,0.896,-0.129
47.073,-0.473,0.898,-0.133
47.083,-0.473,0.900,-0.125
47.093,-0.473,0.900,-0.127
47.103,-0.469,0.898,-0.127
47.112,-0.467,0.893,-0.129
47.122,-0.469,0.896,-0.127
47.132,-0.465,0.898,-0.127
47.142,-0.469,0.898,-0.127
47.152,-0.471,0.895,-0.127
47.162,-0.473,0.891,-0.129
47.172,-0.477,0.898,-0.131
47.182,-0.479,0.898,-0.127
47.192,-0.477,0.900,-0.131
47.202,-0.479,0.900,-0.131
47.212,-0.473,0.896,-0.129
47.222,-0.475,0.896,-0.127
47.232,-0.469,0.893,-0.129
47.241,-0.469,0.893,-0.131
47.251,-0.469,0.895,-0.129
47.261,-0.469,0.898,-0.129
47.271,-0.469,0.898,-0.127
47.281,-0.471,0.898,-0.129
47.291,-0.469,0.895,-0.129
47.301,-0.469,0.896,-0.129
47.311,-0.473,0.895,-0.131
47.321,-0.471,0.895,-0.129
47.331,-0.473,0.896,-0.129
47.341,-0.473,0.895,-0.127
47.351,-0.473,0.896,-0.129
47.361,-0.473,0.896,-0.129
47.370,-0.471,0.896,-0.131
47.380,-0.475,0.900,-0.131
47.390,-0.477,0.893,-0.129
47.400,-0.473,0.895,-0.129
47.410,-0.473,0.896,-0.129
47.420,-0.475,0.900,-0.127
47.430,-0.469,0.893,-0.131
47.440,-0.469,0.891,-0.131
47.450,-0.475,0.898,-0.131
47.460,-0.471,0.898,-0.129
47.470,-0.469,0.900,-0.129
47.480,-0.473,0.898,-0.127
47.490,-0.471,0.896,-0.133
47.499,-0.471,0.895,-0.129
47.509,-0.471,0.895,-0.129
47.519,-0.473,0.895,-0.131
47.529,-0.475,0.895,-0.131
47.539,-0.471,0.891,-0.133
47.549,-0.475,0.895,-0.133
47.559,-0.473,0.896,-0.135
47.569,-0.473,0.896,-0.135
47.579,-0.475,0.895,-0.133
47.589,-0.473,0.893,-0.135
47.599,-0.473,0.900,-0.135
47.609,-0.475,0.900,-0.131
47.619,-0.477,0.896,-0.131
47.628,-0.477,0.898,-0.131
47.638,-0.475,0.895,-0.131
47.648,-0.473,0.896,-0.133
47.658,-0.471,0.896,-0.135
47.668,-0.471,0.898,-0.133
47.678,-0.471,0.895,-0.129
47.688,-0.471,0.896,-0.129
47.698,-0.473,0.895,-0.127
47.708,-0.473,0.893,-0.127
47.718,-0.471,0.895,-0.125
47.728,-0.473,0.895,-0.131
47.738,-0.475,0.893,-0.127
47.747,-0.477,0.895,-0.127
47.757,-0.475,0.895,-0.127
47.767,-0.473,0.896,-0.129
47.777,-0.475,0.896,-0.127
47.787,-0.473,0.896,-0.131
47.797,-0.473,0.895,-0.127
47.807,-0.473,0.896,-0.129
47.817,-0.475,0.898,-0.129
47.827,-0.471,0.895,-0.125
47.837,-0.473,0.898,-0.129
47.847,-0.473,0.896,-0.129
47.857,-0.475,0.896,-0.131
47.867,-0.477,0.896,-0.129
47.876,-0.475,0.895,-0.131
47.886,-0.475,0.895,-0.131
47.896,-0.477,0.898,-0.129
47.906,-0.471,0.895,-0.131
47.916,-0.475,0.893,-0.129
47.926,-0.475,0.896,-0.127
47.936,-0.473,0.895,-0.129
47.946,-0.477,0.893,-0.129
47.956,-0.475,0.896,-0.131
47.966,-0.473,0.895,-0.129
47.976,-0.475,0.896,-0.131
47.986,-0.471,0.893,-0.131
47.996,-0.471,0.895,-0.129
48.005,-0.475,0.900,-0.131
48.015,-0.473,0.902,-0.131
48.025,-0.473,0.896,-0.135
48.035,-0.473,0.895,-0.133
48.045,-0.475,0.896,-0.129
48.055,-0.475,0.898,-0.133
48.065,-0.473,0.898,-0.127
48.075,-0.471,0.896,-0.129
48.085,-0.467,0.895,-0.127
48.095,-0.467,0.893,-0.125
48.105,-0.471,0.891,-0.131
48.115,-0.469,0.895,-0.129
48.125,-0.471,0.895,-0.129
48.134,-0.473,0.895,-0.133
48.144,-0.477,0.896,-0.131
48.154,-0.477,0.896,-0.131
48.164,-0.475,0.898,-0.135
48.174,-0.480,0.896,-0.133
48.184,-0.479,0.896,-0.127
48.194,-0.475,0.898,-0.135
48.204,-0.475,0.896,-0.135
48.214,-0.473,0.896,-0.131
48.224,-0.475,0.895,-0.133
48.234,-0.477,0.895,-0.131
48.244,-0.479,0.893,-0.135
48.254,-0.480,0.891,-0.129
48.263,-0.475,0.893,-0.131
48.273,-0.473,0.898,-0.129
48.283,-0.469,0.900,-0.127
48.293,-0.471,0.893,-0.131
48.303,-0.465,0.889,-0.129
48.313,-0.473,0.891,-0.127
48.323,-0.471,0.896,-0.129
48.333,-0.471,0.896,-0.133
48.343,-0.471,0.900,-0.131
48.353,-0.471,0.902,-0.131
48.363,-0.473,0.896,-0.131
48.373,-0.469,0.895,-0.129
48.383,-0.467,0.891,-0.131
48.392,-0.473,0.893,-0.131
48.402,-0.469,0.893,-0.131
48.412,-0.471,0.895,-0.131
48.422,-0.469,0.895,-0.129
48.432,-0.469,0.896,-0.131
48.442,-0.469,0.896,-0.131
48.452,-0.471,0.902,-0.127
48.462,-0.471,0.898,-0.131
48.472,-0.471,0.898,-0.129
48.482,-0.469,0.898,-0.131
48.492,-0.471,0.898,-0.131
48.502,-0.469,0.896,-0.133
48.511,-0.473,0.896,-0.133
48.521,-0.471,0.898,-0.129
48.531,-0.469,0.898,-0.131
48.541,-0.473,0.896,-0.129
48.551,-0.475,0.896,-0.127
48.561,-0.471,0.895,-0.127
48.571,-0.471,0.896,-0.127
48.581,-0.473,0.898,-0.129
48.591,-0.473,0.895,-0.125
48.601,-0.473,0.893,-0.127
48.611,-0.471,0.895,-0.129
48.621,-0.471,0.895,-0.125
48.631,-0.471,0.895,-0.129
48.640,-0.473,0.895,-0.129
48.650,-0.471,0.893,-0.129
48.660,-0.471,0.893,-0.125
48.670,-0.471,0.893,-0.127
48.680,-0.469,0.896,-0.129
48.690,-0.471,0.896,-0.131
48.700,-0.471,0.898,-0.131
48.710,-0.469,0.898,-0.133
48.720,-0.467,0.900,-0.135
48.730,-0.469,0.898,-0.129
48.740,-0.471,0.900,-0.131
48.750,-0.469,0.902,-0.131
48.760,-0.469,0.900,-0.133
48.769,-0.473,0.898,-0.131
48.779,-0.467,0.898,-0.131
48.789,-0.471,0.898,-0.131
48.799,-0.465,0.893,-0.133
48.809,-0.469,0.893,-0.135
48.819,-0.471,0.900,-0.131
48.829,-0.469,0.898,-0.131
48.839,-0.469,0.895,-0.135
48.849,-0.469,0.895,-0.129
48.859,-0.475,0.898,-0.131
48.869,-0.471,0.896,-0.131
48.879,-0.473,0.898,-0.131
48.889,-0.469,0.898,-0.131
48.898,-0.467,0.896,-0.129
48.908,-0.467,0.896,-0.133
48.918,-0.469,0.895,-0.129
48.928,-0.469,0.896,-0.131
48.938,-0.467,0.896,-0.131
48.948,-0.473,0.898,-0.133
48.958,-0.475,0.900,-0.131
48.968,-0.473,0.898,-0.131
48.978,-0.473,0.896,-0.129
48.988,-0.473,0.896,-0.129
48.998,-0.473,0.893,-0.133
49.008,-0.467,0.895,-0.131
49.018,-0.475,0.896,-0.129
49.027,-0.471,0.895,-0.129
49.037,-0.473,0.898,-0.127
49.047,-0.473,0.898,-0.131
49.057,-0.473,0.898,-0.129
49.067,-0.471,0.895,-0.129
49.077,-0.475,0.891,-0.129
49.087,-0.471,0.900,-0.129
49.097,-0.475,0.900,-0.127
49.107,-0.469,0.896,-0.129
49.117,-0.465,0.891,-0.129
49.127,-0.469,0.896,-0.129
49.137,-0.471,0.895,-0.129
49.147,-0.471,0.898,-0.131
49.156,-0.473,0.900,-0.131
49.166,-0.473,0.900,-0.131
49.176,-0.473,0.898,-0.131
49.186,-0.475,0.896,-0.127
49.196,-0.469,0.895,-0.131
49.206,-0.471,0.895,-0.129
49.216,-0.469,0.893,-0.129
49.226,-0.467,0.898,-0.127
49.236,-0.471,0.898,-0.131
49.246,-0.471,0.896,-0.131
49.256,-0.469,0.898,-0.133
49.266,-0.473,0.895,-0.131
49.275,-0.473,0.895,-0.135
49.285,-0.473,0.898,-0.133
49.295,-0.471,0.896,-0.133
49.305,-0.471,0.896,-0.137
49.315,-0.471,0.896,-0.135
49.325,-0.473,0.898,-0.133
49.335,-0.469,0.898,-0.131
49.345,-0.473,0.900,-0.133
49.355,-0.469,0.893,-0.131
49.365,-0.469,0.898,-0.129
