df_hash,22ZHK4.PQKCV4
device,HZ2X61
project_hash,29R7
project_name,istanbul_aydin_university
person_hash,29R7.1AT4
person_label,v132
date_time_start,2026-04-07_18-21-14.430000_+03
date_time_start_unix,1775568074.43
date_time_end,2026-04-07_18-29-30.496000_+03
length_difference_noticed,no

time,acc_x,acc_y,acc_z
4.421,-0.648,0.701,0.053
4.431,-0.652,0.707,0.057
4.441,-0.646,0.715,0.051
4.451,-0.645,0.719,0.051
4.461,-0.645,0.713,0.053
4.471,-0.645,0.711,0.053
4.481,-0.652,0.711,0.055
4.490,-0.648,0.707,0.051
4.500,-0.643,0.699,0.059
4.510,-0.633,0.697,0.055
4.520,-0.629,0.713,0.057
4.530,-0.627,0.719,0.053
4.540,-0.631,0.715,0.051
4.550,-0.645,0.721,0.053
4.560,-0.656,0.729,0.053
4.570,-0.654,0.727,0.055
4.580,-0.650,0.711,0.059
4.590,-0.646,0.703,0.057
4.600,-0.639,0.701,0.057
4.610,-0.639,0.701,0.061
4.619,-0.639,0.703,0.059
4.629,-0.637,0.705,0.057
4.639,-0.641,0.709,0.057
4.649,-0.639,0.709,0.053
4.659,-0.637,0.707,0.059
4.669,-0.639,0.713,0.055
4.679,-0.643,0.715,0.059
4.689,-0.635,0.707,0.051
4.699,-0.637,0.711,0.057
4.709,-0.637,0.711,0.057
4.719,-0.645,0.719,0.055
4.729,-0.646,0.717,0.057
4.739,-0.646,0.711,0.061
4.749,-0.639,0.709,0.053
4.758,-0.635,0.707,0.053
4.768,-0.641,0.705,0.055
4.778,-0.645,0.711,0.051
4.788,-0.654,0.711,0.055
4.798,-0.654,0.717,0.057
4.808,-0.648,0.717,0.053
4.818,-0.641,0.721,0.051
4.828,-0.641,0.719,0.053
4.838,-0.635,0.713,0.053
4.848,-0.641,0.715,0.055
4.858,-0.646,0.715,0.047
4.868,-0.639,0.713,0.053
4.878,-0.635,0.709,0.049
4.887,-0.641,0.711,0.051
4.897,-0.645,0.705,0.049
4.907,-0.641,0.705,0.047
4.917,-0.641,0.713,0.047
4.927,-0.639,0.709,0.049
4.937,-0.641,0.711,0.051
4.947,-0.639,0.711,0.049
4.957,-0.641,0.709,0.053
4.967,-0.639,0.717,0.049
4.977,-0.641,0.719,0.051
4.987,-0.641,0.721,0.049
4.997,-0.639,0.717,0.047
5.007,-0.641,0.709,0.049
5.017,-0.643,0.709,0.045
5.026,-0.639,0.715,0.047
5.036,-0.637,0.703,0.049
5.046,-0.631,0.701,0.049
5.056,-0.633,0.711,0.051
5.066,-0.633,0.715,0.039
5.076,-0.635,0.721,0.045
5.086,-0.650,0.725,0.047
5.096,-0.654,0.727,0.053
5.106,-0.650,0.725,0.053
5.116,-0.646,0.715,0.051
5.126,-0.641,0.711,0.055
5.136,-0.637,0.705,0.057
5.146,-0.633,0.701,0.053
5.155,-0.635,0.705,0.049
5.165,-0.639,0.709,0.051
5.175,-0.637,0.709,0.047
5.185,-0.643,0.711,0.051
5.195,-0.645,0.713,0.049
5.205,-0.641,0.713,0.045
5.215,-0.637,0.709,0.049
5.225,-0.639,0.713,0.045
5.235,-0.639,0.713,0.043
5.245,-0.643,0.715,0.045
5.255,-0.643,0.715,0.047
5.265,-0.643,0.715,0.047
5.275,-0.639,0.709,0.047
5.284,-0.631,0.707,0.039
5.294,-0.631,0.709,0.041
5.304,-0.633,0.711,0.037
5.314,-0.635,0.725,0.043
5.324,-0.645,0.736,0.045
5.334,-0.643,0.734,0.047
5.344,-0.641,0.730,0.043
5.354,-0.637,0.725,0.047
5.364,-0.625,0.715,0.045
5.374,-0.625,0.721,0.049
5.384,-0.631,0.723,0.047
5.394,-0.633,0.723,0.047
5.404,-0.631,0.717,0.045
5.414,-0.631,0.717,0.049
5.423,-0.629,0.715,0.047
5.433,-0.625,0.711,0.047
5.443,-0.629,0.715,0.045
5.453,-0.629,0.711,0.043
5.463,-0.623,0.713,0.041
5.473,-0.629,0.717,0.045
5.483,-0.631,0.719,0.045
5.493,-0.629,0.723,0.047
5.503,-0.631,0.719,0.045
5.513,-0.635,0.719,0.045
5.523,-0.633,0.719,0.047
5.533,-0.631,0.711,0.045
5.543,-0.633,0.715,0.047
5.552,-0.631,0.705,0.045
5.562,-0.627,0.707,0.049
5.572,-0.625,0.719,0.041
5.582,-0.621,0.729,0.041
5.592,-0.619,0.727,0.037
5.602,-0.625,0.729,0.043
5.612,-0.639,0.740,0.047
5.622,-0.639,0.738,0.041
5.632,-0.633,0.734,0.039
5.642,-0.623,0.725,0.043
5.652,-0.623,0.717,0.043
5.662,-0.623,0.707,0.045
5.672,-0.625,0.711,0.035
5.682,-0.629,0.721,0.041
5.691,-0.633,0.725,0.041
5.701,-0.629,0.723,0.035
5.711,-0.623,0.721,0.043
5.721,-0.623,0.723,0.041
5.731,-0.621,0.729,0.039
5.741,-0.621,0.725,0.043
5.751,-0.627,0.717,0.043
5.761,-0.631,0.711,0.041
5.771,-0.631,0.723,0.039
5.781,-0.635,0.721,0.041
5.791,-0.639,0.723,0.047
5.801,-0.637,0.717,0.043
5.811,-0.627,0.709,0.037
5.820,-0.627,0.707,0.037
5.830,-0.625,0.715,0.037
5.840,-0.631,0.725,0.035
5.850,-0.635,0.730,0.041
5.860,-0.629,0.732,0.039
5.870,-0.627,0.732,0.049
5.880,-0.631,0.723,0.037
5.890,-0.627,0.721,0.045
5.900,-0.627,0.721,0.039
5.910,-0.627,0.721,0.043
5.920,-0.621,0.723,0.041
5.930,-0.623,0.723,0.041
5.940,-0.623,0.721,0.045
5.950,-0.623,0.723,0.039
5.959,-0.625,0.725,0.039
5.969,-0.629,0.721,0.037
5.979,-0.621,0.719,0.035
5.989,-0.619,0.719,0.039
5.999,-0.619,0.725,0.039
6.009,-0.623,0.723,0.037
6.019,-0.631,0.721,0.039
6.029,-0.629,0.727,0.037
6.039,-0.629,0.727,0.039
6.049,-0.627,0.725,0.035
6.059,-0.627,0.730,0.037
6.069,-0.631,0.729,0.039
6.079,-0.629,0.725,0.041
6.088,-0.621,0.717,0.043
6.098,-0.621,0.725,0.041
6.108,-0.617,0.719,0.035
6.118,-0.623,0.719,0.037
6.128,-0.631,0.732,0.041
6.138,-0.639,0.738,0.043
6.148,-0.635,0.734,0.043
6.158,-0.627,0.730,0.043
6.168,-0.619,0.723,0.041
6.178,-0.621,0.719,0.045
6.188,-0.619,0.715,0.039
6.198,-0.621,0.715,0.041
6.208,-0.621,0.717,0.037
6.218,-0.621,0.719,0.039
6.227,-0.621,0.725,0.039
6.237,-0.621,0.727,0.041
6.247,-0.623,0.729,0.037
6.257,-0.627,0.729,0.041
6.267,-0.635,0.719,0.041
6.277,-0.631,0.719,0.035
6.287,-0.629,0.721,0.035
6.297,-0.627,0.721,0.037
6.307,-0.627,0.723,0.037
6.317,-0.629,0.723,0.041
6.327,-0.621,0.721,0.039
6.337,-0.623,0.715,0.039
6.347,-0.619,0.715,0.039
6.356,-0.615,0.721,0.027
6.366,-0.617,0.727,0.037
6.376,-0.623,0.734,0.035
6.386,-0.619,0.734,0.035
6.396,-0.621,0.730,0.039
6.406,-0.621,0.725,0.029
6.416,-0.615,0.725,0.033
6.426,-0.615,0.727,0.035
6.436,-0.617,0.730,0.039
6.446,-0.623,0.730,0.037
6.456,-0.621,0.729,0.035
6.466,-0.615,0.730,0.033
6.476,-0.613,0.734,0.035
6.486,-0.611,0.738,0.033
6.495,-0.625,0.736,0.041
6.505,-0.613,0.729,0.037
6.515,-0.615,0.752,0.043
6.525,-0.637,0.742,0.041
6.535,-0.639,0.725,0.033
6.545,-0.633,0.721,0.041
6.555,-0.635,0.723,0.043
6.565,-0.643,0.723,0.037
6.575,-0.633,0.711,0.043
6.585,-0.619,0.709,0.035
6.595,-0.613,0.713,0.045
6.605,-0.613,0.725,0.043
6.615,-0.613,0.717,0.043
6.624,-0.604,0.715,0.045
6.634,-0.604,0.725,0.037
6.644,-0.605,0.725,0.033
6.654,-0.605,0.721,0.035
6.664,-0.627,0.732,0.037
6.674,-0.629,0.746,0.039
6.684,-0.627,0.744,0.037
6.694,-0.623,0.736,0.039
6.704,-0.625,0.727,0.039
6.714,-0.635,0.725,0.037
6.724,-0.627,0.713,0.025
6.734,-0.621,0.713,0.031
6.744,-0.627,0.707,0.031
6.754,-0.629,0.707,0.033
6.763,-0.639,0.713,0.033
6.773,-0.629,0.721,0.033
6.783,-0.629,0.725,0.031
6.793,-0.623,0.729,0.027
6.803,-0.613,0.730,0.029
6.813,-0.613,0.730,0.035
6.823,-0.617,0.734,0.033
6.833,-0.617,0.729,0.031
6.843,-0.619,0.729,0.033
6.853,-0.615,0.736,0.035
6.863,-0.619,0.729,0.037
6.873,-0.615,0.723,0.033
6.883,-0.619,0.723,0.035
6.892,-0.617,0.725,0.037
6.902,-0.627,0.744,0.029
6.912,-0.635,0.762,0.043
6.922,-0.656,0.766,0.045
6.932,-0.654,0.734,0.031
6.942,-0.633,0.713,0.039
6.952,-0.617,0.715,0.031
6.962,-0.609,0.723,0.027
6.972,-0.609,0.721,0.031
6.982,-0.633,0.713,0.041
6.992,-0.635,0.707,0.033
7.002,-0.621,0.707,0.037
7.012,-0.607,0.707,0.039
7.022,-0.611,0.717,0.035
7.031,-0.621,0.725,0.043
7.041,-0.621,0.723,0.039
7.051,-0.617,0.717,0.039
7.061,-0.615,0.717,0.029
7.071,-0.619,0.719,0.033
7.081,-0.619,0.723,0.025
7.091,-0.627,0.729,0.029
7.101,-0.635,0.727,0.025
7.111,-0.639,0.727,0.021
7.121,-0.639,0.738,0.031
7.131,-0.639,0.729,0.025
7.141,-0.623,0.729,0.025
7.151,-0.611,0.730,0.031
7.160,-0.615,0.738,0.035
7.170,-0.609,0.730,0.035
7.180,-0.604,0.723,0.035
7.190,-0.609,0.730,0.035
7.200,-0.615,0.721,0.029
7.210,-0.611,0.721,0.031
7.220,-0.631,0.730,0.039
7.230,-0.639,0.736,0.039
7.240,-0.625,0.734,0.047
7.250,-0.629,0.732,0.041
7.260,-0.631,0.730,0.047
7.270,-0.639,0.725,0.043
7.280,-0.625,0.730,0.033
7.290,-0.609,0.729,0.035
7.299,-0.621,0.734,0.031
7.309,-0.619,0.730,0.035
7.319,-0.639,0.736,0.045
7.329,-0.645,0.725,0.037
7.339,-0.639,0.713,0.033
7.349,-0.627,0.705,0.033
7.359,-0.629,0.707,0.035
7.369,-0.645,0.711,0.039
7.379,-0.645,0.719,0.041
7.389,-0.641,0.723,0.037
7.399,-0.633,0.723,0.033
7.409,-0.625,0.719,0.035
7.419,-0.623,0.719,0.037
7.428,-0.617,0.717,0.035
7.438,-0.613,0.715,0.035
7.448,-0.621,0.719,0.033
7.458,-0.621,0.713,0.027
7.468,-0.625,0.721,0.039
7.478,-0.631,0.721,0.033
7.488,-0.631,0.721,0.031
7.498,-0.629,0.719,0.025
7.508,-0.621,0.729,0.029
7.518,-0.619,0.730,0.033
7.528,-0.625,0.736,0.027
7.538,-0.629,0.730,0.033
7.548,-0.631,0.723,0.029
7.558,-0.627,0.727,0.031
7.567,-0.619,0.721,0.031
7.577,-0.619,0.725,0.027
7.587,-0.617,0.725,0.029
7.597,-0.623,0.727,0.033
7.607,-0.621,0.727,0.027
7.617,-0.615,0.725,0.031
7.627,-0.623,0.725,0.031
7.637,-0.615,0.734,0.029
7.647,-0.611,0.732,0.033
7.657,-0.627,0.730,0.037
7.667,-0.631,0.727,0.027
7.677,-0.623,0.725,0.029
7.687,-0.621,0.729,0.027
7.696,-0.623,0.732,0.031
7.706,-0.627,0.736,0.039
7.716,-0.621,0.727,0.033
7.726,-0.615,0.725,0.035
7.736,-0.621,0.725,0.035
7.746,-0.621,0.729,0.033
7.756,-0.623,0.729,0.037
7.766,-0.629,0.725,0.037
7.776,-0.629,0.713,0.031
7.786,-0.623,0.717,0.035
7.796,-0.631,0.723,0.035
7.806,-0.635,0.736,0.037
7.816,-0.639,0.727,0.037
7.826,-0.631,0.723,0.035
7.835,-0.629,0.725,0.037
7.845,-0.631,0.734,0.041
7.855,-0.639,0.730,0.043
7.865,-0.641,0.725,0.043
7.875,-0.648,0.711,0.043
7.885,-0.646,0.705,0.037
7.895,-0.637,0.715,0.033
7.905,-0.635,0.717,0.033
7.915,-0.629,0.725,0.031
7.925,-0.615,0.730,0.035
7.935,-0.615,0.729,0.035
7.945,-0.617,0.721,0.035
7.955,-0.621,0.721,0.037
7.964,-0.629,0.721,0.041
7.974,-0.629,0.721,0.029
7.984,-0.625,0.717,0.039
7.994,-0.633,0.717,0.039
8.004,-0.633,0.717,0.025
8.014,-0.623,0.707,0.041
8.024,-0.633,0.713,0.037
8.034,-0.637,0.717,0.033
8.044,-0.637,0.721,0.029
8.054,-0.635,0.721,0.031
8.064,-0.637,0.723,0.033
8.074,-0.635,0.725,0.039
8.084,-0.623,0.725,0.033
8.094,-0.625,0.725,0.037
8.103,-0.631,0.723,0.035
8.113,-0.635,0.717,0.031
8.123,-0.627,0.723,0.039
8.133,-0.621,0.723,0.035
8.143,-0.623,0.719,0.037
8.153,-0.623,0.721,0.037
8.163,-0.627,0.721,0.039
8.173,-0.627,0.719,0.041
8.183,-0.619,0.727,0.039
8.193,-0.625,0.723,0.037
8.203,-0.625,0.723,0.039
8.213,-0.621,0.723,0.039
8.223,-0.623,0.723,0.039
8.232,-0.625,0.727,0.037
8.242,-0.629,0.725,0.037
8.252,-0.633,0.730,0.037
8.262,-0.629,0.725,0.041
8.272,-0.633,0.729,0.043
8.282,-0.633,0.723,0.037
8.292,-0.631,0.723,0.043
8.302,-0.631,0.719,0.039
8.312,-0.629,0.715,0.045
8.322,-0.631,0.715,0.039
8.332,-0.629,0.717,0.043
8.342,-0.623,0.719,0.045
8.352,-0.619,0.717,0.041
8.362,-0.615,0.713,0.037
8.371,-0.619,0.721,0.043
8.381,-0.631,0.727,0.041
8.391,-0.629,0.732,0.043
8.401,-0.627,0.732,0.039
8.411,-0.623,0.730,0.039
8.421,-0.619,0.729,0.043
8.431,-0.621,0.727,0.043
8.441,-0.625,0.723,0.041
8.451,-0.621,0.721,0.039
8.461,-0.629,0.723,0.035
8.471,-0.633,0.727,0.029
8.481,-0.619,0.730,0.035
8.491,-0.615,0.740,0.035
8.500,-0.615,0.734,0.035
8.510,-0.615,0.721,0.031
8.520,-0.615,0.713,0.033
8.530,-0.613,0.715,0.037
8.540,-0.619,0.721,0.037
8.550,-0.615,0.717,0.033
8.560,-0.617,0.713,0.035
8.570,-0.623,0.715,0.033
8.580,-0.621,0.713,0.033
8.590,-0.617,0.715,0.033
8.600,-0.615,0.723,0.029
8.610,-0.619,0.727,0.025
8.620,-0.619,0.723,0.023
8.629,-0.625,0.725,0.023
8.639,-0.627,0.727,0.021
8.649,-0.625,0.725,0.023
8.659,-0.631,0.715,0.021
8.669,-0.631,0.705,0.021
8.679,-0.637,0.697,0.020
8.689,-0.631,0.688,0.014
8.699,-0.637,0.701,0.006
8.709,-0.639,0.699,0.008
8.719,-0.646,0.697,0.008
8.729,-0.650,0.699,0.010
8.739,-0.652,0.703,0.006
8.749,-0.646,0.705,0.008
8.759,-0.652,0.711,0.002
8.768,-0.658,0.705,-0.002
8.778,-0.658,0.705,0.004
8.788,-0.650,0.705,0.000
8.798,-0.656,0.709,0.000
8.808,-0.654,0.703,-0.006
8.818,-0.656,0.695,-0.010
8.828,-0.654,0.695,-0.014
8.838,-0.658,0.697,-0.014
8.848,-0.664,0.697,-0.016
8.858,-0.666,0.697,-0.020
8.868,-0.666,0.703,-0.014
8.878,-0.674,0.691,-0.018
8.888,-0.674,0.691,-0.025
8.897,-0.680,0.693,-0.020
8.907,-0.674,0.686,-0.029
8.917,-0.668,0.695,-0.018
8.927,-0.674,0.701,-0.018
8.937,-0.662,0.693,-0.027
8.947,-0.654,0.686,-0.027
8.957,-0.664,0.684,-0.031
8.967,-0.678,0.676,-0.037
8.977,-0.678,0.676,-0.035
8.987,-0.684,0.688,-0.029
8.997,-0.682,0.680,-0.041
9.007,-0.680,0.676,-0.041
9.017,-0.678,0.678,-0.035
9.027,-0.680,0.672,-0.043
9.036,-0.676,0.672,-0.043
9.046,-0.674,0.682,-0.041
9.056,-0.682,0.688,-0.043
9.066,-0.668,0.688,-0.047
9.076,-0.674,0.684,-0.049
9.086,-0.678,0.686,-0.053
9.096,-0.674,0.695,-0.053
9.106,-0.670,0.693,-0.053
9.116,-0.674,0.701,-0.059
9.126,-0.664,0.713,-0.057
9.136,-0.662,0.713,-0.066
9.146,-0.656,0.709,-0.055
9.156,-0.658,0.713,-0.053
9.165,-0.664,0.699,-0.051
9.175,-0.648,0.691,-0.061
9.185,-0.652,0.682,-0.057
9.195,-0.650,0.680,-0.064
9.205,-0.650,0.676,-0.059
9.215,-0.660,0.678,-0.053
9.225,-0.666,0.682,-0.055
9.235,-0.660,0.691,-0.049
9.245,-0.666,0.693,-0.051
9.255,-0.666,0.701,-0.051
9.265,-0.668,0.705,-0.051
9.275,-0.666,0.705,-0.049
9.285,-0.666,0.715,-0.051
9.295,-0.674,0.723,-0.049
9.304,-0.693,0.713,-0.047
9.314,-0.689,0.691,-0.062
9.324,-0.666,0.670,-0.064
9.334,-0.648,0.676,-0.066
9.344,-0.652,0.689,-0.064
9.354,-0.668,0.693,-0.041
9.364,-0.676,0.691,-0.047
9.374,-0.664,0.684,-0.045
9.384,-0.645,0.676,-0.047
9.394,-0.652,0.680,-0.039
9.404,-0.666,0.684,-0.055
9.414,-0.652,0.678,-0.047
9.424,-0.652,0.686,-0.049
9.433,-0.664,0.689,-0.047
9.443,-0.668,0.693,-0.045
9.453,-0.664,0.695,-0.053
9.463,-0.656,0.680,-0.047
9.473,-0.662,0.688,-0.051
9.483,-0.670,0.686,-0.051
9.493,-0.668,0.693,-0.041
9.503,-0.672,0.691,-0.039
9.513,-0.664,0.686,-0.045
9.523,-0.662,0.680,-0.055
9.533,-0.670,0.676,-0.045
9.543,-0.674,0.684,-0.049
9.553,-0.676,0.697,-0.045
9.563,-0.670,0.699,-0.051
9.572,-0.656,0.693,-0.043
9.582,-0.660,0.695,-0.049
9.592,-0.660,0.691,-0.045
9.602,-0.664,0.689,-0.043
9.612,-0.664,0.686,-0.043
9.622,-0.664,0.686,-0.047
9.632,-0.658,0.686,-0.047
9.642,-0.652,0.684,-0.043
9.652,-0.658,0.684,-0.043
9.662,-0.656,0.680,-0.041
9.672,-0.664,0.678,-0.043
9.682,-0.666,0.678,-0.043
9.692,-0.670,0.680,-0.043
9.701,-0.670,0.686,-0.047
9.711,-0.672,0.684,-0.051
9.721,-0.668,0.697,-0.045
9.731,-0.676,0.695,-0.045
9.741,-0.676,0.680,-0.057
9.751,-0.660,0.686,-0.045
9.761,-0.662,0.686,-0.051
9.771,-0.646,0.688,-0.059
9.781,-0.646,0.699,-0.047
9.791,-0.650,0.697,-0.055
9.801,-0.658,0.689,-0.049
9.811,-0.666,0.686,-0.053
9.821,-0.666,0.688,-0.055
9.831,-0.650,0.693,-0.061
9.840,-0.650,0.705,-0.055
9.850,-0.660,0.701,-0.061
9.860,-0.666,0.701,-0.057
9.870,-0.670,0.695,-0.055
9.880,-0.660,0.691,-0.057
9.890,-0.658,0.697,-0.051
9.900,-0.664,0.705,-0.051
9.910,-0.660,0.703,-0.051
9.920,-0.650,0.693,-0.051
9.930,-0.641,0.691,-0.053
9.940,-0.648,0.688,-0.045
9.950,-0.654,0.682,-0.049
9.960,-0.646,0.684,-0.053
9.969,-0.656,0.688,-0.047
9.979,-0.672,0.693,-0.047
9.989,-0.691,0.705,-0.047
9.999,-0.699,0.711,-0.047
10.009,-0.691,0.715,-0.043
10.019,-0.686,0.691,-0.047
10.029,-0.672,0.684,-0.049
10.039,-0.668,0.686,-0.045
10.049,-0.670,0.684,-0.049
10.059,-0.670,0.693,-0.033
10.069,-0.668,0.693,-0.039
10.079,-0.652,0.678,-0.037
10.089,-0.650,0.670,-0.049
10.099,-0.652,0.682,-0.043
10.108,-0.652,0.695,-0.033
10.118,-0.662,0.701,-0.045
10.128,-0.656,0.707,-0.037
10.138,-0.641,0.691,-0.027
10.148,-0.646,0.688,-0.043
10.158,-0.646,0.686,-0.047
10.168,-0.645,0.676,-0.037
10.178,-0.660,0.680,-0.037
10.188,-0.674,0.682,-0.049
10.198,-0.680,0.674,-0.047
10.208,-0.678,0.670,-0.043
10.218,-0.682,0.672,-0.047
10.228,-0.682,0.676,-0.055
10.237,-0.689,0.678,-0.051
10.247,-0.691,0.682,-0.057
10.257,-0.682,0.684,-0.059
10.267,-0.682,0.688,-0.051
10.277,-0.678,0.686,-0.051
10.287,-0.672,0.686,-0.051
10.297,-0.666,0.686,-0.053
10.307,-0.662,0.686,-0.055
10.317,-0.660,0.684,-0.051
10.327,-0.658,0.691,-0.055
10.337,-0.662,0.689,-0.045
10.347,-0.666,0.686,-0.045
10.357,-0.658,0.686,-0.045
10.367,-0.654,0.676,-0.045
10.376,-0.658,0.680,-0.043
10.386,-0.662,0.676,-0.039
10.396,-0.666,0.682,-0.051
10.406,-0.664,0.688,-0.051
10.416,-0.682,0.686,-0.053
10.426,-0.670,0.684,-0.057
10.436,-0.666,0.688,-0.053
10.446,-0.660,0.684,-0.061
10.456,-0.678,0.686,-0.053
10.466,-0.660,0.689,-0.055
10.476,-0.662,0.693,-0.055
10.486,-0.662,0.693,-0.057
10.496,-0.664,0.684,-0.051
10.505,-0.664,0.684,-0.051
10.515,-0.672,0.684,-0.061
10.525,-0.670,0.688,-0.057
10.535,-0.672,0.691,-0.055
10.545,-0.666,0.693,-0.055
10.555,-0.664,0.688,-0.055
10.565,-0.660,0.684,-0.059
10.575,-0.672,0.684,-0.055
10.585,-0.670,0.684,-0.053
10.595,-0.666,0.680,-0.053
10.605,-0.654,0.689,-0.053
10.615,-0.658,0.689,-0.053
10.625,-0.658,0.686,-0.062
10.635,-0.660,0.682,-0.055
10.644,-0.676,0.693,-0.055
10.654,-0.676,0.709,-0.057
10.664,-0.666,0.701,-0.055
10.674,-0.670,0.695,-0.053
10.684,-0.664,0.697,-0.049
10.694,-0.660,0.691,-0.049
10.704,-0.660,0.682,-0.051
10.714,-0.664,0.680,-0.053
10.724,-0.664,0.684,-0.051
10.734,-0.664,0.678,-0.053
10.744,-0.664,0.684,-0.055
10.754,-0.658,0.695,-0.051
10.764,-0.654,0.695,-0.053
10.773,-0.652,0.699,-0.051
10.783,-0.668,0.709,-0.051
10.793,-0.691,0.703,-0.051
10.803,-0.693,0.682,-0.057
10.813,-0.686,0.676,-0.057
10.823,-0.668,0.682,-0.061
10.833,-0.672,0.680,-0.045
10.843,-0.693,0.674,-0.049
10.853,-0.693,0.672,-0.061
10.863,-0.676,0.668,-0.053
10.873,-0.662,0.678,-0.055
10.883,-0.650,0.693,-0.053
10.893,-0.650,0.701,-0.045
10.903,-0.648,0.699,-0.051
10.912,-0.643,0.699,-0.047
10.922,-0.641,0.697,-0.053
10.932,-0.641,0.686,-0.043
10.942,-0.656,0.688,-0.051
10.952,-0.658,0.691,-0.051
10.962,-0.656,0.689,-0.049
10.972,-0.652,0.689,-0.051
10.982,-0.660,0.682,-0.057
10.992,-0.658,0.684,-0.053
11.002,-0.660,0.680,-0.055
11.012,-0.666,0.680,-0.062
11.022,-0.666,0.688,-0.057
11.032,-0.682,0.689,-0.061
11.041,-0.684,0.688,-0.055
11.051,-0.684,0.688,-0.053
11.061,-0.682,0.689,-0.057
11.071,-0.674,0.684,-0.055
11.081,-0.662,0.682,-0.057
11.091,-0.660,0.684,-0.059
11.101,-0.658,0.686,-0.059
11.111,-0.656,0.688,-0.051
11.121,-0.650,0.689,-0.055
11.131,-0.650,0.695,-0.053
11.141,-0.645,0.693,-0.057
11.151,-0.646,0.691,-0.059
11.161,-0.654,0.695,-0.049
11.171,-0.668,0.701,-0.049
11.180,-0.672,0.703,-0.047
11.190,-0.666,0.693,-0.043
11.200,-0.658,0.689,-0.041
11.210,-0.656,0.686,-0.047
11.220,-0.660,0.670,-0.057
11.230,-0.652,0.674,-0.053
11.240,-0.652,0.689,-0.045
11.250,-0.650,0.701,-0.068
11.260,-0.648,0.688,-0.045
11.270,-0.670,0.672,-0.051
11.280,-0.670,0.688,-0.064
11.290,-0.656,0.691,-0.053
11.300,-0.660,0.693,-0.055
11.309,-0.670,0.695,-0.061
11.319,-0.668,0.701,-0.066
11.329,-0.664,0.695,-0.061
11.339,-0.658,0.686,-0.061
11.349,-0.654,0.686,-0.061
11.359,-0.654,0.691,-0.062
11.369,-0.656,0.697,-0.061
11.379,-0.656,0.695,-0.059
11.389,-0.662,0.705,-0.062
11.399,-0.658,0.701,-0.061
11.409,-0.652,0.703,-0.059
11.419,-0.645,0.695,-0.059
11.429,-0.646,0.697,-0.055
11.439,-0.658,0.703,-0.055
11.448,-0.660,0.697,-0.055
11.458,-0.670,0.697,-0.053
11.468,-0.689,0.689,-0.055
11.478,-0.678,0.686,-0.062
11.488,-0.666,0.684,-0.057
11.498,-0.652,0.688,-0.055
11.508,-0.646,0.705,-0.064
11.518,-0.645,0.701,-0.055
11.528,-0.670,0.693,-0.051
11.538,-0.680,0.688,-0.057
11.548,-0.674,0.688,-0.055
11.558,-0.668,0.686,-0.053
11.568,-0.672,0.693,-0.059
11.577,-0.664,0.695,-0.059
11.587,-0.662,0.691,-0.051
11.597,-0.658,0.686,-0.059
11.607,-0.654,0.699,-0.049
11.617,-0.648,0.703,-0.041
11.627,-0.645,0.693,-0.039
11.637,-0.650,0.682,-0.039
11.647,-0.648,0.670,-0.049
11.657,-0.643,0.676,-0.041
11.667,-0.637,0.688,-0.051
11.677,-0.658,0.699,-0.049
11.687,-0.670,0.709,-0.043
11.697,-0.662,0.701,-0.047
11.707,-0.668,0.693,-0.053
11.716,-0.672,0.693,-0.047
11.726,-0.678,0.686,-0.049
11.736,-0.672,0.682,-0.047
11.746,-0.676,0.682,-0.047
11.756,-0.674,0.674,-0.047
11.766,-0.674,0.676,-0.057
11.776,-0.666,0.676,-0.057
11.786,-0.664,0.684,-0.055
11.796,-0.664,0.689,-0.055
11.806,-0.664,0.689,-0.053
11.816,-0.662,0.693,-0.053
11.826,-0.662,0.691,-0.055
11.836,-0.656,0.693,-0.053
11.845,-0.662,0.695,-0.051
11.855,-0.658,0.695,-0.049
11.865,-0.648,0.693,-0.053
11.875,-0.646,0.691,-0.049
11.885,-0.645,0.691,-0.053
11.895,-0.639,0.693,-0.043
11.905,-0.637,0.695,-0.039
11.915,-0.629,0.686,-0.055
11.925,-0.605,0.689,-0.066
11.935,-0.582,0.707,-0.061
11.945,-0.586,0.715,-0.051
11.955,-0.629,0.703,-0.049
11.965,-0.645,0.697,-0.059
11.975,-0.625,0.703,-0.061
11.984,-0.631,0.707,-0.051
11.994,-0.652,0.693,-0.062
12.004,-0.650,0.684,-0.068
12.014,-0.654,0.678,-0.064
12.024,-0.664,0.674,-0.072
12.034,-0.664,0.670,-0.076
12.044,-0.658,0.672,-0.078
12.054,-0.658,0.684,-0.080
12.064,-0.652,0.682,-0.080
12.074,-0.646,0.688,-0.078
12.084,-0.650,0.686,-0.080
12.094,-0.648,0.680,-0.086
12.104,-0.654,0.676,-0.092
12.113,-0.666,0.674,-0.098
12.123,-0.676,0.678,-0.098
12.133,-0.684,0.674,-0.100
12.143,-0.689,0.666,-0.105
12.153,-0.680,0.670,-0.102
12.163,-0.688,0.676,-0.105
12.173,-0.689,0.662,-0.107
12.183,-0.697,0.668,-0.121
12.193,-0.697,0.680,-0.129
12.203,-0.707,0.676,-0.127
12.213,-0.721,0.670,-0.131
12.223,-0.715,0.662,-0.133
12.233,-0.689,0.664,-0.141
12.242,-0.686,0.658,-0.125
12.252,-0.689,0.645,-0.119
12.262,-0.697,0.646,-0.148
12.272,-0.691,0.641,-0.109
12.282,-0.695,0.645,-0.143
12.292,-0.697,0.635,-0.137
12.302,-0.693,0.646,-0.146
12.312,-0.684,0.650,-0.145
12.322,-0.674,0.639,-0.143
12.332,-0.678,0.672,-0.158
12.342,-0.680,0.672,-0.154
12.352,-0.674,0.660,-0.162
12.362,-0.684,0.652,-0.158
12.372,-0.689,0.643,-0.164
12.381,-0.695,0.643,-0.170
12.391,-0.689,0.641,-0.168
12.401,-0.682,0.645,-0.168
12.411,-0.680,0.646,-0.170
12.421,-0.674,0.646,-0.176
12.431,-0.660,0.646,-0.176
12.441,-0.662,0.646,-0.178
12.451,-0.678,0.650,-0.176
12.461,-0.682,0.658,-0.178
12.471,-0.680,0.650,-0.174
12.481,-0.688,0.648,-0.170
12.491,-0.693,0.639,-0.174
12.501,-0.691,0.633,-0.168
12.510,-0.715,0.619,-0.184
12.520,-0.689,0.625,-0.211
12.530,-0.637,0.629,-0.209
12.540,-0.613,0.662,-0.193
12.550,-0.664,0.674,-0.182
12.560,-0.699,0.682,-0.178
12.570,-0.684,0.680,-0.188
12.580,-0.664,0.676,-0.188
12.590,-0.678,0.668,-0.189
12.600,-0.689,0.650,-0.197
12.610,-0.684,0.650,-0.205
12.620,-0.662,0.658,-0.199
12.630,-0.662,0.666,-0.189
12.640,-0.662,0.664,-0.199
12.649,-0.648,0.668,-0.199
12.659,-0.658,0.666,-0.184
12.669,-0.680,0.670,-0.188
12.679,-0.680,0.674,-0.189
12.689,-0.676,0.656,-0.186
12.699,-0.689,0.645,-0.191
12.709,-0.693,0.652,-0.199
12.719,-0.691,0.652,-0.193
12.729,-0.691,0.656,-0.193
12.739,-0.678,0.664,-0.189
12.749,-0.668,0.662,-0.184
12.759,-0.666,0.660,-0.178
12.769,-0.670,0.662,-0.180
12.778,-0.670,0.664,-0.188
12.788,-0.678,0.662,-0.186
12.798,-0.682,0.656,-0.189
12.808,-0.676,0.660,-0.189
12.818,-0.680,0.691,-0.189
12.828,-0.680,0.705,-0.193
12.838,-0.688,0.680,-0.186
12.848,-0.693,0.650,-0.189
12.858,-0.699,0.654,-0.189
12.868,-0.680,0.666,-0.186
12.878,-0.658,0.660,-0.191
12.888,-0.633,0.645,-0.178
12.898,-0.635,0.605,-0.166
12.908,-0.629,0.629,-0.189
12.917,-0.629,0.646,-0.166
12.927,-0.625,0.645,-0.191
12.937,-0.639,0.672,-0.188
12.947,-0.656,0.656,-0.170
12.957,-0.658,0.633,-0.193
12.967,-0.660,0.646,-0.188
12.977,-0.678,0.658,-0.184
12.987,-0.680,0.654,-0.186
12.997,-0.678,0.654,-0.188
13.007,-0.680,0.660,-0.186
13.017,-0.678,0.662,-0.184
13.027,-0.674,0.662,-0.186
13.037,-0.674,0.658,-0.188
13.046,-0.676,0.654,-0.193
13.056,-0.678,0.658,-0.193
13.066,-0.676,0.654,-0.193
13.076,-0.672,0.648,-0.191
13.086,-0.680,0.648,-0.189
13.096,-0.674,0.650,-0.191
13.106,-0.652,0.633,-0.203
13.116,-0.635,0.631,-0.178
13.126,-0.662,0.641,-0.160
13.136,-0.707,0.695,-0.193
13.146,-0.674,0.680,-0.191
13.156,-0.682,0.646,-0.168
13.166,-0.689,0.633,-0.193
13.176,-0.658,0.658,-0.189
13.185,-0.648,0.658,-0.186
13.195,-0.646,0.660,-0.186
13.205,-0.666,0.656,-0.184
13.215,-0.656,0.646,-0.189
13.225,-0.664,0.643,-0.189
13.235,-0.670,0.645,-0.189
13.245,-0.672,0.648,-0.195
13.255,-0.668,0.654,-0.191
13.265,-0.672,0.664,-0.188
13.275,-0.674,0.656,-0.178
13.285,-0.684,0.658,-0.186
13.295,-0.689,0.652,-0.186
13.305,-0.705,0.650,-0.188
13.314,-0.711,0.643,-0.191
13.324,-0.699,0.654,-0.193
13.334,-0.705,0.670,-0.193
13.344,-0.697,0.658,-0.191
13.354,-0.695,0.668,-0.191
13.364,-0.703,0.680,-0.186
13.374,-0.697,0.664,-0.193
13.384,-0.668,0.645,-0.186
13.394,-0.652,0.645,-0.189
13.404,-0.660,0.621,-0.174
13.414,-0.662,0.637,-0.191
13.424,-0.648,0.652,-0.174
13.434,-0.650,0.635,-0.186
13.444,-0.654,0.641,-0.195
13.453,-0.660,0.662,-0.180
13.463,-0.660,0.646,-0.186
13.473,-0.670,0.633,-0.184
13.483,-0.676,0.635,-0.184
13.493,-0.668,0.645,-0.182
13.503,-0.662,0.637,-0.180
13.513,-0.666,0.639,-0.182
13.523,-0.672,0.648,-0.180
13.533,-0.666,0.650,-0.184
13.543,-0.666,0.646,-0.184
13.553,-0.670,0.650,-0.191
13.563,-0.676,0.654,-0.189
13.573,-0.672,0.660,-0.189
13.582,-0.680,0.660,-0.186
13.592,-0.682,0.652,-0.189
13.602,-0.686,0.652,-0.189
13.612,-0.686,0.643,-0.184
13.622,-0.688,0.631,-0.188
13.632,-0.686,0.629,-0.188
13.642,-0.703,0.643,-0.182
13.652,-0.711,0.625,-0.207
13.662,-0.676,0.637,-0.221
13.672,-0.623,0.664,-0.209
13.682,-0.652,0.674,-0.186
13.692,-0.693,0.662,-0.193
13.702,-0.695,0.670,-0.203
13.712,-0.672,0.674,-0.193
13.721,-0.660,0.670,-0.191
13.731,-0.668,0.676,-0.199
13.741,-0.664,0.660,-0.207
13.751,-0.652,0.646,-0.203
13.761,-0.668,0.646,-0.193
13.771,-0.674,0.658,-0.193
13.781,-0.660,0.668,-0.193
13.791,-0.643,0.672,-0.189
13.801,-0.650,0.686,-0.178
13.811,-0.652,0.678,-0.182
13.821,-0.654,0.652,-0.170
13.831,-0.654,0.643,-0.180
13.841,-0.648,0.648,-0.180
13.850,-0.668,0.654,-0.166
13.860,-0.689,0.672,-0.174
13.870,-0.715,0.646,-0.168
13.880,-0.699,0.627,-0.180
13.890,-0.674,0.627,-0.180
13.900,-0.668,0.633,-0.180
13.910,-0.678,0.646,-0.191
13.920,-0.672,0.658,-0.189
13.930,-0.684,0.676,-0.182
13.940,-0.697,0.652,-0.168
13.950,-0.686,0.646,-0.188
13.960,-0.676,0.637,-0.166
13.970,-0.674,0.631,-0.152
13.980,-0.691,0.652,-0.182
13.989,-0.691,0.641,-0.172
13.999,-0.682,0.639,-0.184
14.009,-0.684,0.643,-0.174
14.019,-0.680,0.648,-0.189
14.029,-0.674,0.670,-0.203
14.039,-0.686,0.668,-0.180
14.049,-0.691,0.645,-0.193
14.059,-0.691,0.650,-0.191
14.069,-0.688,0.650,-0.186
14.079,-0.688,0.643,-0.189
14.089,-0.678,0.641,-0.189
14.099,-0.680,0.643,-0.189
14.109,-0.672,0.641,-0.188
14.118,-0.662,0.641,-0.189
14.128,-0.656,0.643,-0.188
14.138,-0.662,0.643,-0.193
14.148,-0.652,0.652,-0.182
14.158,-0.658,0.652,-0.182
14.168,-0.664,0.648,-0.188
14.178,-0.658,0.650,-0.188
14.188,-0.664,0.650,-0.184
14.198,-0.662,0.646,-0.184
14.208,-0.660,0.641,-0.184
14.218,-0.656,0.633,-0.178
14.228,-0.686,0.641,-0.178
14.238,-0.697,0.652,-0.195
14.248,-0.678,0.660,-0.215
14.257,-0.641,0.660,-0.178
14.267,-0.639,0.662,-0.184
14.277,-0.664,0.643,-0.191
14.287,-0.680,0.639,-0.199
14.297,-0.680,0.658,-0.195
14.307,-0.697,0.662,-0.188
14.317,-0.703,0.658,-0.197
14.327,-0.703,0.664,-0.191
14.337,-0.691,0.660,-0.205
14.347,-0.695,0.658,-0.188
14.357,-0.711,0.645,-0.195
14.367,-0.711,0.639,-0.195
14.377,-0.693,0.637,-0.193
14.386,-0.684,0.643,-0.193
14.396,-0.674,0.650,-0.199
14.406,-0.670,0.650,-0.191
14.416,-0.662,0.656,-0.195
14.426,-0.668,0.662,-0.182
14.436,-0.678,0.664,-0.174
14.446,-0.666,0.660,-0.188
14.456,-0.654,0.678,-0.201
14.466,-0.668,0.660,-0.189
14.476,-0.676,0.646,-0.199
14.486,-0.660,0.637,-0.197
14.496,-0.656,0.662,-0.199
14.506,-0.656,0.666,-0.176
14.516,-0.680,0.646,-0.193
14.525,-0.682,0.627,-0.195
14.535,-0.680,0.639,-0.180
14.545,-0.670,0.637,-0.189
14.555,-0.660,0.627,-0.193
14.565,-0.668,0.650,-0.188
14.575,-0.664,0.648,-0.174
14.585,-0.674,0.658,-0.186
14.595,-0.682,0.654,-0.195
14.605,-0.684,0.652,-0.199
14.615,-0.688,0.641,-0.197
14.625,-0.688,0.635,-0.195
14.635,-0.688,0.641,-0.193
14.645,-0.688,0.645,-0.188
14.654,-0.688,0.643,-0.193
14.664,-0.688,0.645,-0.191
14.674,-0.688,0.645,-0.193
14.684,-0.688,0.641,-0.191
14.694,-0.686,0.637,-0.193
14.704,-0.682,0.635,-0.195
14.714,-0.682,0.639,-0.193
14.724,-0.670,0.645,-0.203
14.734,-0.672,0.652,-0.195
14.744,-0.678,0.648,-0.197
14.754,-0.674,0.652,-0.191
14.764,-0.666,0.654,-0.191
14.774,-0.662,0.646,-0.191
14.784,-0.662,0.635,-0.195
14.793,-0.660,0.637,-0.193
14.803,-0.664,0.643,-0.186
14.813,-0.666,0.645,-0.193
14.823,-0.678,0.656,-0.191
14.833,-0.680,0.664,-0.189
14.843,-0.666,0.666,-0.199
14.853,-0.688,0.639,-0.174
14.863,-0.686,0.635,-0.201
14.873,-0.666,0.650,-0.199
14.883,-0.660,0.648,-0.186
14.893,-0.676,0.652,-0.197
14.903,-0.666,0.646,-0.201
14.913,-0.674,0.645,-0.191
14.922,-0.688,0.643,-0.191
14.932,-0.697,0.648,-0.191
14.942,-0.684,0.646,-0.195
14.952,-0.678,0.646,-0.191
14.962,-0.688,0.648,-0.188
14.972,-0.680,0.654,-0.189
14.982,-0.670,0.654,-0.191
14.992,-0.668,0.646,-0.189
15.002,-0.668,0.654,-0.191
15.012,-0.672,0.650,-0.195
15.022,-0.682,0.652,-0.195
15.032,-0.674,0.648,-0.203
15.042,-0.682,0.645,-0.184
15.052,-0.684,0.645,-0.193
15.061,-0.693,0.648,-0.197
15.071,-0.689,0.643,-0.189
15.081,-0.688,0.643,-0.195
15.091,-0.680,0.641,-0.193
15.101,-0.684,0.652,-0.203
15.111,-0.678,0.656,-0.197
15.121,-0.680,0.664,-0.201
15.131,-0.688,0.676,-0.193
15.141,-0.689,0.652,-0.182
15.151,-0.688,0.637,-0.193
15.161,-0.674,0.621,-0.184
15.171,-0.672,0.629,-0.188
15.181,-0.666,0.639,-0.188
15.190,-0.684,0.641,-0.191
15.200,-0.662,0.645,-0.199
15.210,-0.656,0.654,-0.186
15.220,-0.654,0.650,-0.199
15.230,-0.658,0.660,-0.205
15.240,-0.670,0.662,-0.191
15.250,-0.678,0.656,-0.201
15.260,-0.688,0.654,-0.188
15.270,-0.678,0.643,-0.191
15.280,-0.672,0.625,-0.195
15.290,-0.674,0.625,-0.191
15.300,-0.682,0.625,-0.193
15.310,-0.682,0.637,-0.191
15.320,-0.684,0.645,-0.193
15.329,-0.684,0.646,-0.188
15.339,-0.684,0.643,-0.186
15.349,-0.689,0.646,-0.191
15.359,-0.688,0.643,-0.191
15.369,-0.688,0.635,-0.191
15.379,-0.695,0.633,-0.193
15.389,-0.693,0.633,-0.189
15.399,-0.689,0.633,-0.188
15.409,-0.688,0.635,-0.186
15.419,-0.689,0.639,-0.188
15.429,-0.701,0.656,-0.195
15.439,-0.699,0.643,-0.211
15.449,-0.707,0.637,-0.205
15.458,-0.656,0.641,-0.219
15.468,-0.648,0.664,-0.201
15.478,-0.688,0.652,-0.178
15.488,-0.707,0.658,-0.205
15.498,-0.686,0.660,-0.195
15.508,-0.670,0.648,-0.188
15.518,-0.662,0.645,-0.203
15.528,-0.666,0.645,-0.201
15.538,-0.672,0.646,-0.197
15.548,-0.662,0.650,-0.205
15.558,-0.652,0.658,-0.197
15.568,-0.666,0.656,-0.191
15.578,-0.668,0.656,-0.201
15.587,-0.660,0.658,-0.195
15.597,-0.656,0.658,-0.193
15.607,-0.658,0.648,-0.193
15.617,-0.650,0.656,-0.199
15.627,-0.652,0.660,-0.193
15.637,-0.668,0.652,-0.195
15.647,-0.674,0.646,-0.195
15.657,-0.688,0.645,-0.193
15.667,-0.686,0.646,-0.201
15.677,-0.680,0.643,-0.199
15.687,-0.686,0.650,-0.199
15.697,-0.688,0.658,-0.197
15.707,-0.684,0.658,-0.201
15.717,-0.686,0.658,-0.195
15.726,-0.684,0.666,-0.195
15.736,-0.689,0.664,-0.188
15.746,-0.682,0.662,-0.209
15.756,-0.680,0.645,-0.201
15.766,-0.682,0.654,-0.201
15.776,-0.680,0.664,-0.209
15.786,-0.686,0.658,-0.188
15.796,-0.682,0.629,-0.182
15.806,-0.686,0.619,-0.195
15.816,-0.672,0.604,-0.178
15.826,-0.670,0.623,-0.182
15.836,-0.689,0.643,-0.186
15.846,-0.678,0.639,-0.193
15.855,-0.666,0.645,-0.174
15.865,-0.662,0.646,-0.203
15.875,-0.666,0.646,-0.203
15.885,-0.676,0.660,-0.195
15.895,-0.678,0.645,-0.197
15.905,-0.682,0.639,-0.189
15.915,-0.684,0.648,-0.195
15.925,-0.678,0.650,-0.191
15.935,-0.684,0.643,-0.189
15.945,-0.682,0.641,-0.191
15.955,-0.682,0.643,-0.188
15.965,-0.684,0.643,-0.189
15.975,-0.680,0.637,-0.188
15.985,-0.680,0.639,-0.186
15.994,-0.670,0.648,-0.186
16.004,-0.674,0.650,-0.189
16.014,-0.670,0.648,-0.191
16.024,-0.674,0.652,-0.189
16.034,-0.668,0.645,-0.189
16.044,-0.670,0.645,-0.186
16.054,-0.674,0.637,-0.186
16.064,-0.672,0.643,-0.184
16.074,-0.678,0.645,-0.188
16.084,-0.676,0.652,-0.201
16.094,-0.670,0.648,-0.199
16.104,-0.670,0.643,-0.201
16.114,-0.668,0.662,-0.205
16.123,-0.660,0.650,-0.191
16.133,-0.684,0.650,-0.197
16.143,-0.686,0.643,-0.201
16.153,-0.678,0.654,-0.197
16.163,-0.682,0.641,-0.195
16.173,-0.676,0.643,-0.199
16.183,-0.682,0.650,-0.189
16.193,-0.684,0.666,-0.193
16.203,-0.674,0.656,-0.195
16.213,-0.676,0.654,-0.189
16.223,-0.680,0.648,-0.191
16.233,-0.676,0.648,-0.189
16.243,-0.678,0.660,-0.188
16.253,-0.682,0.656,-0.189
16.262,-0.664,0.650,-0.193
16.272,-0.662,0.652,-0.188
16.282,-0.660,0.660,-0.188
16.292,-0.662,0.666,-0.180
16.302,-0.666,0.650,-0.182
16.312,-0.674,0.643,-0.182
16.322,-0.662,0.627,-0.193
16.332,-0.668,0.637,-0.188
16.342,-0.680,0.648,-0.189
16.352,-0.676,0.656,-0.189
16.362,-0.674,0.672,-0.188
16.372,-0.684,0.668,-0.180
16.382,-0.701,0.648,-0.186
16.391,-0.701,0.625,-0.191
16.401,-0.684,0.627,-0.197
16.411,-0.680,0.645,-0.197
16.421,-0.688,0.656,-0.182
16.431,-0.703,0.674,-0.191
16.441,-0.699,0.674,-0.201
16.451,-0.688,0.650,-0.193
16.461,-0.674,0.641,-0.197
16.471,-0.670,0.643,-0.174
16.481,-0.688,0.621,-0.164
16.491,-0.674,0.623,-0.188
16.501,-0.676,0.639,-0.186
16.511,-0.670,0.654,-0.180
16.521,-0.670,0.658,-0.191
16.530,-0.658,0.656,-0.201
16.540,-0.664,0.676,-0.191
16.550,-0.674,0.635,-0.186
16.560,-0.688,0.639,-0.191
16.570,-0.688,0.643,-0.191
16.580,-0.680,0.645,-0.188
16.590,-0.686,0.645,-0.188
16.600,-0.680,0.641,-0.189
16.610,-0.682,0.648,-0.188
16.620,-0.684,0.652,-0.182
16.630,-0.686,0.652,-0.186
16.640,-0.682,0.654,-0.186
16.650,-0.682,0.654,-0.186
16.659,-0.680,0.652,-0.188
16.669,-0.680,0.650,-0.189
16.679,-0.672,0.645,-0.188
16.689,-0.674,0.639,-0.182
16.699,-0.688,0.635,-0.182
16.709,-0.693,0.635,-0.186
16.719,-0.691,0.625,-0.188
16.729,-0.695,0.617,-0.172
16.739,-0.729,0.600,-0.191
16.749,-0.752,0.650,-0.201
16.759,-0.713,0.688,-0.213
16.769,-0.732,0.650,-0.172
16.779,-0.777,0.648,-0.186
16.789,-0.768,0.664,-0.197
16.798,-0.740,0.645,-0.191
16.808,-0.762,0.641,-0.189
16.818,-0.770,0.631,-0.193
16.828,-0.760,0.635,-0.186
16.838,-0.752,0.641,-0.176
16.848,-0.748,0.635,-0.176
16.858,-0.748,0.635,-0.172
16.868,-0.738,0.639,-0.160
16.878,-0.734,0.654,-0.152
16.888,-0.705,0.662,-0.145
16.898,-0.678,0.654,-0.133
16.908,-0.668,0.676,-0.123
16.918,-0.654,0.672,-0.121
16.927,-0.633,0.674,-0.107
16.937,-0.635,0.680,-0.102
16.947,-0.650,0.654,-0.084
16.957,-0.664,0.668,-0.090
16.967,-0.666,0.662,-0.076
16.977,-0.639,0.672,-0.076
16.987,-0.627,0.680,-0.072
16.997,-0.645,0.689,-0.045
17.007,-0.674,0.715,-0.047
17.017,-0.684,0.721,-0.055
17.027,-0.680,0.676,-0.033
17.037,-0.674,0.666,-0.057
17.047,-0.645,0.650,-0.037
17.057,-0.627,0.654,-0.045
17.066,-0.641,0.684,-0.041
17.076,-0.648,0.680,-0.033
17.086,-0.643,0.678,-0.035
17.096,-0.643,0.697,-0.021
17.106,-0.648,0.705,-0.031
17.116,-0.654,0.699,-0.027
17.126,-0.664,0.717,-0.020
17.136,-0.682,0.703,-0.004
17.146,-0.693,0.695,-0.006
17.156,-0.682,0.680,-0.002
17.166,-0.680,0.676,0.000
17.176,-0.668,0.678,0.008
17.186,-0.648,0.678,0.006
17.195,-0.646,0.678,0.010
17.205,-0.637,0.678,0.012
17.215,-0.627,0.688,0.020
17.225,-0.625,0.697,0.025
17.235,-0.619,0.701,0.018
17.245,-0.619,0.713,0.020
17.255,-0.611,0.715,0.023
17.265,-0.615,0.715,0.029
17.275,-0.609,0.727,0.027
17.285,-0.607,0.744,0.035
17.295,-0.602,0.719,0.041
17.305,-0.600,0.711,0.037
17.315,-0.623,0.686,0.025
17.325,-0.559,0.689,-0.012
17.334,-0.543,0.732,0.039
17.344,-0.621,0.746,0.053
17.354,-0.660,0.736,0.020
17.364,-0.604,0.732,0.021
17.374,-0.566,0.748,0.023
17.384,-0.574,0.760,0.016
17.394,-0.590,0.752,0.023
17.404,-0.594,0.740,0.023
17.414,-0.600,0.744,0.031
17.424,-0.621,0.762,0.035
17.434,-0.604,0.742,0.031
17.444,-0.600,0.740,0.037
17.454,-0.605,0.730,0.045
17.463,-0.615,0.732,0.047
17.473,-0.605,0.709,0.053
17.483,-0.586,0.729,0.051
17.493,-0.574,0.768,0.059
17.503,-0.609,0.773,0.078
17.513,-0.662,0.756,0.074
17.523,-0.668,0.736,0.061
17.533,-0.668,0.711,0.047
17.543,-0.682,0.703,0.043
17.553,-0.670,0.705,0.049
17.563,-0.664,0.732,0.049
17.573,-0.666,0.723,0.066
17.583,-0.668,0.699,0.059
17.593,-0.650,0.713,0.057
17.602,-0.635,0.713,0.062
17.612,-0.617,0.721,0.033
17.622,-0.600,0.729,0.064
17.632,-0.613,0.750,0.051
17.642,-0.615,0.748,0.045
17.652,-0.607,0.740,0.055
17.662,-0.609,0.734,0.047
17.672,-0.604,0.732,0.047
17.682,-0.592,0.729,0.045
17.692,-0.586,0.734,0.043
17.702,-0.578,0.732,0.039
17.712,-0.572,0.740,0.043
17.722,-0.564,0.748,0.039
17.731,-0.557,0.746,0.041
17.741,-0.547,0.750,0.049
17.751,-0.545,0.750,0.049
17.761,-0.551,0.750,0.051
17.771,-0.555,0.750,0.051
17.781,-0.568,0.740,0.049
17.791,-0.576,0.740,0.051
17.801,-0.596,0.736,0.055
17.811,-0.600,0.732,0.053
17.821,-0.600,0.742,0.061
17.831,-0.617,0.750,0.062
17.841,-0.639,0.748,0.072
17.851,-0.641,0.734,0.076
17.861,-0.635,0.725,0.074
17.870,-0.629,0.736,0.082
17.880,-0.631,0.729,0.078
17.890,-0.648,0.730,0.078
17.900,-0.656,0.729,0.080
17.910,-0.650,0.730,0.078
17.920,-0.605,0.727,0.051
17.930,-0.588,0.764,0.078
17.940,-0.625,0.758,0.080
17.950,-0.629,0.760,0.068
17.960,-0.617,0.750,0.072
17.970,-0.604,0.744,0.076
17.980,-0.600,0.746,0.055
17.990,-0.594,0.740,0.053
17.999,-0.592,0.740,0.059
18.009,-0.594,0.748,0.068
18.019,-0.570,0.752,0.055
18.029,-0.580,0.756,0.064
18.039,-0.572,0.771,0.045
18.049,-0.566,0.771,0.061
18.059,-0.555,0.760,0.057
18.069,-0.555,0.756,0.061
18.079,-0.527,0.750,0.059
18.089,-0.529,0.756,0.068
18.099,-0.545,0.752,0.057
18.109,-0.549,0.742,0.066
18.119,-0.562,0.732,0.068
18.129,-0.572,0.727,0.068
18.138,-0.570,0.744,0.068
18.148,-0.572,0.750,0.080
18.158,-0.572,0.773,0.074
18.168,-0.613,0.779,0.080
18.178,-0.617,0.750,0.064
18.188,-0.592,0.752,0.074
18.198,-0.615,0.756,0.086
18.208,-0.631,0.736,0.072
18.218,-0.635,0.732,0.082
18.228,-0.641,0.746,0.088
18.238,-0.650,0.732,0.080
18.248,-0.633,0.734,0.076
18.258,-0.611,0.758,0.076
18.267,-0.615,0.744,0.086
18.277,-0.621,0.756,0.084
18.287,-0.633,0.756,0.078
18.297,-0.639,0.746,0.086
18.307,-0.627,0.746,0.080
18.317,-0.613,0.748,0.076
18.327,-0.602,0.748,0.061
18.337,-0.584,0.748,0.070
18.347,-0.570,0.762,0.057
18.357,-0.559,0.754,0.066
18.367,-0.564,0.754,0.072
18.377,-0.572,0.750,0.055
18.387,-0.547,0.750,0.068
18.397,-0.529,0.760,0.061
18.406,-0.525,0.754,0.035
18.416,-0.523,0.756,0.055
18.426,-0.535,0.779,0.047
18.436,-0.551,0.762,0.053
18.446,-0.570,0.746,0.061
18.456,-0.582,0.742,0.055
18.466,-0.580,0.738,0.061
18.476,-0.580,0.730,0.070
18.486,-0.594,0.734,0.074
18.496,-0.598,0.744,0.068
18.506,-0.592,0.746,0.072
18.516,-0.598,0.748,0.078
18.526,-0.600,0.746,0.076
18.535,-0.596,0.752,0.080
18.545,-0.602,0.754,0.086
18.555,-0.604,0.756,0.084
18.565,-0.607,0.754,0.086
18.575,-0.602,0.752,0.084
18.585,-0.598,0.756,0.082
18.595,-0.605,0.750,0.082
18.605,-0.611,0.740,0.084
18.615,-0.615,0.744,0.090
18.625,-0.604,0.750,0.088
18.635,-0.596,0.750,0.082
18.645,-0.594,0.740,0.066
18.655,-0.594,0.748,0.082
18.665,-0.572,0.744,0.072
18.674,-0.561,0.768,0.082
18.684,-0.547,0.773,0.062
18.694,-0.533,0.781,0.061
18.704,-0.543,0.775,0.053
18.714,-0.553,0.762,0.055
18.724,-0.523,0.775,0.053
18.734,-0.549,0.779,0.053
18.744,-0.562,0.750,0.059
18.754,-0.572,0.748,0.053
18.764,-0.561,0.748,0.059
18.774,-0.559,0.764,0.047
18.784,-0.541,0.756,0.064
18.794,-0.555,0.760,0.070
18.803,-0.570,0.766,0.064
18.813,-0.578,0.764,0.074
18.823,-0.570,0.760,0.072
18.833,-0.568,0.758,0.076
18.843,-0.582,0.748,0.086
18.853,-0.574,0.758,0.066
18.863,-0.582,0.746,0.088
18.873,-0.609,0.756,0.088
18.883,-0.607,0.764,0.082
18.893,-0.604,0.760,0.090
18.903,-0.609,0.764,0.086
18.913,-0.609,0.771,0.092
18.923,-0.611,0.770,0.094
18.932,-0.602,0.766,0.080
18.942,-0.605,0.762,0.086
18.952,-0.605,0.770,0.072
18.962,-0.596,0.768,0.076
18.972,-0.605,0.768,0.064
18.982,-0.600,0.758,0.066
18.992,-0.600,0.777,0.070
19.002,-0.580,0.783,0.076
19.012,-0.555,0.768,0.072
19.022,-0.549,0.748,0.037
19.032,-0.545,0.723,0.057
19.042,-0.533,0.730,0.064
19.052,-0.533,0.746,0.053
19.062,-0.555,0.750,0.068
19.071,-0.557,0.752,0.055
19.081,-0.543,0.754,0.051
19.091,-0.561,0.787,0.062
19.101,-0.566,0.756,0.059
19.111,-0.584,0.746,0.057
19.121,-0.604,0.744,0.055
19.131,-0.611,0.742,0.059
19.141,-0.605,0.742,0.064
19.151,-0.602,0.750,0.066
19.161,-0.602,0.748,0.064
19.171,-0.590,0.750,0.068
19.181,-0.598,0.752,0.070
19.191,-0.602,0.750,0.068
19.200,-0.590,0.752,0.068
19.210,-0.594,0.758,0.076
19.220,-0.594,0.762,0.068
19.230,-0.596,0.760,0.068
19.240,-0.598,0.754,0.070
19.250,-0.596,0.750,0.068
19.260,-0.594,0.746,0.066
19.270,-0.590,0.748,0.064
19.280,-0.584,0.744,0.062
19.290,-0.590,0.742,0.064
19.300,-0.576,0.750,0.064
19.310,-0.572,0.756,0.066
19.320,-0.576,0.752,0.070
19.330,-0.584,0.748,0.070
19.339,-0.582,0.730,0.051
19.349,-0.553,0.734,0.055
19.359,-0.516,0.768,0.039
19.369,-0.555,0.762,0.070
19.379,-0.588,0.764,0.059
19.389,-0.580,0.771,0.055
19.399,-0.564,0.771,0.064
19.409,-0.578,0.766,0.055
19.419,-0.598,0.746,0.059
19.429,-0.611,0.746,0.061
19.439,-0.604,0.748,0.061
19.449,-0.600,0.752,0.066
19.459,-0.594,0.758,0.070
19.468,-0.594,0.756,0.078
19.478,-0.574,0.764,0.074
19.488,-0.588,0.770,0.080
19.498,-0.598,0.768,0.074
19.508,-0.580,0.758,0.074
19.518,-0.578,0.771,0.076
19.528,-0.586,0.775,0.076
19.538,-0.596,0.766,0.076
19.548,-0.596,0.758,0.068
19.558,-0.604,0.754,0.088
19.568,-0.619,0.768,0.059
19.578,-0.602,0.756,0.078
19.588,-0.600,0.758,0.080
19.598,-0.586,0.762,0.059
19.607,-0.566,0.752,0.062
19.617,-0.555,0.734,0.084
19.627,-0.561,0.734,0.064
19.637,-0.549,0.732,0.070
19.647,-0.545,0.732,0.064
19.657,-0.541,0.732,0.068
19.667,-0.539,0.740,0.062
19.677,-0.541,0.746,0.049
19.687,-0.564,0.777,0.061
19.697,-0.568,0.768,0.055
19.707,-0.600,0.752,0.062
19.717,-0.613,0.746,0.057
19.727,-0.604,0.746,0.057
19.736,-0.607,0.746,0.059
19.746,-0.611,0.750,0.059
19.756,-0.609,0.754,0.059
19.766,-0.607,0.754,0.064
19.776,-0.611,0.746,0.066
19.786,-0.617,0.746,0.064
19.796,-0.613,0.746,0.061
19.806,-0.613,0.750,0.064
19.816,-0.609,0.748,0.061
19.826,-0.607,0.742,0.061
19.836,-0.600,0.742,0.059
19.846,-0.600,0.738,0.061
19.856,-0.600,0.740,0.061
19.866,-0.598,0.744,0.051
19.875,-0.596,0.742,0.062
19.885,-0.594,0.744,0.059
19.895,-0.600,0.744,0.064
19.905,-0.596,0.748,0.061
19.915,-0.586,0.752,0.066
19.925,-0.588,0.748,0.061
19.935,-0.596,0.738,0.055
19.945,-0.588,0.732,0.037
19.955,-0.570,0.734,0.035
19.965,-0.555,0.744,0.047
19.975,-0.547,0.773,0.061
19.985,-0.584,0.775,0.068
19.995,-0.586,0.764,0.057
20.004,-0.574,0.764,0.051
20.014,-0.586,0.760,0.057
20.024,-0.600,0.740,0.045
20.034,-0.598,0.746,0.051
20.044,-0.592,0.752,0.051
20.054,-0.590,0.754,0.055
20.064,-0.586,0.750,0.059
20.074,-0.596,0.752,0.057
20.084,-0.594,0.750,0.055
20.094,-0.590,0.754,0.059
20.104,-0.596,0.750,0.062
20.114,-0.594,0.756,0.059
20.124,-0.600,0.766,0.055
20.134,-0.605,0.742,0.057
20.143,-0.609,0.736,0.049
20.153,-0.605,0.738,0.043
20.163,-0.607,0.729,0.053
20.173,-0.602,0.750,0.027
20.183,-0.600,0.777,0.057
20.193,-0.613,0.777,0.072
20.203,-0.627,0.771,0.061
20.213,-0.609,0.738,0.043
20.223,-0.604,0.711,0.039
20.233,-0.611,0.713,0.043
20.243,-0.609,0.721,0.037
20.253,-0.609,0.717,0.043
20.263,-0.596,0.738,0.033
20.272,-0.580,0.754,0.033
20.282,-0.576,0.760,0.021
20.292,-0.582,0.770,0.039
20.302,-0.588,0.758,0.041
20.312,-0.602,0.748,0.043
20.322,-0.607,0.742,0.041
20.332,-0.604,0.734,0.035
20.342,-0.605,0.730,0.035
20.352,-0.605,0.736,0.037
20.362,-0.607,0.738,0.035
20.372,-0.609,0.736,0.035
20.382,-0.605,0.740,0.037
20.392,-0.602,0.742,0.037
20.402,-0.602,0.742,0.037
20.411,-0.600,0.740,0.037
20.421,-0.600,0.742,0.031
20.431,-0.607,0.750,0.035
20.441,-0.609,0.742,0.035
20.451,-0.605,0.738,0.035
20.461,-0.604,0.736,0.037
20.471,-0.605,0.732,0.041
20.481,-0.609,0.729,0.041
20.491,-0.604,0.729,0.039
20.501,-0.607,0.744,0.043
20.511,-0.604,0.734,0.025
20.521,-0.592,0.736,0.027
20.531,-0.594,0.727,0.020
20.540,-0.602,0.742,0.021
20.550,-0.578,0.766,0.023
20.560,-0.609,0.766,0.047
20.570,-0.637,0.760,0.043
20.580,-0.619,0.750,0.033
20.590,-0.602,0.742,0.041
20.600,-0.609,0.746,0.035
20.610,-0.613,0.734,0.035
20.620,-0.605,0.732,0.031
20.630,-0.607,0.732,0.035
20.640,-0.615,0.730,0.031
20.650,-0.613,0.734,0.031
20.660,-0.602,0.738,0.031
20.670,-0.602,0.742,0.029
20.679,-0.602,0.748,0.033
20.689,-0.600,0.754,0.037
20.699,-0.602,0.752,0.037
20.709,-0.600,0.744,0.031
20.719,-0.590,0.738,0.037
20.729,-0.594,0.742,0.033
20.739,-0.596,0.738,0.033
20.749,-0.596,0.736,0.031
20.759,-0.598,0.738,0.029
20.769,-0.592,0.748,0.029
20.779,-0.598,0.752,0.033
20.789,-0.598,0.750,0.031
20.799,-0.602,0.752,0.035
20.808,-0.604,0.752,0.031
20.818,-0.605,0.752,0.031
20.828,-0.604,0.750,0.029
20.838,-0.600,0.736,0.031
20.848,-0.600,0.736,0.031
20.858,-0.605,0.738,0.025
20.868,-0.600,0.740,0.029
20.878,-0.602,0.742,0.035
20.888,-0.619,0.748,0.035
20.898,-0.609,0.748,0.025
20.908,-0.619,0.740,0.039
20.918,-0.617,0.740,0.029
20.928,-0.611,0.742,0.025
20.938,-0.605,0.727,0.021
20.947,-0.602,0.752,0.031
20.957,-0.615,0.766,0.037
20.967,-0.613,0.756,0.039
20.977,-0.600,0.732,0.033
20.987,-0.605,0.721,0.053
20.997,-0.602,0.725,0.041
21.007,-0.594,0.730,0.037
21.017,-0.598,0.736,0.045
21.027,-0.592,0.734,0.037
21.037,-0.580,0.736,0.035
21.047,-0.600,0.756,0.023
21.057,-0.625,0.762,0.029
21.067,-0.625,0.742,0.031
21.076,-0.621,0.725,0.031
21.086,-0.627,0.717,0.035
21.096,-0.623,0.713,0.035
21.106,-0.617,0.723,0.037
21.116,-0.619,0.729,0.035
21.126,-0.621,0.725,0.033
21.136,-0.615,0.727,0.033
21.146,-0.615,0.732,0.033
21.156,-0.611,0.736,0.027
21.166,-0.611,0.732,0.033
21.176,-0.613,0.738,0.033
21.186,-0.613,0.738,0.031
21.196,-0.611,0.736,0.029
21.206,-0.615,0.736,0.029
21.215,-0.611,0.738,0.029
21.225,-0.605,0.734,0.035
21.235,-0.605,0.729,0.033
21.245,-0.602,0.729,0.037
21.255,-0.600,0.727,0.035
21.265,-0.598,0.725,0.037
21.275,-0.613,0.725,0.027
21.285,-0.604,0.723,0.018
21.295,-0.619,0.754,0.014
21.305,-0.566,0.742,0.025
21.315,-0.619,0.750,0.049
21.325,-0.643,0.746,0.010
21.335,-0.584,0.746,0.027
21.344,-0.580,0.762,0.039
21.354,-0.596,0.762,0.020
21.364,-0.596,0.750,0.029
21.374,-0.598,0.740,0.027
21.384,-0.607,0.736,0.027
21.394,-0.609,0.734,0.025
21.404,-0.594,0.740,0.025
21.414,-0.588,0.742,0.035
21.424,-0.594,0.748,0.027
21.434,-0.596,0.752,0.033
21.444,-0.596,0.738,0.031
21.454,-0.592,0.738,0.031
21.464,-0.604,0.742,0.033
21.474,-0.611,0.740,0.025
21.483,-0.604,0.736,0.025
21.493,-0.613,0.744,0.020
21.503,-0.611,0.752,0.021
21.513,-0.592,0.754,0.037
21.523,-0.609,0.766,0.025
21.533,-0.617,0.752,0.035
21.543,-0.609,0.723,0.029
21.553,-0.605,0.732,0.023
21.563,-0.609,0.750,0.025
21.573,-0.609,0.736,0.047
21.583,-0.611,0.738,0.035
21.593,-0.607,0.732,0.029
21.603,-0.607,0.721,0.047
21.612,-0.598,0.729,0.018
21.622,-0.592,0.732,0.045
21.632,-0.602,0.740,0.004
21.642,-0.596,0.734,0.021
21.652,-0.607,0.750,0.025
21.662,-0.611,0.734,0.025
21.672,-0.617,0.736,0.025
21.682,-0.619,0.730,0.025
21.692,-0.621,0.734,0.023
21.702,-0.617,0.730,0.021
21.712,-0.615,0.732,0.025
21.722,-0.619,0.738,0.023
21.732,-0.617,0.738,0.025
21.742,-0.607,0.734,0.029
21.751,-0.602,0.734,0.025
21.761,-0.596,0.738,0.025
21.771,-0.594,0.736,0.023
21.781,-0.600,0.738,0.027
21.791,-0.602,0.742,0.027
21.801,-0.600,0.738,0.027
21.811,-0.598,0.732,0.031
21.821,-0.600,0.723,0.031
21.831,-0.598,0.734,0.033
21.841,-0.590,0.746,0.029
21.851,-0.617,0.734,0.016
21.861,-0.600,0.727,0.002
21.871,-0.600,0.748,0.018
21.880,-0.590,0.748,0.016
21.890,-0.621,0.744,0.027
21.900,-0.631,0.746,0.018
21.910,-0.611,0.742,0.016
21.920,-0.605,0.742,0.021
21.930,-0.604,0.742,0.016
21.940,-0.607,0.744,0.020
21.950,-0.604,0.746,0.018
21.960,-0.609,0.742,0.025
21.970,-0.621,0.742,0.027
21.980,-0.615,0.736,0.020
21.990,-0.607,0.736,0.021
22.000,-0.609,0.742,0.021
22.010,-0.611,0.740,0.027
22.019,-0.602,0.738,0.025
22.029,-0.598,0.740,0.029
22.039,-0.590,0.742,0.025
22.049,-0.588,0.736,0.023
22.059,-0.598,0.750,0.029
22.069,-0.604,0.752,0.031
22.079,-0.605,0.756,0.025
22.089,-0.605,0.750,0.029
22.099,-0.598,0.744,0.025
22.109,-0.596,0.750,0.033
22.119,-0.605,0.748,0.025
22.129,-0.607,0.752,0.023
22.139,-0.627,0.748,0.033
22.148,-0.623,0.746,0.020
22.158,-0.607,0.746,0.018
22.168,-0.613,0.736,0.035
22.178,-0.621,0.729,0.027
22.188,-0.617,0.725,0.012
22.198,-0.607,0.725,0.031
22.208,-0.600,0.723,0.029
22.218,-0.602,0.732,0.039
22.228,-0.607,0.744,0.023
22.238,-0.615,0.736,0.027
22.248,-0.605,0.742,0.021
22.258,-0.588,0.734,0.035
22.268,-0.594,0.742,0.021
22.277,-0.580,0.746,0.002
22.287,-0.590,0.744,0.025
22.297,-0.604,0.744,0.008
22.307,-0.607,0.744,0.018
22.317,-0.607,0.734,0.018
22.327,-0.611,0.738,0.021
22.337,-0.609,0.736,0.020
22.347,-0.607,0.740,0.023
22.357,-0.613,0.738,0.023
22.367,-0.611,0.734,0.025
22.377,-0.611,0.736,0.021
22.387,-0.609,0.732,0.025
22.397,-0.607,0.729,0.023
22.407,-0.604,0.732,0.018
22.416,-0.607,0.738,0.018
22.426,-0.605,0.738,0.020
22.436,-0.605,0.738,0.021
22.446,-0.605,0.738,0.018
22.456,-0.609,0.736,0.023
22.466,-0.611,0.736,0.023
22.476,-0.609,0.736,0.029
22.486,-0.609,0.738,0.027
22.496,-0.607,0.738,0.037
22.506,-0.611,0.740,0.033
22.516,-0.609,0.740,0.033
22.526,-0.613,0.738,0.037
22.536,-0.619,0.734,0.029
22.545,-0.611,0.742,0.023
22.555,-0.604,0.746,0.031
22.565,-0.598,0.730,0.031
22.575,-0.609,0.729,0.027
22.585,-0.617,0.736,0.023
22.595,-0.596,0.738,0.010
22.605,-0.580,0.752,0.029
22.615,-0.600,0.736,0.033
22.625,-0.615,0.744,0.035
22.635,-0.607,0.744,0.027
22.645,-0.613,0.740,0.029
22.655,-0.611,0.742,0.029
22.665,-0.609,0.746,0.021
22.675,-0.607,0.746,0.021
22.684,-0.611,0.738,0.020
22.694,-0.609,0.738,0.029
22.704,-0.615,0.744,0.029
22.714,-0.609,0.736,0.029
22.724,-0.600,0.734,0.025
22.734,-0.592,0.738,0.020
22.744,-0.594,0.748,0.027
22.754,-0.596,0.748,0.021
22.764,-0.588,0.748,0.025
22.774,-0.592,0.754,0.027
22.784,-0.586,0.756,0.027
22.794,-0.578,0.756,0.025
22.804,-0.590,0.752,0.029
22.813,-0.602,0.746,0.023
22.823,-0.600,0.746,0.023
22.833,-0.607,0.750,0.025
22.843,-0.607,0.740,0.025
22.853,-0.602,0.744,0.023
22.863,-0.609,0.748,0.031
22.873,-0.611,0.748,0.025
22.883,-0.605,0.758,0.025
22.893,-0.605,0.758,0.033
22.903,-0.615,0.750,0.023
22.913,-0.609,0.750,0.025
22.923,-0.613,0.736,0.025
22.933,-0.609,0.732,0.027
22.943,-0.605,0.736,0.020
22.952,-0.590,0.730,0.027
22.962,-0.582,0.729,0.037
22.972,-0.590,0.744,0.033
22.982,-0.607,0.740,0.035
22.992,-0.609,0.736,0.025
23.002,-0.605,0.734,0.018
23.012,-0.596,0.730,0.035
23.022,-0.604,0.729,0.027
23.032,-0.598,0.736,0.008
23.042,-0.594,0.744,0.020
23.052,-0.604,0.744,0.018
23.062,-0.623,0.742,0.021
23.072,-0.629,0.734,0.025
23.081,-0.621,0.727,0.025
23.091,-0.609,0.725,0.023
23.101,-0.613,0.723,0.021
23.111,-0.619,0.725,0.023
23.121,-0.627,0.730,0.023
23.131,-0.627,0.738,0.025
23.141,-0.617,0.740,0.021
23.151,-0.613,0.736,0.020
23.161,-0.617,0.736,0.027
23.171,-0.617,0.738,0.027
23.181,-0.613,0.738,0.031
23.191,-0.617,0.732,0.025
23.201,-0.619,0.730,0.025
23.211,-0.615,0.730,0.031
23.220,-0.611,0.721,0.033
23.230,-0.607,0.723,0.035
23.240,-0.607,0.734,0.037
23.250,-0.609,0.734,0.027
23.260,-0.605,0.738,0.029
23.270,-0.607,0.740,0.023
23.280,-0.611,0.734,0.023
23.290,-0.604,0.734,0.020
23.300,-0.596,0.730,0.020
23.310,-0.598,0.748,0.025
23.320,-0.594,0.750,0.020
23.330,-0.604,0.742,0.027
23.340,-0.605,0.738,0.023
23.349,-0.605,0.732,0.021
23.359,-0.617,0.730,0.023
23.369,-0.615,0.730,0.018
23.379,-0.619,0.734,0.021
23.389,-0.623,0.736,0.016
23.399,-0.611,0.736,0.016
23.409,-0.619,0.740,0.025
23.419,-0.625,0.738,0.018
23.429,-0.613,0.742,0.018
23.439,-0.607,0.744,0.018
23.449,-0.611,0.740,0.020
23.459,-0.605,0.740,0.021
23.469,-0.605,0.742,0.021
23.479,-0.605,0.744,0.020
23.488,-0.602,0.742,0.021
23.498,-0.598,0.740,0.021
23.508,-0.602,0.746,0.025
23.518,-0.609,0.742,0.023
23.528,-0.607,0.734,0.020
23.538,-0.602,0.738,0.021
23.548,-0.605,0.740,0.023
23.558,-0.613,0.738,0.021
23.568,-0.617,0.730,0.020
23.578,-0.617,0.740,0.020
23.588,-0.613,0.738,0.023
23.598,-0.613,0.742,0.025
23.608,-0.615,0.736,0.021
23.617,-0.611,0.744,0.018
23.627,-0.613,0.744,0.027
23.637,-0.617,0.742,0.025
23.647,-0.621,0.736,0.027
23.657,-0.613,0.730,0.029
23.667,-0.613,0.727,0.018
23.677,-0.627,0.729,0.025
23.687,-0.639,0.730,0.023
23.697,-0.625,0.730,0.023
23.707,-0.609,0.732,0.021
23.717,-0.613,0.732,0.025
23.727,-0.613,0.730,0.029
23.737,-0.609,0.736,0.014
23.747,-0.613,0.748,0.025
23.756,-0.619,0.742,0.018
23.766,-0.605,0.729,0.025
23.776,-0.617,0.734,0.031
23.786,-0.615,0.725,0.039
23.796,-0.609,0.730,0.018
23.806,-0.607,0.734,0.014
23.816,-0.602,0.738,0.016
23.826,-0.607,0.730,0.027
23.836,-0.607,0.727,0.018
23.846,-0.613,0.734,0.018
23.856,-0.629,0.734,0.014
23.866,-0.627,0.723,0.016
23.876,-0.627,0.729,0.020
23.885,-0.625,0.723,0.016
23.895,-0.619,0.727,0.021
23.905,-0.619,0.727,0.020
23.915,-0.619,0.729,0.020
23.925,-0.613,0.732,0.016
23.935,-0.611,0.730,0.020
23.945,-0.607,0.734,0.020
23.955,-0.609,0.732,0.021
23.965,-0.611,0.738,0.018
23.975,-0.611,0.734,0.023
23.985,-0.615,0.732,0.027
23.995,-0.613,0.723,0.023
24.005,-0.611,0.723,0.025
24.015,-0.611,0.727,0.027
24.024,-0.627,0.730,0.018
24.034,-0.609,0.736,0.012
24.044,-0.631,0.730,0.016
24.054,-0.600,0.732,-0.002
24.064,-0.576,0.752,0.018
24.074,-0.607,0.746,0.021
24.084,-0.629,0.740,0.018
24.094,-0.621,0.730,0.021
24.104,-0.609,0.730,0.018
24.114,-0.605,0.729,0.018
24.124,-0.625,0.734,0.020
24.134,-0.627,0.736,0.018
24.144,-0.621,0.736,0.020
24.153,-0.629,0.734,0.020
24.163,-0.629,0.738,0.016
24.173,-0.627,0.736,0.020
24.183,-0.623,0.730,0.021
24.193,-0.617,0.725,0.021
24.203,-0.613,0.732,0.023
24.213,-0.609,0.736,0.027
24.223,-0.600,0.738,0.027
24.233,-0.600,0.746,0.031
24.243,-0.598,0.732,0.021
24.253,-0.605,0.727,0.025
24.263,-0.609,0.730,0.023
24.273,-0.613,0.734,0.025
24.283,-0.607,0.738,0.025
24.292,-0.611,0.746,0.027
24.302,-0.617,0.738,0.023
24.312,-0.615,0.740,0.023
24.322,-0.617,0.740,0.020
24.332,-0.625,0.738,0.021
24.342,-0.629,0.732,0.016
24.352,-0.627,0.734,0.018
24.362,-0.629,0.734,0.018
24.372,-0.625,0.738,0.020
24.382,-0.627,0.732,0.018
24.392,-0.629,0.730,0.014
24.402,-0.623,0.730,0.014
24.412,-0.625,0.732,0.016
24.421,-0.625,0.736,0.010
24.431,-0.627,0.738,0.012
24.441,-0.627,0.740,0.016
24.451,-0.621,0.738,0.018
24.461,-0.635,0.732,0.021
24.471,-0.623,0.729,0.020
24.481,-0.607,0.715,0.021
24.491,-0.602,0.717,0.020
24.501,-0.613,0.713,0.039
24.511,-0.619,0.727,0.014
24.521,-0.607,0.729,0.020
24.531,-0.605,0.732,0.014
24.541,-0.609,0.738,0.018
24.551,-0.617,0.740,0.016
24.560,-0.629,0.734,0.008
24.570,-0.631,0.727,0.008
24.580,-0.629,0.727,0.010
24.590,-0.631,0.725,0.010
24.600,-0.625,0.721,0.012
24.610,-0.629,0.719,0.010
24.620,-0.623,0.725,0.010
24.630,-0.619,0.729,0.010
24.640,-0.619,0.729,0.008
24.650,-0.617,0.732,0.010
24.660,-0.613,0.730,0.008
24.670,-0.607,0.734,0.008
24.680,-0.609,0.727,0.012
24.689,-0.613,0.729,0.016
24.699,-0.613,0.729,0.012
24.709,-0.615,0.727,0.018
24.719,-0.613,0.723,0.021
24.729,-0.607,0.711,0.020
24.739,-0.631,0.715,0.014
24.749,-0.633,0.715,-0.004
24.759,-0.588,0.744,-0.012
24.769,-0.588,0.744,0.023
24.779,-0.650,0.740,0.016
24.789,-0.648,0.732,0.000
24.799,-0.600,0.729,0.021
24.809,-0.605,0.744,0.018
24.819,-0.623,0.729,0.006
24.828,-0.629,0.721,0.010
24.838,-0.639,0.725,0.004
24.848,-0.641,0.734,0.008
24.858,-0.635,0.744,0.008
24.868,-0.629,0.746,0.014
24.878,-0.609,0.736,0.008
24.888,-0.613,0.744,0.020
24.898,-0.621,0.738,0.018
24.908,-0.611,0.738,0.018
24.918,-0.615,0.738,0.020
24.928,-0.625,0.730,0.021
24.938,-0.631,0.727,0.021
24.948,-0.625,0.719,0.018
24.957,-0.633,0.715,0.020
24.967,-0.623,0.721,0.010
24.977,-0.613,0.734,0.014
24.987,-0.607,0.756,0.012
24.997,-0.619,0.764,0.006
25.007,-0.631,0.754,0.027
25.017,-0.635,0.730,0.025
25.027,-0.619,0.717,0.014
25.037,-0.604,0.709,0.014
25.047,-0.600,0.705,0.029
25.057,-0.623,0.727,0.014
25.067,-0.619,0.717,0.021
25.077,-0.613,0.727,0.018
25.087,-0.609,0.738,0.004
25.096,-0.605,0.736,0.025
25.106,-0.613,0.734,0.012
25.116,-0.619,0.740,0.002
25.126,-0.627,0.740,0.004
25.136,-0.625,0.727,0.008
25.146,-0.635,0.723,0.008
25.156,-0.635,0.721,0.008
25.166,-0.633,0.721,0.008
25.176,-0.629,0.723,0.012
25.186,-0.627,0.725,0.012
25.196,-0.621,0.725,0.012
25.206,-0.615,0.729,0.014
25.216,-0.613,0.730,0.014
25.225,-0.611,0.725,0.016
25.235,-0.605,0.729,0.016
25.245,-0.609,0.729,0.016
25.255,-0.611,0.727,0.020
25.265,-0.615,0.723,0.021
25.275,-0.611,0.723,0.023
25.285,-0.615,0.730,0.023
25.295,-0.619,0.740,0.025
25.305,-0.627,0.717,-0.002
25.315,-0.598,0.725,0.000
25.325,-0.584,0.758,0.006
25.335,-0.615,0.750,0.023
25.345,-0.645,0.736,0.021
25.355,-0.633,0.727,0.014
25.364,-0.605,0.730,0.016
25.374,-0.605,0.723,0.010
25.384,-0.613,0.723,0.010
25.394,-0.625,0.734,0.016
25.404,-0.633,0.742,0.018
25.414,-0.635,0.742,0.018
25.424,-0.633,0.738,0.020
25.434,-0.623,0.734,0.018
25.444,-0.627,0.729,0.020
25.454,-0.631,0.725,0.023
25.464,-0.625,0.723,0.020
25.474,-0.619,0.730,0.018
25.484,-0.617,0.729,0.020
25.493,-0.615,0.721,0.020
25.503,-0.607,0.725,0.020
25.513,-0.613,0.729,0.021
25.523,-0.615,0.727,0.021
25.533,-0.613,0.732,0.018
25.543,-0.613,0.736,0.018
25.553,-0.621,0.738,0.020
25.563,-0.625,0.736,0.018
25.573,-0.621,0.730,0.023
25.583,-0.623,0.730,0.021
25.593,-0.621,0.734,0.021
25.603,-0.621,0.727,0.014
25.613,-0.617,0.734,0.014
25.623,-0.613,0.742,0.012
25.632,-0.621,0.754,0.018
25.642,-0.625,0.748,0.014
25.652,-0.633,0.742,0.016
25.662,-0.635,0.738,0.012
25.672,-0.627,0.729,0.010
25.682,-0.629,0.736,0.014
25.692,-0.639,0.730,0.010
25.702,-0.627,0.725,0.016
25.712,-0.621,0.729,0.021
25.722,-0.609,0.729,0.010
25.732,-0.598,0.723,0.023
25.742,-0.602,0.725,0.023
25.752,-0.600,0.730,0.021
25.761,-0.602,0.729,0.014
25.771,-0.596,0.729,0.027
25.781,-0.600,0.725,0.025
25.791,-0.607,0.719,0.029
25.801,-0.613,0.723,0.018
25.811,-0.611,0.727,0.010
25.821,-0.613,0.725,0.012
25.831,-0.625,0.736,0.014
25.841,-0.633,0.732,0.016
25.851,-0.633,0.734,0.014
25.861,-0.629,0.734,0.014
25.871,-0.631,0.734,0.014
25.881,-0.627,0.732,0.016
25.890,-0.627,0.729,0.020
25.900,-0.621,0.729,0.023
25.910,-0.613,0.732,0.021
25.920,-0.607,0.723,0.025
25.930,-0.604,0.713,0.021
25.940,-0.605,0.717,0.027
25.950,-0.602,0.730,0.035
25.960,-0.631,0.707,0.014
25.970,-0.611,0.727,0.002
25.980,-0.570,0.750,0.018
25.990,-0.615,0.754,0.035
26.000,-0.652,0.736,0.018
26.010,-0.639,0.740,0.014
26.020,-0.625,0.730,0.016
26.029,-0.623,0.729,0.010
26.039,-0.629,0.727,0.014
26.049,-0.633,0.725,0.018
26.059,-0.629,0.727,0.016
26.069,-0.625,0.729,0.021
26.079,-0.621,0.729,0.021
26.089,-0.615,0.734,0.020
26.099,-0.611,0.738,0.021
26.109,-0.611,0.732,0.023
26.119,-0.613,0.734,0.023
26.129,-0.621,0.736,0.035
26.139,-0.619,0.734,0.027
26.149,-0.623,0.732,0.029
26.158,-0.623,0.729,0.023
26.168,-0.621,0.725,0.016
26.178,-0.629,0.727,0.031
26.188,-0.627,0.736,0.020
26.198,-0.613,0.746,0.018
26.208,-0.625,0.738,0.031
26.218,-0.625,0.736,0.016
26.228,-0.621,0.734,0.020
26.238,-0.625,0.727,0.020
26.248,-0.625,0.730,0.021
26.258,-0.617,0.725,0.025
26.268,-0.625,0.730,0.012
26.278,-0.615,0.719,0.029
26.288,-0.617,0.719,0.025
26.297,-0.617,0.721,0.016
26.307,-0.623,0.723,0.020
26.317,-0.619,0.727,0.010
26.327,-0.617,0.727,0.021
26.337,-0.625,0.727,0.025
26.347,-0.629,0.732,0.004
26.357,-0.633,0.727,0.006
26.367,-0.633,0.717,0.016
26.377,-0.629,0.717,0.010
26.387,-0.627,0.721,0.018
26.397,-0.629,0.727,0.014
26.407,-0.623,0.730,0.014
26.417,-0.621,0.732,0.014
26.426,-0.625,0.732,0.018
26.436,-0.619,0.729,0.014
26.446,-0.617,0.734,0.014
26.456,-0.619,0.736,0.020
26.466,-0.621,0.734,0.016
26.476,-0.613,0.732,0.020
26.486,-0.607,0.729,0.018
26.496,-0.607,0.717,0.023
26.506,-0.615,0.721,0.023
26.516,-0.625,0.721,0.025
26.526,-0.621,0.725,0.029
26.536,-0.617,0.736,0.037
26.546,-0.615,0.705,-0.002
26.556,-0.605,0.734,0.008
26.565,-0.584,0.742,0.020
26.575,-0.639,0.742,0.031
26.585,-0.658,0.734,0.008
26.595,-0.625,0.734,0.014
26.605,-0.619,0.734,0.016
26.615,-0.625,0.727,0.008
26.625,-0.623,0.736,0.016
26.635,-0.631,0.732,0.020
26.645,-0.633,0.729,0.020
26.655,-0.633,0.732,0.016
26.665,-0.627,0.730,0.012
26.675,-0.623,0.727,0.016
26.685,-0.621,0.727,0.020
26.694,-0.621,0.730,0.025
26.704,-0.609,0.734,0.020
26.714,-0.609,0.734,0.023
26.724,-0.604,0.730,0.023
26.734,-0.602,0.736,0.027
26.744,-0.607,0.736,0.021
26.754,-0.611,0.738,0.021
26.764,-0.611,0.738,0.021
26.774,-0.613,0.744,0.021
26.784,-0.613,0.740,0.021
26.794,-0.615,0.736,0.018
26.804,-0.623,0.734,0.021
26.814,-0.625,0.738,0.020
26.824,-0.627,0.736,0.010
26.833,-0.619,0.734,0.016
26.843,-0.619,0.738,0.016
26.853,-0.623,0.744,0.012
26.863,-0.627,0.746,0.014
26.873,-0.627,0.729,0.027
26.883,-0.627,0.719,0.012
26.893,-0.617,0.713,0.020
26.903,-0.611,0.717,0.020
26.913,-0.619,0.721,0.027
26.923,-0.619,0.717,0.033
26.933,-0.613,0.729,0.025
26.943,-0.613,0.727,0.021
26.953,-0.605,0.729,0.023
26.962,-0.602,0.732,0.008
26.972,-0.609,0.734,0.023
26.982,-0.611,0.736,0.018
26.992,-0.613,0.738,0.014
27.002,-0.627,0.740,0.014
27.012,-0.627,0.729,0.004
27.022,-0.639,0.729,0.012
27.032,-0.635,0.725,0.014
27.042,-0.625,0.730,0.018
27.052,-0.619,0.727,0.016
27.062,-0.615,0.719,0.016
27.072,-0.615,0.719,0.016
27.082,-0.623,0.729,0.020
27.092,-0.621,0.736,0.018
27.101,-0.611,0.738,0.020
27.111,-0.607,0.736,0.021
27.121,-0.609,0.734,0.020
27.131,-0.611,0.730,0.027
27.141,-0.619,0.725,0.025
27.151,-0.621,0.719,0.025
27.161,-0.621,0.719,0.025
27.171,-0.623,0.727,0.027
27.181,-0.623,0.736,0.021
27.191,-0.629,0.715,0.000
27.201,-0.598,0.742,0.014
27.211,-0.586,0.744,0.010
27.221,-0.627,0.742,0.027
27.230,-0.641,0.742,0.014
27.240,-0.615,0.740,0.016
27.250,-0.613,0.730,0.018
27.260,-0.617,0.725,0.016
27.270,-0.621,0.729,0.020
27.280,-0.617,0.727,0.018
27.290,-0.617,0.725,0.018
27.300,-0.623,0.730,0.018
27.310,-0.615,0.729,0.018
27.320,-0.617,0.736,0.018
27.330,-0.621,0.738,0.014
27.340,-0.623,0.738,0.020
27.350,-0.623,0.734,0.018
27.360,-0.619,0.740,0.018
27.369,-0.619,0.740,0.021
27.379,-0.617,0.738,0.016
27.389,-0.621,0.736,0.020
27.399,-0.617,0.732,0.020
27.409,-0.617,0.736,0.021
27.419,-0.619,0.740,0.023
27.429,-0.621,0.732,0.023
27.439,-0.619,0.729,0.018
27.449,-0.615,0.732,0.016
27.459,-0.609,0.734,0.018
27.469,-0.604,0.742,0.012
27.479,-0.605,0.746,0.025
27.489,-0.617,0.750,0.016
27.498,-0.627,0.748,0.014
27.508,-0.635,0.732,0.023
27.518,-0.641,0.723,0.027
27.528,-0.654,0.723,0.014
27.538,-0.637,0.707,0.018
27.548,-0.629,0.717,0.025
27.558,-0.625,0.725,0.020
27.568,-0.631,0.738,0.025
27.578,-0.623,0.725,0.029
27.588,-0.615,0.723,0.023
27.598,-0.604,0.727,0.025
27.608,-0.600,0.732,0.023
27.618,-0.598,0.738,0.025
27.628,-0.594,0.719,0.023
27.637,-0.609,0.732,0.010
27.647,-0.633,0.738,0.010
27.657,-0.641,0.730,0.023
27.667,-0.641,0.732,0.018
27.677,-0.629,0.730,0.014
27.687,-0.631,0.723,0.023
27.697,-0.631,0.723,0.023
27.707,-0.635,0.723,0.021
27.717,-0.633,0.717,0.021
27.727,-0.631,0.723,0.018
27.737,-0.629,0.719,0.014
27.747,-0.629,0.723,0.021
27.757,-0.623,0.727,0.020
27.766,-0.621,0.725,0.021
27.776,-0.621,0.730,0.018
27.786,-0.621,0.729,0.023
27.796,-0.623,0.727,0.021
27.806,-0.623,0.723,0.025
27.816,-0.621,0.723,0.027
27.826,-0.615,0.713,0.031
27.836,-0.607,0.715,0.033
27.846,-0.609,0.727,0.033
27.856,-0.613,0.730,0.020
27.866,-0.615,0.725,0.004
27.876,-0.602,0.738,0.014
27.886,-0.611,0.752,0.021
27.896,-0.611,0.752,0.016
27.905,-0.633,0.750,0.025
27.915,-0.635,0.736,0.012
27.925,-0.615,0.736,0.018
27.935,-0.615,0.736,0.016
27.945,-0.623,0.729,0.016
27.955,-0.627,0.730,0.018
27.965,-0.617,0.729,0.016
27.975,-0.613,0.729,0.020
27.985,-0.611,0.730,0.016
27.995,-0.607,0.736,0.014
28.005,-0.609,0.732,0.020
28.015,-0.605,0.738,0.016
28.025,-0.598,0.738,0.012
28.034,-0.600,0.736,0.020
28.044,-0.607,0.736,0.014
28.054,-0.609,0.732,0.016
28.064,-0.609,0.734,0.020
28.074,-0.609,0.736,0.016
28.084,-0.611,0.740,0.016
28.094,-0.613,0.738,0.018
28.104,-0.617,0.736,0.016
28.114,-0.609,0.736,0.016
28.124,-0.613,0.746,0.020
28.134,-0.625,0.738,0.018
28.144,-0.621,0.736,0.020
28.154,-0.615,0.734,0.023
28.164,-0.615,0.744,0.018
28.173,-0.615,0.742,0.014
28.183,-0.611,0.736,0.012
28.193,-0.627,0.738,0.021
28.203,-0.631,0.748,0.023
28.213,-0.639,0.754,0.020
28.223,-0.627,0.750,0.023
28.233,-0.613,0.729,0.031
28.243,-0.592,0.721,0.023
28.253,-0.590,0.738,0.014
28.263,-0.586,0.723,0.029
28.273,-0.588,0.721,0.037
28.283,-0.584,0.727,0.027
28.293,-0.588,0.721,0.029
28.302,-0.586,0.727,0.018
28.312,-0.584,0.727,0.021
28.322,-0.586,0.717,0.021
28.332,-0.600,0.732,0.006
28.342,-0.613,0.738,0.002
28.352,-0.621,0.730,0.010
28.362,-0.627,0.721,0.006
28.372,-0.627,0.723,0.004
28.382,-0.607,0.729,0.004
28.392,-0.590,0.738,0.010
28.402,-0.576,0.740,0.008
28.412,-0.582,0.734,0.004
28.422,-0.592,0.725,-0.002
28.432,-0.596,0.717,-0.002
28.441,-0.605,0.707,-0.006
28.451,-0.613,0.705,-0.008
28.461,-0.625,0.705,-0.014
28.471,-0.633,0.703,-0.016
28.481,-0.641,0.701,-0.016
28.491,-0.652,0.701,-0.016
28.501,-0.656,0.697,-0.014
28.511,-0.660,0.709,-0.012
28.521,-0.674,0.695,-0.029
28.531,-0.660,0.680,-0.059
28.541,-0.635,0.688,-0.061
28.551,-0.596,0.705,-0.057
28.561,-0.637,0.719,-0.031
28.570,-0.674,0.717,-0.051
28.580,-0.666,0.703,-0.049
28.590,-0.646,0.699,-0.045
28.600,-0.658,0.699,-0.053
28.610,-0.658,0.701,-0.064
28.620,-0.656,0.691,-0.068
28.630,-0.664,0.697,-0.070
28.640,-0.668,0.691,-0.082
28.650,-0.658,0.699,-0.078
28.660,-0.660,0.703,-0.074
28.670,-0.658,0.703,-0.086
28.680,-0.658,0.709,-0.084
28.690,-0.650,0.703,-0.082
28.700,-0.650,0.703,-0.082
28.709,-0.652,0.701,-0.086
28.719,-0.643,0.701,-0.094
28.729,-0.633,0.697,-0.094
28.739,-0.652,0.689,-0.096
28.749,-0.670,0.686,-0.105
28.759,-0.658,0.691,-0.105
28.769,-0.658,0.697,-0.102
28.779,-0.654,0.693,-0.105
28.789,-0.664,0.701,-0.102
28.799,-0.668,0.693,-0.104
28.809,-0.658,0.695,-0.115
28.819,-0.662,0.711,-0.115
28.829,-0.684,0.709,-0.109
28.838,-0.697,0.699,-0.115
28.848,-0.701,0.686,-0.123
28.858,-0.693,0.676,-0.127
28.868,-0.684,0.691,-0.145
28.878,-0.676,0.693,-0.127
28.888,-0.688,0.676,-0.123
28.898,-0.682,0.650,-0.133
28.908,-0.662,0.643,-0.127
28.918,-0.674,0.645,-0.131
28.928,-0.674,0.672,-0.137
28.938,-0.672,0.682,-0.129
28.948,-0.670,0.689,-0.131
28.958,-0.688,0.693,-0.133
28.968,-0.674,0.686,-0.143
28.977,-0.654,0.674,-0.141
28.987,-0.600,0.709,-0.139
28.997,-0.557,0.748,-0.127
29.007,-0.516,0.754,-0.127
29.017,-0.508,0.748,-0.125
29.027,-0.498,0.750,-0.133
29.037,-0.488,0.740,-0.143
29.047,-0.480,0.742,-0.154
29.057,-0.484,0.748,-0.168
29.067,-0.484,0.734,-0.188
29.077,-0.477,0.725,-0.199
29.087,-0.473,0.727,-0.207
29.097,-0.459,0.729,-0.223
29.106,-0.465,0.730,-0.236
29.116,-0.498,0.713,-0.258
29.126,-0.537,0.701,-0.281
29.136,-0.543,0.688,-0.299
29.146,-0.518,0.652,-0.332
29.156,-0.559,0.680,-0.303
29.166,-0.596,0.703,-0.352
29.176,-0.615,0.703,-0.371
29.186,-0.637,0.676,-0.369
29.196,-0.664,0.672,-0.377
29.206,-0.656,0.680,-0.379
29.216,-0.654,0.680,-0.383
29.226,-0.668,0.658,-0.387
29.235,-0.688,0.635,-0.398
29.245,-0.711,0.611,-0.387
29.255,-0.729,0.613,-0.365
29.265,-0.736,0.631,-0.361
29.275,-0.732,0.619,-0.352
29.285,-0.736,0.607,-0.350
29.295,-0.723,0.602,-0.352
29.305,-0.721,0.604,-0.336
29.315,-0.732,0.613,-0.320
29.325,-0.727,0.646,-0.314
29.335,-0.699,0.658,-0.307
29.345,-0.689,0.641,-0.301
29.355,-0.699,0.641,-0.305
29.365,-0.689,0.654,-0.309
29.374,-0.688,0.645,-0.285
29.384,-0.684,0.633,-0.293
29.394,-0.648,0.633,-0.305
29.404,-0.633,0.625,-0.254
29.414,-0.650,0.664,-0.275
29.424,-0.648,0.662,-0.277
29.434,-0.643,0.670,-0.275
29.444,-0.633,0.660,-0.266
29.454,-0.637,0.678,-0.283
29.464,-0.646,0.672,-0.275
29.474,-0.621,0.660,-0.268
29.484,-0.635,0.672,-0.258
29.494,-0.635,0.680,-0.254
29.503,-0.619,0.684,-0.240
29.513,-0.605,0.680,-0.244
29.523,-0.604,0.678,-0.242
29.533,-0.607,0.680,-0.240
29.543,-0.611,0.691,-0.234
29.553,-0.605,0.688,-0.232
29.563,-0.604,0.684,-0.230
29.573,-0.605,0.689,-0.227
29.583,-0.604,0.678,-0.229
29.593,-0.580,0.689,-0.236
29.603,-0.582,0.695,-0.234
29.613,-0.588,0.691,-0.223
29.623,-0.582,0.695,-0.219
29.633,-0.568,0.701,-0.217
29.642,-0.562,0.691,-0.207
29.652,-0.580,0.688,-0.209
29.662,-0.584,0.689,-0.232
29.672,-0.555,0.730,-0.246
29.682,-0.557,0.717,-0.221
29.692,-0.600,0.705,-0.225
29.702,-0.609,0.707,-0.232
29.712,-0.590,0.705,-0.230
29.722,-0.574,0.705,-0.230
29.732,-0.572,0.721,-0.232
29.742,-0.574,0.717,-0.232
29.752,-0.574,0.721,-0.227
29.762,-0.584,0.723,-0.227
29.771,-0.578,0.725,-0.229
29.781,-0.568,0.715,-0.229
29.791,-0.574,0.711,-0.225
29.801,-0.572,0.723,-0.232
29.811,-0.566,0.723,-0.230
29.821,-0.562,0.705,-0.238
29.831,-0.549,0.705,-0.242
29.841,-0.555,0.719,-0.234
29.851,-0.557,0.717,-0.244
29.861,-0.547,0.721,-0.246
29.871,-0.553,0.723,-0.242
29.881,-0.562,0.727,-0.252
29.891,-0.568,0.736,-0.242
29.901,-0.592,0.746,-0.236
29.910,-0.625,0.744,-0.240
29.920,-0.604,0.721,-0.248
29.930,-0.570,0.713,-0.258
29.940,-0.561,0.730,-0.254
29.950,-0.580,0.740,-0.238
29.960,-0.607,0.727,-0.248
29.970,-0.582,0.713,-0.277
29.980,-0.533,0.705,-0.240
29.990,-0.541,0.660,-0.193
30.000,-0.557,0.707,-0.258
30.010,-0.557,0.711,-0.217
30.020,-0.557,0.711,-0.240
30.030,-0.568,0.732,-0.236
30.039,-0.562,0.715,-0.232
30.049,-0.568,0.699,-0.229
30.059,-0.564,0.691,-0.225
30.069,-0.564,0.699,-0.227
30.079,-0.549,0.691,-0.225
30.089,-0.553,0.693,-0.225
30.099,-0.551,0.697,-0.225
30.109,-0.547,0.703,-0.230
30.119,-0.553,0.711,-0.234
30.129,-0.559,0.709,-0.236
30.139,-0.562,0.727,-0.242
30.149,-0.566,0.734,-0.248
30.159,-0.566,0.738,-0.254
30.169,-0.574,0.734,-0.258
30.178,-0.580,0.727,-0.256
30.188,-0.584,0.729,-0.260
30.198,-0.592,0.725,-0.256
30.208,-0.602,0.717,-0.256
30.218,-0.590,0.709,-0.270
30.228,-0.564,0.686,-0.270
30.238,-0.596,0.734,-0.238
30.248,-0.598,0.742,-0.268
30.258,-0.625,0.709,-0.250
30.268,-0.623,0.719,-0.252
30.278,-0.598,0.732,-0.248
30.288,-0.568,0.727,-0.248
30.298,-0.568,0.715,-0.238
30.307,-0.564,0.691,-0.240
30.317,-0.551,0.699,-0.230
30.327,-0.553,0.723,-0.221
30.337,-0.559,0.717,-0.219
30.347,-0.531,0.709,-0.225
30.357,-0.520,0.711,-0.225
30.367,-0.527,0.711,-0.223
30.377,-0.527,0.721,-0.225
30.387,-0.539,0.719,-0.213
30.397,-0.559,0.723,-0.217
30.407,-0.555,0.721,-0.223
30.417,-0.553,0.721,-0.225
30.427,-0.564,0.725,-0.223
30.437,-0.570,0.721,-0.217
30.446,-0.576,0.725,-0.225
30.456,-0.562,0.740,-0.248
30.466,-0.557,0.738,-0.248
30.476,-0.566,0.738,-0.244
30.486,-0.607,0.744,-0.266
30.496,-0.615,0.717,-0.264
30.506,-0.584,0.713,-0.258
30.516,-0.578,0.693,-0.258
30.526,-0.600,0.729,-0.260
30.536,-0.605,0.715,-0.248
30.546,-0.605,0.721,-0.244
30.556,-0.605,0.715,-0.242
30.566,-0.600,0.713,-0.258
30.575,-0.602,0.717,-0.234
30.585,-0.584,0.699,-0.244
30.595,-0.576,0.709,-0.225
30.605,-0.572,0.717,-0.223
30.615,-0.564,0.723,-0.215
30.625,-0.551,0.723,-0.213
30.635,-0.531,0.713,-0.221
30.645,-0.518,0.711,-0.217
30.655,-0.514,0.719,-0.213
30.665,-0.520,0.717,-0.213
30.675,-0.516,0.721,-0.211
30.685,-0.520,0.719,-0.211
30.695,-0.523,0.717,-0.215
30.705,-0.537,0.727,-0.219
30.714,-0.541,0.730,-0.219
30.724,-0.547,0.725,-0.219
30.734,-0.553,0.730,-0.221
30.744,-0.555,0.736,-0.221
30.754,-0.553,0.738,-0.219
30.764,-0.557,0.727,-0.217
30.774,-0.555,0.732,-0.223
30.784,-0.543,0.734,-0.229
30.794,-0.549,0.730,-0.229
30.804,-0.547,0.744,-0.234
30.814,-0.533,0.762,-0.254
30.824,-0.529,0.740,-0.230
30.834,-0.566,0.738,-0.217
30.843,-0.598,0.742,-0.230
30.853,-0.576,0.738,-0.227
30.863,-0.549,0.711,-0.225
30.873,-0.553,0.703,-0.234
30.883,-0.568,0.719,-0.238
30.893,-0.562,0.715,-0.240
30.903,-0.559,0.727,-0.227
30.913,-0.570,0.727,-0.230
30.923,-0.561,0.729,-0.229
30.933,-0.549,0.719,-0.234
30.943,-0.531,0.723,-0.236
30.953,-0.535,0.727,-0.232
30.963,-0.543,0.725,-0.236
30.973,-0.547,0.723,-0.236
30.982,-0.541,0.730,-0.240
30.992,-0.547,0.719,-0.238
31.002,-0.561,0.723,-0.238
31.012,-0.562,0.732,-0.244
31.022,-0.566,0.736,-0.238
31.032,-0.566,0.729,-0.246
31.042,-0.570,0.734,-0.244
31.052,-0.557,0.750,-0.250
31.062,-0.557,0.756,-0.238
31.072,-0.564,0.762,-0.246
31.082,-0.570,0.754,-0.238
31.092,-0.566,0.758,-0.246
31.102,-0.580,0.740,-0.229
31.111,-0.580,0.730,-0.236
31.121,-0.551,0.730,-0.244
31.131,-0.525,0.744,-0.230
31.141,-0.531,0.713,-0.211
31.151,-0.533,0.723,-0.227
31.161,-0.531,0.721,-0.215
31.171,-0.518,0.713,-0.221
31.181,-0.512,0.727,-0.225
31.191,-0.514,0.715,-0.221
31.201,-0.514,0.711,-0.234
31.211,-0.523,0.723,-0.230
31.221,-0.541,0.721,-0.232
31.231,-0.557,0.709,-0.234
31.241,-0.572,0.719,-0.232
31.250,-0.574,0.727,-0.234
31.260,-0.568,0.725,-0.236
31.270,-0.572,0.732,-0.248
31.280,-0.572,0.736,-0.246
31.290,-0.570,0.740,-0.250
31.300,-0.572,0.736,-0.250
31.310,-0.570,0.746,-0.246
31.320,-0.568,0.750,-0.246
31.330,-0.561,0.744,-0.244
31.340,-0.559,0.740,-0.240
31.350,-0.562,0.740,-0.236
31.360,-0.559,0.729,-0.227
31.370,-0.543,0.713,-0.223
31.379,-0.539,0.711,-0.229
31.389,-0.541,0.707,-0.248
31.399,-0.521,0.723,-0.252
31.409,-0.510,0.756,-0.242
31.419,-0.553,0.730,-0.227
31.429,-0.584,0.713,-0.234
31.439,-0.574,0.699,-0.229
31.449,-0.568,0.699,-0.227
31.459,-0.568,0.707,-0.238
31.469,-0.570,0.711,-0.234
31.479,-0.586,0.715,-0.232
31.489,-0.596,0.723,-0.234
31.499,-0.609,0.719,-0.234
31.509,-0.619,0.705,-0.240
31.518,-0.619,0.693,-0.240
31.528,-0.621,0.695,-0.236
31.538,-0.639,0.684,-0.236
31.548,-0.635,0.680,-0.250
31.558,-0.627,0.674,-0.246
31.568,-0.633,0.674,-0.244
31.578,-0.631,0.697,-0.240
31.588,-0.629,0.717,-0.230
31.598,-0.613,0.744,-0.234
31.608,-0.596,0.740,-0.238
31.618,-0.596,0.729,-0.242
31.628,-0.611,0.721,-0.256
31.638,-0.631,0.701,-0.258
31.647,-0.641,0.686,-0.266
31.657,-0.654,0.680,-0.250
31.667,-0.660,0.678,-0.244
31.677,-0.619,0.709,-0.217
31.687,-0.600,0.752,-0.186
31.697,-0.607,0.758,-0.209
31.707,-0.623,0.758,-0.225
31.717,-0.604,0.740,-0.219
31.727,-0.592,0.711,-0.240
31.737,-0.592,0.680,-0.238
31.747,-0.609,0.645,-0.232
31.757,-0.625,0.652,-0.230
31.767,-0.611,0.674,-0.188
31.777,-0.576,0.727,-0.188
31.786,-0.547,0.752,-0.174
31.796,-0.545,0.746,-0.199
31.806,-0.562,0.717,-0.191
31.816,-0.570,0.699,-0.193
31.826,-0.584,0.674,-0.189
31.836,-0.609,0.646,-0.191
31.846,-0.625,0.643,-0.195
31.856,-0.621,0.680,-0.182
31.866,-0.607,0.713,-0.152
31.876,-0.594,0.727,-0.148
31.886,-0.600,0.736,-0.143
31.896,-0.600,0.729,-0.143
31.906,-0.602,0.719,-0.148
31.915,-0.602,0.713,-0.154
31.925,-0.602,0.703,-0.166
31.935,-0.600,0.703,-0.160
31.945,-0.604,0.699,-0.164
31.955,-0.605,0.705,-0.148
31.965,-0.613,0.717,-0.135
31.975,-0.613,0.713,-0.123
31.985,-0.625,0.713,-0.109
31.995,-0.629,0.691,-0.133
32.005,-0.639,0.680,-0.160
32.015,-0.602,0.693,-0.180
32.025,-0.576,0.703,-0.139
32.035,-0.635,0.715,-0.119
32.045,-0.662,0.736,-0.135
32.054,-0.635,0.756,-0.127
32.064,-0.602,0.744,-0.113
32.074,-0.609,0.732,-0.119
32.084,-0.617,0.746,-0.135
32.094,-0.623,0.725,-0.119
32.104,-0.635,0.713,-0.119
32.114,-0.631,0.707,-0.115
32.124,-0.645,0.701,-0.102
32.134,-0.645,0.715,-0.119
32.144,-0.631,0.699,-0.102
32.154,-0.619,0.703,-0.096
32.164,-0.615,0.703,-0.092
32.174,-0.619,0.713,-0.090
32.183,-0.611,0.723,-0.090
32.193,-0.615,0.727,-0.092
32.203,-0.621,0.715,-0.094
32.213,-0.619,0.705,-0.096
32.223,-0.617,0.703,-0.090
32.233,-0.623,0.693,-0.082
32.243,-0.619,0.711,-0.102
32.253,-0.605,0.717,-0.088
32.263,-0.602,0.719,-0.090
32.273,-0.607,0.713,-0.090
32.283,-0.605,0.709,-0.086
32.293,-0.611,0.713,-0.084
32.303,-0.607,0.719,-0.090
32.313,-0.600,0.719,-0.084
32.322,-0.605,0.715,-0.090
32.332,-0.609,0.707,-0.086
32.342,-0.607,0.707,-0.090
32.352,-0.602,0.721,-0.084
32.362,-0.621,0.729,-0.076
32.372,-0.633,0.725,-0.084
32.382,-0.613,0.730,-0.100
32.392,-0.617,0.738,-0.088
32.402,-0.623,0.729,-0.086
32.412,-0.623,0.744,-0.084
32.422,-0.629,0.744,-0.086
32.432,-0.623,0.729,-0.080
32.442,-0.645,0.711,-0.086
32.451,-0.646,0.705,-0.098
32.461,-0.637,0.705,-0.078
32.471,-0.637,0.715,-0.102
32.481,-0.615,0.730,-0.088
32.491,-0.615,0.738,-0.088
32.501,-0.617,0.719,-0.086
32.511,-0.611,0.703,-0.074
32.521,-0.637,0.711,-0.086
32.531,-0.643,0.717,-0.094
32.541,-0.625,0.707,-0.088
32.551,-0.625,0.701,-0.096
32.561,-0.625,0.705,-0.102
32.571,-0.641,0.721,-0.090
32.580,-0.633,0.711,-0.098
32.590,-0.635,0.701,-0.092
32.600,-0.641,0.703,-0.094
32.610,-0.637,0.703,-0.096
32.620,-0.623,0.699,-0.096
32.630,-0.619,0.703,-0.096
32.640,-0.619,0.709,-0.092
32.650,-0.609,0.699,-0.092
32.660,-0.609,0.703,-0.094
32.670,-0.611,0.699,-0.104
32.680,-0.615,0.695,-0.102
32.690,-0.619,0.691,-0.098
32.700,-0.623,0.703,-0.098
32.710,-0.627,0.717,-0.094
32.719,-0.629,0.719,-0.096
32.729,-0.633,0.721,-0.098
32.739,-0.637,0.715,-0.096
32.749,-0.639,0.705,-0.100
32.759,-0.643,0.705,-0.102
32.769,-0.654,0.709,-0.098
32.779,-0.660,0.709,-0.100
32.789,-0.656,0.711,-0.096
32.799,-0.666,0.715,-0.088
32.809,-0.670,0.707,-0.105
32.819,-0.656,0.719,-0.105
32.829,-0.645,0.711,-0.100
32.839,-0.639,0.715,-0.117
32.848,-0.619,0.730,-0.115
32.858,-0.615,0.723,-0.098
32.868,-0.605,0.715,-0.115
32.878,-0.607,0.721,-0.121
32.888,-0.594,0.736,-0.113
32.898,-0.596,0.740,-0.111
32.908,-0.598,0.730,-0.100
32.918,-0.604,0.725,-0.100
32.928,-0.598,0.709,-0.104
32.938,-0.588,0.713,-0.084
32.948,-0.600,0.717,-0.088
32.958,-0.617,0.713,-0.090
32.968,-0.611,0.699,-0.100
32.978,-0.596,0.703,-0.092
32.987,-0.609,0.707,-0.094
32.997,-0.604,0.719,-0.096
33.007,-0.607,0.723,-0.092
33.017,-0.617,0.721,-0.094
33.027,-0.615,0.727,-0.100
33.037,-0.619,0.732,-0.098
33.047,-0.621,0.725,-0.096
33.057,-0.639,0.719,-0.104
33.067,-0.639,0.715,-0.104
33.077,-0.643,0.719,-0.098
33.087,-0.652,0.729,-0.098
33.097,-0.648,0.734,-0.094
33.107,-0.650,0.736,-0.100
33.116,-0.645,0.723,-0.096
33.126,-0.635,0.729,-0.102
33.136,-0.623,0.732,-0.104
33.146,-0.629,0.730,-0.096
33.156,-0.629,0.736,-0.109
33.166,-0.637,0.730,-0.090
33.176,-0.646,0.730,-0.098
33.186,-0.641,0.711,-0.104
33.196,-0.621,0.703,-0.102
33.206,-0.602,0.721,-0.104
33.216,-0.582,0.721,-0.107
33.226,-0.590,0.729,-0.098
33.236,-0.604,0.713,-0.082
33.246,-0.611,0.717,-0.104
33.255,-0.594,0.701,-0.100
33.265,-0.584,0.689,-0.088
33.275,-0.572,0.691,-0.113
33.285,-0.570,0.709,-0.107
33.295,-0.588,0.715,-0.092
33.305,-0.604,0.713,-0.105
33.315,-0.611,0.711,-0.104
33.325,-0.617,0.703,-0.109
33.335,-0.625,0.709,-0.117
33.345,-0.631,0.713,-0.105
33.355,-0.641,0.715,-0.111
33.365,-0.648,0.715,-0.105
33.375,-0.646,0.721,-0.111
33.384,-0.654,0.729,-0.111
33.394,-0.656,0.721,-0.111
33.404,-0.656,0.723,-0.107
33.414,-0.658,0.721,-0.111
33.424,-0.658,0.723,-0.111
33.434,-0.654,0.719,-0.115
33.444,-0.648,0.715,-0.109
33.454,-0.645,0.719,-0.107
33.464,-0.637,0.719,-0.107
33.474,-0.627,0.717,-0.107
33.484,-0.621,0.721,-0.104
33.494,-0.615,0.707,-0.105
33.504,-0.611,0.693,-0.107
33.514,-0.619,0.701,-0.113
33.523,-0.619,0.713,-0.109
33.533,-0.607,0.721,-0.111
33.543,-0.598,0.729,-0.111
33.553,-0.592,0.727,-0.109
33.563,-0.590,0.729,-0.107
33.573,-0.582,0.725,-0.109
33.583,-0.584,0.719,-0.109
33.593,-0.584,0.723,-0.111
33.603,-0.584,0.729,-0.109
33.613,-0.582,0.719,-0.100
33.623,-0.582,0.719,-0.107
33.633,-0.584,0.715,-0.096
33.643,-0.594,0.725,-0.105
33.652,-0.602,0.721,-0.104
33.662,-0.578,0.725,-0.107
33.672,-0.584,0.729,-0.109
33.682,-0.607,0.729,-0.105
33.692,-0.625,0.725,-0.105
33.702,-0.621,0.727,-0.104
33.712,-0.621,0.727,-0.104
33.722,-0.631,0.730,-0.111
33.732,-0.629,0.730,-0.107
33.742,-0.629,0.727,-0.115
33.752,-0.629,0.725,-0.117
33.762,-0.617,0.732,-0.119
33.772,-0.623,0.740,-0.117
33.782,-0.635,0.734,-0.113
33.791,-0.615,0.738,-0.113
33.801,-0.605,0.748,-0.113
33.811,-0.605,0.734,-0.111
33.821,-0.605,0.721,-0.098
33.831,-0.605,0.721,-0.111
33.841,-0.596,0.725,-0.117
33.851,-0.588,0.717,-0.105
33.861,-0.586,0.715,-0.111
33.871,-0.576,0.721,-0.113
33.881,-0.576,0.730,-0.109
33.891,-0.580,0.732,-0.115
33.901,-0.586,0.723,-0.123
33.911,-0.582,0.732,-0.109
33.920,-0.586,0.717,-0.107
33.930,-0.582,0.725,-0.115
33.940,-0.586,0.736,-0.113
33.950,-0.592,0.740,-0.111
33.960,-0.609,0.746,-0.113
33.970,-0.629,0.729,-0.105
33.980,-0.643,0.709,-0.104
33.990,-0.652,0.717,-0.111
34.000,-0.648,0.725,-0.105
34.010,-0.652,0.723,-0.098
34.020,-0.627,0.721,-0.133
34.030,-0.600,0.725,-0.129
34.040,-0.602,0.725,-0.094
34.050,-0.625,0.734,-0.109
34.059,-0.629,0.727,-0.104
34.069,-0.602,0.730,-0.109
34.079,-0.604,0.742,-0.109
34.089,-0.598,0.725,-0.104
34.099,-0.627,0.742,-0.109
34.109,-0.637,0.727,-0.119
34.119,-0.635,0.713,-0.109
34.129,-0.623,0.691,-0.115
34.139,-0.633,0.705,-0.109
34.149,-0.627,0.709,-0.109
34.159,-0.605,0.713,-0.102
34.169,-0.605,0.723,-0.104
34.179,-0.605,0.729,-0.104
34.188,-0.598,0.729,-0.104
34.198,-0.586,0.730,-0.107
34.208,-0.580,0.732,-0.104
34.218,-0.580,0.734,-0.105
34.228,-0.576,0.730,-0.107
34.238,-0.570,0.723,-0.107
34.248,-0.576,0.721,-0.107
34.258,-0.578,0.730,-0.107
34.268,-0.580,0.730,-0.105
34.278,-0.578,0.732,-0.104
34.288,-0.580,0.729,-0.104
34.298,-0.582,0.723,-0.102
34.308,-0.580,0.711,-0.115
34.318,-0.584,0.725,-0.104
34.327,-0.592,0.709,-0.113
34.337,-0.631,0.732,-0.100
34.347,-0.605,0.732,-0.121
34.357,-0.611,0.719,-0.102
34.367,-0.639,0.730,-0.111
34.377,-0.643,0.738,-0.109
34.387,-0.629,0.740,-0.111
34.397,-0.623,0.736,-0.113
34.407,-0.631,0.723,-0.111
34.417,-0.625,0.723,-0.115
34.427,-0.621,0.729,-0.115
34.437,-0.619,0.727,-0.109
34.447,-0.615,0.730,-0.111
34.456,-0.607,0.725,-0.113
34.466,-0.609,0.721,-0.111
34.476,-0.607,0.740,-0.109
34.486,-0.607,0.738,-0.105
34.496,-0.611,0.736,-0.107
34.506,-0.611,0.736,-0.109
34.516,-0.619,0.729,-0.105
34.526,-0.658,0.736,-0.109
34.536,-0.631,0.727,-0.115
34.546,-0.602,0.734,-0.127
34.556,-0.584,0.727,-0.104
34.566,-0.588,0.703,-0.098
34.576,-0.602,0.699,-0.102
34.586,-0.621,0.707,-0.105
34.595,-0.615,0.721,-0.111
34.605,-0.604,0.715,-0.111
34.615,-0.607,0.723,-0.109
34.625,-0.611,0.721,-0.123
34.635,-0.607,0.734,-0.117
34.645,-0.621,0.732,-0.123
34.655,-0.637,0.713,-0.119
34.665,-0.639,0.715,-0.117
34.675,-0.639,0.723,-0.111
34.685,-0.625,0.725,-0.117
34.695,-0.617,0.727,-0.111
34.705,-0.615,0.725,-0.113
34.715,-0.615,0.721,-0.109
34.724,-0.605,0.723,-0.111
34.734,-0.604,0.721,-0.115
34.744,-0.604,0.719,-0.115
34.754,-0.594,0.727,-0.113
34.764,-0.584,0.730,-0.107
34.774,-0.586,0.732,-0.111
34.784,-0.582,0.732,-0.105
34.794,-0.582,0.727,-0.102
34.804,-0.582,0.719,-0.098
34.814,-0.584,0.725,-0.096
34.824,-0.588,0.723,-0.096
34.834,-0.586,0.725,-0.113
34.844,-0.582,0.736,-0.121
34.854,-0.572,0.734,-0.123
34.863,-0.561,0.729,-0.117
34.873,-0.555,0.752,-0.121
34.883,-0.578,0.736,-0.111
34.893,-0.605,0.744,-0.115
34.903,-0.607,0.746,-0.115
34.913,-0.604,0.746,-0.105
34.923,-0.600,0.736,-0.115
34.933,-0.582,0.738,-0.131
34.943,-0.588,0.734,-0.111
34.953,-0.600,0.729,-0.113
34.963,-0.602,0.732,-0.111
34.973,-0.596,0.734,-0.113
34.983,-0.588,0.738,-0.109
34.992,-0.590,0.734,-0.111
35.002,-0.588,0.738,-0.113
35.012,-0.594,0.736,-0.104
35.022,-0.600,0.729,-0.107
35.032,-0.605,0.732,-0.111
35.042,-0.607,0.725,-0.111
35.052,-0.611,0.730,-0.109
35.062,-0.613,0.734,-0.102
35.072,-0.617,0.734,-0.104
35.082,-0.607,0.730,-0.111
35.092,-0.605,0.727,-0.109
35.102,-0.627,0.736,-0.105
35.112,-0.654,0.744,-0.100
35.122,-0.660,0.727,-0.107
35.131,-0.650,0.727,-0.121
35.141,-0.621,0.742,-0.123
35.151,-0.619,0.742,-0.111
35.161,-0.637,0.727,-0.113
35.171,-0.625,0.711,-0.109
35.181,-0.600,0.699,-0.104
35.191,-0.604,0.711,-0.121
35.201,-0.605,0.713,-0.109
35.211,-0.600,0.715,-0.111
35.221,-0.598,0.719,-0.100
35.231,-0.602,0.732,-0.123
35.241,-0.602,0.736,-0.121
35.251,-0.609,0.711,-0.117
35.260,-0.617,0.705,-0.111
35.270,-0.623,0.711,-0.113
35.280,-0.613,0.713,-0.111
35.290,-0.605,0.713,-0.107
35.300,-0.611,0.725,-0.109
35.310,-0.607,0.727,-0.107
35.320,-0.602,0.725,-0.105
35.330,-0.604,0.723,-0.104
35.340,-0.604,0.721,-0.107
35.350,-0.604,0.721,-0.107
35.360,-0.600,0.727,-0.109
35.370,-0.602,0.729,-0.107
35.380,-0.604,0.730,-0.109
35.390,-0.604,0.725,-0.107
35.399,-0.600,0.721,-0.104
35.409,-0.607,0.719,-0.105
35.419,-0.604,0.723,-0.107
35.429,-0.592,0.711,-0.117
35.439,-0.561,0.699,-0.109
35.449,-0.607,0.734,-0.092
35.459,-0.625,0.742,-0.105
35.469,-0.623,0.740,-0.086
35.479,-0.613,0.736,-0.104
35.489,-0.629,0.705,-0.100
35.499,-0.625,0.695,-0.109
35.509,-0.615,0.707,-0.109
35.519,-0.604,0.725,-0.113
35.528,-0.602,0.738,-0.107
35.538,-0.605,0.734,-0.109
35.548,-0.607,0.732,-0.109
35.558,-0.594,0.748,-0.117
35.568,-0.580,0.750,-0.117
35.578,-0.590,0.756,-0.100
35.588,-0.609,0.744,-0.104
35.598,-0.605,0.730,-0.107
35.608,-0.596,0.732,-0.098
35.618,-0.613,0.732,-0.102
35.628,-0.629,0.707,-0.104
35.638,-0.639,0.705,-0.098
35.648,-0.639,0.730,-0.104
35.658,-0.635,0.729,-0.102
35.667,-0.625,0.734,-0.104
35.677,-0.621,0.730,-0.115
35.687,-0.604,0.727,-0.115
35.697,-0.605,0.715,-0.086
35.707,-0.602,0.711,-0.102
35.717,-0.590,0.709,-0.113
35.727,-0.605,0.711,-0.096
35.737,-0.598,0.723,-0.105
35.747,-0.604,0.725,-0.102
35.757,-0.609,0.717,-0.109
35.767,-0.611,0.723,-0.117
35.777,-0.621,0.727,-0.111
35.787,-0.625,0.705,-0.109
35.796,-0.627,0.711,-0.115
35.806,-0.629,0.705,-0.109
35.816,-0.629,0.709,-0.109
35.826,-0.625,0.713,-0.111
35.836,-0.621,0.711,-0.109
35.846,-0.617,0.719,-0.105
35.856,-0.615,0.721,-0.105
35.866,-0.613,0.719,-0.104
35.876,-0.615,0.725,-0.107
35.886,-0.619,0.723,-0.111
35.896,-0.615,0.723,-0.107
35.906,-0.615,0.730,-0.111
35.916,-0.617,0.729,-0.107
35.926,-0.621,0.729,-0.105
35.935,-0.617,0.723,-0.105
35.945,-0.617,0.719,-0.105
35.955,-0.613,0.719,-0.104
35.965,-0.615,0.707,-0.100
35.975,-0.613,0.711,-0.098
35.985,-0.615,0.715,-0.102
35.995,-0.613,0.719,-0.105
36.005,-0.627,0.719,-0.105
36.015,-0.621,0.695,-0.123
36.025,-0.598,0.709,-0.123
36.035,-0.566,0.740,-0.117
36.045,-0.613,0.736,-0.100
36.055,-0.645,0.734,-0.111
36.064,-0.631,0.730,-0.115
36.074,-0.611,0.729,-0.105
36.084,-0.615,0.717,-0.111
36.094,-0.607,0.721,-0.119
36.104,-0.613,0.715,-0.109
36.114,-0.621,0.713,-0.111
36.124,-0.623,0.719,-0.107
36.134,-0.615,0.729,-0.100
36.144,-0.613,0.725,-0.104
36.154,-0.609,0.715,-0.107
36.164,-0.609,0.719,-0.107
36.174,-0.609,0.723,-0.111
36.184,-0.609,0.730,-0.111
36.193,-0.607,0.734,-0.107
36.203,-0.613,0.734,-0.105
36.213,-0.619,0.736,-0.104
36.223,-0.615,0.725,-0.105
36.233,-0.617,0.723,-0.104
36.243,-0.613,0.725,-0.105
36.253,-0.605,0.719,-0.111
36.263,-0.600,0.725,-0.109
36.273,-0.605,0.723,-0.111
36.283,-0.607,0.729,-0.105
36.293,-0.615,0.742,-0.104
36.303,-0.625,0.744,-0.107
36.313,-0.623,0.729,-0.107
36.323,-0.627,0.721,-0.111
36.332,-0.629,0.717,-0.117
36.342,-0.629,0.725,-0.113
36.352,-0.627,0.734,-0.105
36.362,-0.633,0.709,-0.098
36.372,-0.631,0.695,-0.104
36.382,-0.607,0.693,-0.111
36.392,-0.580,0.693,-0.098
36.402,-0.598,0.713,-0.113
36.412,-0.611,0.725,-0.107
36.422,-0.615,0.717,-0.105
36.432,-0.611,0.721,-0.109
36.442,-0.619,0.725,-0.100
36.452,-0.627,0.725,-0.115
36.461,-0.621,0.713,-0.117
36.471,-0.623,0.711,-0.113
36.481,-0.627,0.715,-0.111
36.491,-0.627,0.717,-0.115
36.501,-0.617,0.717,-0.115
36.511,-0.615,0.719,-0.113
36.521,-0.613,0.721,-0.111
36.531,-0.607,0.717,-0.109
36.541,-0.602,0.715,-0.109
36.551,-0.607,0.713,-0.105
36.561,-0.602,0.709,-0.105
36.571,-0.586,0.699,-0.119
36.581,-0.617,0.697,-0.104
36.591,-0.600,0.719,-0.125
36.600,-0.602,0.734,-0.105
36.610,-0.629,0.729,-0.105
36.620,-0.645,0.727,-0.109
36.630,-0.639,0.719,-0.113
36.640,-0.623,0.711,-0.115
36.650,-0.617,0.717,-0.111
36.660,-0.617,0.732,-0.107
36.670,-0.621,0.734,-0.109
36.680,-0.617,0.719,-0.109
36.690,-0.619,0.723,-0.109
36.700,-0.619,0.723,-0.109
36.710,-0.615,0.727,-0.113
36.720,-0.611,0.725,-0.105
36.729,-0.611,0.725,-0.105
36.739,-0.613,0.730,-0.105
36.749,-0.611,0.723,-0.109
36.759,-0.617,0.723,-0.102
36.769,-0.623,0.721,-0.098
36.779,-0.629,0.723,-0.102
36.789,-0.629,0.730,-0.104
36.799,-0.629,0.725,-0.104
36.809,-0.633,0.725,-0.109
36.819,-0.625,0.727,-0.107
36.829,-0.619,0.742,-0.104
36.839,-0.623,0.723,-0.096
36.849,-0.613,0.703,-0.119
36.859,-0.600,0.695,-0.102
36.868,-0.596,0.703,-0.100
36.878,-0.602,0.715,-0.104
36.888,-0.611,0.719,-0.102
36.898,-0.607,0.715,-0.100
36.908,-0.607,0.713,-0.102
36.918,-0.617,0.713,-0.102
36.928,-0.619,0.715,-0.104
36.938,-0.615,0.717,-0.102
36.948,-0.619,0.719,-0.104
36.958,-0.625,0.725,-0.098
36.968,-0.627,0.721,-0.109
36.978,-0.607,0.715,-0.117
36.988,-0.596,0.729,-0.115
36.997,-0.594,0.723,-0.115
37.007,-0.602,0.730,-0.115
37.017,-0.604,0.719,-0.113
37.027,-0.609,0.727,-0.115
37.037,-0.613,0.723,-0.111
37.047,-0.617,0.727,-0.111
37.057,-0.619,0.725,-0.109
37.067,-0.615,0.729,-0.113
37.077,-0.607,0.725,-0.111
37.087,-0.611,0.729,-0.105
37.097,-0.619,0.727,-0.111
37.107,-0.617,0.729,-0.107
37.117,-0.609,0.723,-0.109
37.127,-0.604,0.723,-0.111
37.136,-0.604,0.730,-0.107
37.146,-0.602,0.730,-0.104
37.156,-0.604,0.740,-0.100
37.166,-0.605,0.734,-0.102
37.176,-0.617,0.732,-0.100
37.186,-0.615,0.730,-0.102
37.196,-0.607,0.734,-0.104
37.206,-0.605,0.738,-0.104
37.216,-0.613,0.723,-0.102
37.226,-0.609,0.709,-0.113
37.236,-0.617,0.717,-0.105
37.246,-0.621,0.719,-0.107
37.256,-0.621,0.719,-0.109
37.265,-0.621,0.725,-0.100
37.275,-0.633,0.725,-0.104
37.285,-0.629,0.715,-0.105
37.295,-0.617,0.715,-0.104
37.305,-0.623,0.719,-0.107
37.315,-0.627,0.721,-0.109
37.325,-0.623,0.717,-0.104
37.335,-0.617,0.719,-0.111
37.345,-0.613,0.711,-0.107
37.355,-0.609,0.717,-0.107
37.365,-0.613,0.715,-0.104
37.375,-0.617,0.721,-0.105
37.385,-0.613,0.717,-0.107
37.395,-0.615,0.711,-0.111
37.404,-0.611,0.713,-0.105
37.414,-0.617,0.709,-0.107
37.424,-0.619,0.717,-0.104
37.434,-0.615,0.711,-0.107
37.444,-0.609,0.711,-0.107
37.454,-0.604,0.715,-0.104
37.464,-0.609,0.719,-0.105
37.474,-0.615,0.727,-0.107
37.484,-0.611,0.730,-0.107
37.494,-0.609,0.736,-0.105
37.504,-0.605,0.730,-0.111
37.514,-0.613,0.727,-0.105
37.524,-0.609,0.730,-0.111
37.533,-0.598,0.732,-0.111
37.543,-0.604,0.730,-0.107
37.553,-0.607,0.729,-0.111
37.563,-0.609,0.725,-0.109
37.573,-0.611,0.725,-0.111
37.583,-0.613,0.725,-0.109
37.593,-0.613,0.730,-0.105
37.603,-0.615,0.727,-0.107
37.613,-0.607,0.729,-0.109
37.623,-0.602,0.730,-0.111
37.633,-0.600,0.727,-0.115
37.643,-0.600,0.727,-0.115
37.653,-0.598,0.730,-0.109
37.663,-0.604,0.729,-0.111
37.672,-0.605,0.725,-0.113
37.682,-0.611,0.729,-0.111
37.692,-0.609,0.730,-0.113
37.702,-0.621,0.730,-0.109
37.712,-0.615,0.727,-0.113
37.722,-0.613,0.727,-0.113
37.732,-0.621,0.730,-0.111
37.742,-0.623,0.729,-0.104
37.752,-0.609,0.732,-0.105
37.762,-0.613,0.721,-0.105
37.772,-0.617,0.709,-0.109
37.782,-0.615,0.715,-0.109
37.792,-0.607,0.725,-0.107
37.801,-0.600,0.734,-0.107
37.811,-0.592,0.734,-0.105
37.821,-0.600,0.732,-0.105
37.831,-0.604,0.727,-0.105
37.841,-0.604,0.723,-0.105
37.851,-0.604,0.721,-0.111
37.861,-0.607,0.723,-0.113
37.871,-0.611,0.725,-0.111
37.881,-0.623,0.727,-0.105
37.891,-0.617,0.725,-0.109
37.901,-0.613,0.729,-0.109
37.911,-0.611,0.734,-0.107
37.921,-0.617,0.730,-0.107
37.931,-0.609,0.729,-0.107
37.940,-0.611,0.723,-0.109
37.950,-0.598,0.725,-0.109
37.960,-0.602,0.727,-0.107
37.970,-0.596,0.736,-0.105
37.980,-0.600,0.736,-0.102
37.990,-0.613,0.729,-0.100
38.000,-0.621,0.719,-0.105
38.010,-0.619,0.711,-0.107
38.020,-0.598,0.713,-0.111
38.030,-0.594,0.717,-0.109
38.040,-0.611,0.723,-0.105
38.050,-0.619,0.727,-0.105
38.060,-0.600,0.734,-0.113
38.069,-0.600,0.727,-0.113
38.079,-0.613,0.725,-0.109
38.089,-0.617,0.727,-0.113
38.099,-0.611,0.719,-0.111
38.109,-0.615,0.717,-0.115
38.119,-0.607,0.725,-0.117
38.129,-0.602,0.725,-0.111
38.139,-0.607,0.727,-0.109
38.149,-0.607,0.734,-0.111
38.159,-0.611,0.732,-0.107
38.169,-0.602,0.732,-0.109
38.179,-0.607,0.725,-0.109
38.189,-0.604,0.723,-0.104
38.199,-0.602,0.723,-0.105
38.208,-0.598,0.727,-0.107
38.218,-0.598,0.730,-0.107
38.228,-0.605,0.732,-0.111
38.238,-0.609,0.738,-0.109
38.248,-0.615,0.740,-0.107
38.258,-0.625,0.740,-0.107
38.268,-0.637,0.734,-0.104
38.278,-0.639,0.729,-0.107
38.288,-0.625,0.713,-0.105
38.298,-0.623,0.721,-0.109
38.308,-0.613,0.723,-0.102
38.318,-0.615,0.736,-0.102
38.328,-0.613,0.727,-0.104
38.337,-0.604,0.705,-0.107
38.347,-0.605,0.691,-0.098
38.357,-0.621,0.705,-0.102
38.367,-0.613,0.711,-0.102
38.377,-0.611,0.721,-0.104
38.387,-0.615,0.723,-0.104
38.397,-0.615,0.721,-0.100
38.407,-0.623,0.721,-0.094
38.417,-0.621,0.721,-0.105
38.427,-0.619,0.721,-0.105
38.437,-0.615,0.721,-0.107
38.447,-0.609,0.719,-0.109
38.457,-0.609,0.727,-0.109
38.467,-0.613,0.723,-0.104
38.476,-0.613,0.721,-0.107
38.486,-0.611,0.725,-0.107
38.496,-0.611,0.721,-0.109
38.506,-0.607,0.717,-0.104
38.516,-0.613,0.713,-0.104
38.526,-0.617,0.721,-0.107
38.536,-0.611,0.717,-0.104
38.546,-0.596,0.729,-0.105
38.556,-0.598,0.730,-0.111
38.566,-0.602,0.725,-0.107
38.576,-0.605,0.727,-0.105
38.586,-0.600,0.727,-0.109
38.596,-0.600,0.734,-0.107
38.605,-0.607,0.736,-0.105
38.615,-0.613,0.730,-0.109
38.625,-0.611,0.732,-0.111
38.635,-0.607,0.732,-0.113
38.645,-0.621,0.730,-0.111
38.655,-0.627,0.730,-0.109
38.665,-0.619,0.730,-0.109
38.675,-0.617,0.727,-0.111
38.685,-0.617,0.717,-0.111
38.695,-0.619,0.723,-0.111
38.705,-0.625,0.725,-0.109
38.715,-0.625,0.719,-0.109
38.725,-0.613,0.729,-0.111
38.735,-0.609,0.727,-0.107
38.744,-0.621,0.719,-0.104
38.754,-0.625,0.723,-0.109
38.764,-0.619,0.715,-0.104
38.774,-0.615,0.711,-0.104
38.784,-0.609,0.705,-0.111
38.794,-0.607,0.711,-0.109
38.804,-0.605,0.715,-0.107
38.814,-0.609,0.727,-0.111
38.824,-0.611,0.727,-0.111
38.834,-0.615,0.734,-0.107
38.844,-0.623,0.727,-0.109
38.854,-0.623,0.725,-0.105
38.864,-0.623,0.717,-0.107
38.873,-0.623,0.711,-0.102
38.883,-0.625,0.715,-0.100
38.893,-0.621,0.729,-0.102
38.903,-0.611,0.713,-0.100
38.913,-0.609,0.709,-0.105
38.923,-0.613,0.715,-0.105
38.933,-0.619,0.725,-0.105
38.943,-0.619,0.729,-0.105
38.953,-0.613,0.727,-0.107
38.963,-0.605,0.727,-0.104
38.973,-0.613,0.723,-0.100
38.983,-0.617,0.717,-0.104
38.993,-0.617,0.713,-0.109
39.003,-0.615,0.709,-0.113
39.012,-0.613,0.717,-0.113
39.022,-0.615,0.713,-0.105
39.032,-0.631,0.711,-0.107
39.042,-0.621,0.725,-0.109
39.052,-0.605,0.723,-0.105
39.062,-0.613,0.723,-0.105
39.072,-0.615,0.725,-0.109
39.082,-0.605,0.727,-0.111
39.092,-0.611,0.727,-0.107
39.102,-0.617,0.729,-0.104
39.112,-0.609,0.725,-0.105
39.122,-0.607,0.725,-0.105
39.132,-0.604,0.725,-0.107
39.141,-0.604,0.729,-0.105
39.151,-0.613,0.725,-0.105
39.161,-0.613,0.730,-0.105
39.171,-0.609,0.734,-0.107
39.181,-0.613,0.732,-0.104
39.191,-0.617,0.729,-0.107
39.201,-0.619,0.729,-0.107
39.211,-0.615,0.738,-0.105
39.221,-0.619,0.729,-0.102
39.231,-0.625,0.730,-0.109
39.241,-0.619,0.719,-0.100
39.251,-0.619,0.711,-0.096
39.261,-0.621,0.717,-0.107
39.271,-0.621,0.719,-0.094
39.280,-0.613,0.721,-0.102
39.290,-0.613,0.717,-0.096
39.300,-0.609,0.719,-0.100
39.310,-0.598,0.719,-0.102
39.320,-0.592,0.711,-0.102
39.330,-0.604,0.711,-0.104
39.340,-0.600,0.717,-0.105
39.350,-0.598,0.725,-0.102
39.360,-0.607,0.725,-0.104
39.370,-0.613,0.727,-0.102
39.380,-0.615,0.725,-0.104
39.390,-0.623,0.729,-0.100
39.400,-0.623,0.723,-0.104
39.409,-0.619,0.725,-0.107
39.419,-0.619,0.729,-0.105
39.429,-0.619,0.721,-0.105
39.439,-0.617,0.725,-0.098
39.449,-0.611,0.729,-0.100
39.459,-0.604,0.727,-0.104
39.469,-0.596,0.715,-0.105
39.479,-0.598,0.713,-0.105
39.489,-0.607,0.721,-0.104
39.499,-0.613,0.721,-0.104
39.509,-0.609,0.721,-0.102
39.519,-0.611,0.721,-0.105
39.529,-0.609,0.727,-0.102
39.538,-0.615,0.723,-0.098
39.548,-0.629,0.723,-0.098
39.558,-0.627,0.727,-0.105
39.568,-0.615,0.719,-0.105
39.578,-0.619,0.713,-0.105
39.588,-0.615,0.717,-0.111
39.598,-0.613,0.721,-0.105
39.608,-0.617,0.729,-0.105
39.618,-0.619,0.727,-0.104
39.628,-0.607,0.729,-0.107
39.638,-0.604,0.721,-0.107
39.648,-0.604,0.725,-0.105
39.658,-0.615,0.727,-0.109
39.668,-0.609,0.723,-0.105
39.677,-0.605,0.730,-0.105
39.687,-0.605,0.729,-0.104
39.697,-0.607,0.725,-0.102
39.707,-0.615,0.717,-0.104
39.717,-0.621,0.725,-0.107
39.727,-0.609,0.725,-0.104
39.737,-0.607,0.729,-0.107
39.747,-0.613,0.729,-0.107
39.757,-0.615,0.732,-0.107
39.767,-0.617,0.732,-0.107
39.777,-0.617,0.730,-0.109
39.787,-0.625,0.727,-0.100
39.797,-0.617,0.729,-0.107
39.806,-0.617,0.725,-0.098
39.816,-0.619,0.717,-0.107
39.826,-0.617,0.725,-0.105
39.836,-0.619,0.727,-0.102
39.846,-0.615,0.715,-0.100
39.856,-0.602,0.713,-0.107
39.866,-0.600,0.715,-0.104
39.876,-0.602,0.719,-0.100
39.886,-0.602,0.719,-0.104
39.896,-0.602,0.717,-0.102
39.906,-0.611,0.717,-0.102
39.916,-0.609,0.719,-0.105
39.926,-0.615,0.723,-0.102
39.936,-0.617,0.727,-0.107
39.945,-0.613,0.725,-0.107
39.955,-0.615,0.730,-0.111
39.965,-0.617,0.730,-0.109
39.975,-0.615,0.725,-0.109
39.985,-0.617,0.729,-0.111
39.995,-0.617,0.725,-0.111
40.005,-0.615,0.729,-0.113
40.015,-0.607,0.727,-0.109
40.025,-0.609,0.732,-0.104
40.035,-0.611,0.730,-0.107
40.045,-0.605,0.715,-0.107
40.055,-0.604,0.709,-0.109
40.065,-0.613,0.709,-0.109
40.074,-0.613,0.719,-0.109
40.084,-0.607,0.727,-0.109
40.094,-0.602,0.729,-0.105
40.104,-0.607,0.723,-0.105
40.114,-0.615,0.721,-0.104
40.124,-0.621,0.723,-0.107
40.134,-0.623,0.721,-0.109
40.144,-0.617,0.719,-0.107
40.154,-0.617,0.719,-0.111
40.164,-0.619,0.723,-0.109
40.174,-0.621,0.725,-0.113
40.184,-0.613,0.730,-0.111
40.194,-0.615,0.730,-0.105
40.204,-0.619,0.729,-0.105
40.213,-0.617,0.727,-0.111
40.223,-0.615,0.725,-0.109
40.233,-0.613,0.723,-0.107
40.243,-0.613,0.725,-0.105
40.253,-0.611,0.730,-0.105
40.263,-0.607,0.727,-0.104
40.273,-0.605,0.725,-0.104
40.283,-0.605,0.725,-0.107
40.293,-0.607,0.721,-0.102
40.303,-0.611,0.723,-0.102
40.313,-0.609,0.729,-0.102
40.323,-0.605,0.736,-0.107
40.333,-0.607,0.732,-0.107
40.342,-0.609,0.729,-0.105
40.352,-0.611,0.730,-0.107
40.362,-0.613,0.730,-0.100
40.372,-0.619,0.727,-0.104
40.382,-0.617,0.727,-0.109
40.392,-0.613,0.721,-0.107
40.402,-0.611,0.723,-0.109
40.412,-0.613,0.727,-0.100
40.422,-0.617,0.725,-0.104
40.432,-0.611,0.719,-0.105
40.442,-0.602,0.719,-0.102
40.452,-0.605,0.715,-0.105
40.462,-0.604,0.721,-0.104
40.472,-0.602,0.729,-0.098
40.481,-0.609,0.723,-0.100
40.491,-0.604,0.719,-0.098
40.501,-0.607,0.727,-0.098
40.511,-0.613,0.723,-0.102
40.521,-0.613,0.727,-0.104
40.531,-0.611,0.723,-0.107
40.541,-0.615,0.727,-0.105
40.551,-0.619,0.730,-0.107
40.561,-0.619,0.725,-0.102
40.571,-0.619,0.727,-0.105
40.581,-0.615,0.725,-0.102
40.591,-0.615,0.725,-0.109
40.601,-0.613,0.727,-0.104
40.610,-0.611,0.725,-0.102
40.620,-0.609,0.732,-0.102
40.630,-0.605,0.719,-0.104
40.640,-0.602,0.707,-0.109
40.650,-0.598,0.711,-0.105
40.660,-0.607,0.713,-0.104
40.670,-0.621,0.723,-0.100
40.680,-0.617,0.732,-0.102
40.690,-0.605,0.732,-0.102
40.700,-0.605,0.730,-0.105
40.710,-0.613,0.729,-0.109
40.720,-0.607,0.723,-0.107
40.730,-0.613,0.723,-0.105
40.740,-0.617,0.727,-0.111
40.749,-0.613,0.729,-0.107
40.759,-0.611,0.729,-0.107
40.769,-0.611,0.734,-0.104
40.779,-0.611,0.736,-0.107
40.789,-0.609,0.734,-0.105
40.799,-0.605,0.729,-0.102
40.809,-0.607,0.729,-0.105
40.819,-0.609,0.723,-0.102
40.829,-0.611,0.723,-0.105
40.839,-0.607,0.723,-0.102
40.849,-0.605,0.732,-0.105
40.859,-0.602,0.727,-0.104
40.869,-0.605,0.721,-0.102
40.878,-0.605,0.725,-0.105
40.888,-0.605,0.725,-0.104
40.898,-0.613,0.725,-0.104
40.908,-0.611,0.727,-0.105
40.918,-0.615,0.730,-0.104
40.928,-0.615,0.725,-0.107
40.938,-0.613,0.725,-0.109
40.948,-0.615,0.723,-0.105
40.958,-0.613,0.729,-0.107
40.968,-0.617,0.732,-0.107
40.978,-0.613,0.729,-0.107
40.988,-0.617,0.719,-0.104
40.998,-0.609,0.723,-0.105
41.008,-0.607,0.719,-0.107
41.017,-0.609,0.727,-0.107
41.027,-0.611,0.721,-0.105
41.037,-0.607,0.721,-0.104
41.047,-0.607,0.717,-0.107
41.057,-0.609,0.723,-0.100
41.067,-0.602,0.725,-0.109
41.077,-0.605,0.725,-0.100
41.087,-0.613,0.721,-0.109
41.097,-0.615,0.721,-0.102
41.107,-0.621,0.719,-0.109
41.117,-0.621,0.723,-0.107
41.127,-0.619,0.729,-0.107
41.137,-0.627,0.725,-0.107
41.146,-0.627,0.725,-0.107
41.156,-0.625,0.721,-0.105
41.166,-0.621,0.723,-0.105
41.176,-0.619,0.725,-0.105
41.186,-0.615,0.719,-0.107
41.196,-0.619,0.715,-0.105
41.206,-0.619,0.715,-0.098
41.216,-0.609,0.729,-0.102
41.226,-0.602,0.727,-0.102
41.236,-0.602,0.705,-0.102
41.246,-0.607,0.707,-0.104
41.256,-0.613,0.723,-0.102
41.266,-0.613,0.727,-0.104
41.276,-0.613,0.729,-0.104
41.285,-0.613,0.727,-0.102
41.295,-0.617,0.727,-0.104
41.305,-0.623,0.727,-0.104
41.315,-0.619,0.730,-0.105
41.325,-0.623,0.729,-0.107
41.335,-0.625,0.727,-0.105
41.345,-0.619,0.725,-0.105
41.355,-0.621,0.725,-0.107
41.365,-0.623,0.725,-0.105
41.375,-0.621,0.721,-0.109
41.385,-0.619,0.717,-0.105
41.395,-0.613,0.715,-0.105
41.405,-0.611,0.719,-0.104
41.414,-0.613,0.717,-0.105
41.424,-0.607,0.715,-0.105
41.434,-0.613,0.723,-0.102
41.444,-0.613,0.723,-0.107
41.454,-0.609,0.719,-0.104
41.464,-0.602,0.721,-0.104
41.474,-0.604,0.723,-0.105
41.484,-0.607,0.723,-0.107
41.494,-0.613,0.727,-0.109
41.504,-0.611,0.732,-0.105
41.514,-0.615,0.740,-0.104
41.524,-0.611,0.736,-0.104
41.534,-0.611,0.734,-0.109
41.544,-0.613,0.734,-0.107
41.553,-0.605,0.730,-0.104
41.563,-0.611,0.729,-0.105
41.573,-0.617,0.717,-0.107
41.583,-0.615,0.725,-0.107
41.593,-0.617,0.723,-0.100
41.603,-0.623,0.732,-0.098
41.613,-0.625,0.725,-0.105
41.623,-0.605,0.729,-0.113
41.633,-0.590,0.725,-0.109
41.643,-0.592,0.730,-0.109
41.653,-0.600,0.725,-0.105
41.663,-0.607,0.717,-0.104
41.673,-0.617,0.711,-0.102
41.682,-0.623,0.711,-0.098
41.692,-0.629,0.711,-0.105
41.702,-0.621,0.719,-0.107
41.712,-0.613,0.723,-0.109
41.722,-0.611,0.719,-0.107
41.732,-0.615,0.730,-0.105
41.742,-0.625,0.729,-0.105
41.752,-0.627,0.719,-0.113
41.762,-0.625,0.715,-0.109
41.772,-0.623,0.713,-0.107
41.782,-0.621,0.717,-0.100
41.792,-0.621,0.721,-0.100
41.802,-0.621,0.713,-0.105
41.812,-0.607,0.699,-0.109
41.821,-0.604,0.707,-0.100
41.831,-0.627,0.729,-0.102
41.841,-0.635,0.736,-0.104
41.851,-0.617,0.730,-0.104
41.861,-0.611,0.734,-0.105
41.871,-0.613,0.730,-0.102
41.881,-0.619,0.730,-0.100
41.891,-0.609,0.723,-0.098
41.901,-0.611,0.719,-0.100
41.911,-0.613,0.713,-0.102
41.921,-0.615,0.715,-0.094
41.931,-0.617,0.717,-0.094
41.941,-0.617,0.715,-0.092
41.950,-0.615,0.721,-0.090
41.960,-0.617,0.730,-0.092
41.970,-0.621,0.725,-0.090
41.980,-0.621,0.729,-0.094
41.990,-0.619,0.732,-0.094
42.000,-0.619,0.730,-0.096
42.010,-0.615,0.721,-0.092
42.020,-0.619,0.717,-0.102
42.030,-0.613,0.729,-0.104
42.040,-0.607,0.727,-0.094
42.050,-0.617,0.725,-0.100
42.060,-0.633,0.723,-0.100
42.070,-0.629,0.725,-0.104
42.080,-0.617,0.719,-0.100
42.089,-0.613,0.715,-0.096
42.099,-0.623,0.727,-0.088
42.109,-0.629,0.734,-0.090
42.119,-0.625,0.721,-0.096
42.129,-0.621,0.723,-0.094
42.139,-0.623,0.719,-0.092
42.149,-0.613,0.711,-0.098
42.159,-0.609,0.709,-0.090
42.169,-0.609,0.709,-0.092
42.179,-0.605,0.711,-0.094
42.189,-0.611,0.723,-0.094
42.199,-0.605,0.719,-0.096
42.209,-0.607,0.721,-0.086
42.218,-0.621,0.719,-0.098
42.228,-0.619,0.713,-0.098
42.238,-0.617,0.713,-0.096
42.248,-0.621,0.715,-0.094
42.258,-0.623,0.715,-0.102
42.268,-0.629,0.721,-0.102
42.278,-0.629,0.725,-0.100
42.288,-0.627,0.721,-0.100
42.298,-0.627,0.725,-0.100
42.308,-0.625,0.717,-0.094
42.318,-0.617,0.713,-0.086
42.328,-0.625,0.719,-0.082
42.338,-0.635,0.709,-0.100
42.348,-0.598,0.719,-0.115
42.357,-0.566,0.727,-0.104
42.367,-0.600,0.713,-0.102
42.377,-0.629,0.729,-0.102
42.387,-0.635,0.734,-0.094
42.397,-0.621,0.730,-0.098
42.407,-0.619,0.721,-0.102
42.417,-0.621,0.721,-0.102
42.427,-0.619,0.721,-0.105
42.437,-0.627,0.725,-0.098
42.447,-0.629,0.723,-0.105
42.457,-0.633,0.725,-0.100
42.467,-0.627,0.723,-0.105
42.477,-0.623,0.727,-0.096
42.486,-0.619,0.725,-0.098
42.496,-0.613,0.725,-0.098
42.506,-0.609,0.729,-0.096
42.516,-0.611,0.725,-0.094
42.526,-0.615,0.727,-0.096
42.536,-0.613,0.723,-0.094
42.546,-0.611,0.721,-0.096
42.556,-0.613,0.729,-0.090
42.566,-0.627,0.736,-0.094
42.576,-0.629,0.734,-0.094
42.586,-0.621,0.721,-0.092
42.596,-0.615,0.723,-0.092
42.606,-0.609,0.729,-0.096
42.616,-0.623,0.730,-0.100
42.625,-0.629,0.738,-0.096
42.635,-0.621,0.723,-0.084
42.645,-0.621,0.707,-0.098
42.655,-0.621,0.709,-0.090
42.665,-0.613,0.711,-0.096
42.675,-0.604,0.707,-0.098
42.685,-0.611,0.721,-0.098
42.695,-0.613,0.721,-0.082
42.705,-0.615,0.719,-0.096
42.715,-0.615,0.723,-0.094
42.725,-0.611,0.719,-0.096
42.735,-0.613,0.725,-0.096
42.745,-0.617,0.725,-0.096
42.754,-0.613,0.719,-0.096
42.764,-0.617,0.715,-0.098
42.774,-0.621,0.713,-0.096
42.784,-0.623,0.711,-0.096
42.794,-0.629,0.709,-0.094
42.804,-0.629,0.709,-0.100
42.814,-0.631,0.717,-0.100
42.824,-0.627,0.719,-0.098
42.834,-0.625,0.717,-0.100
42.844,-0.619,0.721,-0.102
42.854,-0.617,0.725,-0.100
42.864,-0.619,0.723,-0.107
42.874,-0.605,0.723,-0.115
42.884,-0.598,0.727,-0.096
42.893,-0.607,0.738,-0.102
42.903,-0.611,0.725,-0.102
42.913,-0.613,0.719,-0.102
42.923,-0.617,0.713,-0.107
42.933,-0.621,0.719,-0.102
42.943,-0.619,0.727,-0.107
42.953,-0.623,0.730,-0.102
42.963,-0.625,0.730,-0.105
42.973,-0.623,0.732,-0.098
42.983,-0.635,0.723,-0.100
42.993,-0.635,0.723,-0.104
43.003,-0.621,0.715,-0.102
43.013,-0.619,0.721,-0.096
43.022,-0.615,0.721,-0.100
43.032,-0.605,0.732,-0.098
43.042,-0.607,0.738,-0.090
43.052,-0.609,0.734,-0.096
43.062,-0.611,0.734,-0.088
43.072,-0.627,0.723,-0.090
43.082,-0.631,0.715,-0.098
43.092,-0.633,0.719,-0.094
43.102,-0.615,0.732,-0.104
43.112,-0.617,0.734,-0.096
43.122,-0.637,0.734,-0.086
43.132,-0.641,0.727,-0.088
43.142,-0.627,0.703,-0.088
43.151,-0.602,0.691,-0.088
43.161,-0.611,0.707,-0.094
43.171,-0.615,0.711,-0.084
43.181,-0.605,0.717,-0.090
43.191,-0.611,0.717,-0.092
43.201,-0.611,0.719,-0.094
43.211,-0.611,0.721,-0.098
43.221,-0.609,0.725,-0.100
43.231,-0.615,0.723,-0.098
43.241,-0.621,0.725,-0.104
43.251,-0.625,0.719,-0.100
43.261,-0.627,0.719,-0.104
43.271,-0.631,0.721,-0.102
43.281,-0.627,0.719,-0.104
43.290,-0.619,0.721,-0.104
43.300,-0.613,0.721,-0.104
43.310,-0.615,0.723,-0.102
43.320,-0.609,0.717,-0.098
43.330,-0.607,0.717,-0.098
43.340,-0.605,0.717,-0.094
43.350,-0.611,0.717,-0.100
43.360,-0.615,0.727,-0.104
43.370,-0.615,0.723,-0.107
43.380,-0.613,0.725,-0.111
43.390,-0.607,0.721,-0.107
43.400,-0.607,0.723,-0.109
43.410,-0.611,0.730,-0.109
43.419,-0.617,0.732,-0.105
43.429,-0.617,0.730,-0.104
43.439,-0.613,0.732,-0.100
43.449,-0.613,0.727,-0.104
43.459,-0.607,0.711,-0.105
43.469,-0.605,0.713,-0.102
43.479,-0.625,0.721,-0.100
43.489,-0.629,0.729,-0.102
43.499,-0.623,0.732,-0.102
43.509,-0.617,0.736,-0.096
43.519,-0.617,0.734,-0.098
43.529,-0.615,0.734,-0.100
43.539,-0.611,0.725,-0.098
43.549,-0.613,0.725,-0.094
43.558,-0.615,0.725,-0.100
43.568,-0.607,0.729,-0.096
43.578,-0.605,0.729,-0.100
43.588,-0.607,0.734,-0.094
43.598,-0.607,0.738,-0.102
43.608,-0.605,0.748,-0.096
43.618,-0.621,0.742,-0.086
43.628,-0.637,0.725,-0.105
43.638,-0.633,0.721,-0.111
43.648,-0.629,0.719,-0.100
43.658,-0.633,0.721,-0.080
43.668,-0.652,0.721,-0.102
43.678,-0.633,0.707,-0.096
43.687,-0.611,0.719,-0.080
43.697,-0.607,0.709,-0.096
43.707,-0.613,0.705,-0.088
43.717,-0.615,0.721,-0.094
43.727,-0.602,0.719,-0.096
43.737,-0.596,0.713,-0.080
43.747,-0.598,0.725,-0.107
43.757,-0.602,0.730,-0.096
43.767,-0.613,0.730,-0.098
43.777,-0.619,0.723,-0.096
43.787,-0.623,0.717,-0.100
43.797,-0.627,0.723,-0.096
43.807,-0.627,0.715,-0.105
43.817,-0.623,0.717,-0.104
43.826,-0.619,0.717,-0.107
43.836,-0.619,0.725,-0.111
43.846,-0.615,0.719,-0.104
43.856,-0.613,0.719,-0.100
43.866,-0.609,0.719,-0.105
43.876,-0.613,0.717,-0.104
43.886,-0.611,0.719,-0.102
43.896,-0.615,0.719,-0.105
43.906,-0.617,0.723,-0.107
43.916,-0.619,0.723,-0.107
43.926,-0.623,0.721,-0.104
43.936,-0.625,0.723,-0.100
43.946,-0.623,0.723,-0.102
43.955,-0.625,0.721,-0.104
43.965,-0.621,0.719,-0.096
43.975,-0.623,0.707,-0.096
43.985,-0.621,0.707,-0.094
43.995,-0.617,0.721,-0.088
44.005,-0.619,0.734,-0.094
44.015,-0.615,0.715,-0.109
44.025,-0.605,0.711,-0.105
44.035,-0.615,0.711,-0.105
44.045,-0.604,0.723,-0.119
44.055,-0.602,0.738,-0.104
44.065,-0.604,0.736,-0.105
44.075,-0.609,0.723,-0.102
44.085,-0.629,0.721,-0.102
44.094,-0.635,0.717,-0.105
44.104,-0.623,0.729,-0.113
44.114,-0.619,0.729,-0.107
44.124,-0.619,0.721,-0.111
44.134,-0.629,0.721,-0.107
44.144,-0.623,0.723,-0.109
44.154,-0.627,0.729,-0.098
44.164,-0.623,0.729,-0.100
44.174,-0.623,0.721,-0.102
44.184,-0.615,0.723,-0.105
44.194,-0.609,0.723,-0.104
44.204,-0.604,0.723,-0.102
44.214,-0.602,0.727,-0.092
44.223,-0.605,0.727,-0.096
44.233,-0.609,0.729,-0.098
44.243,-0.609,0.723,-0.098
44.253,-0.607,0.721,-0.100
44.263,-0.605,0.727,-0.102
44.273,-0.611,0.725,-0.094
44.283,-0.621,0.727,-0.100
44.293,-0.621,0.730,-0.096
44.303,-0.609,0.746,-0.102
44.313,-0.615,0.746,-0.104
44.323,-0.621,0.734,-0.105
44.333,-0.631,0.721,-0.098
44.343,-0.635,0.727,-0.107
44.353,-0.619,0.736,-0.094
44.362,-0.627,0.713,-0.092
44.372,-0.619,0.697,-0.094
44.382,-0.604,0.701,-0.096
44.392,-0.602,0.701,-0.074
44.402,-0.609,0.713,-0.088
44.412,-0.607,0.711,-0.096
44.422,-0.598,0.715,-0.094
44.432,-0.598,0.719,-0.098
44.442,-0.596,0.727,-0.104
44.452,-0.600,0.723,-0.098
44.462,-0.609,0.729,-0.104
44.472,-0.621,0.736,-0.107
44.482,-0.631,0.730,-0.109
44.491,-0.627,0.721,-0.109
44.501,-0.637,0.727,-0.107
44.511,-0.635,0.721,-0.107
44.521,-0.629,0.713,-0.107
44.531,-0.625,0.719,-0.098
44.541,-0.617,0.727,-0.098
44.551,-0.611,0.723,-0.104
44.561,-0.607,0.713,-0.104
44.571,-0.604,0.715,-0.102
44.581,-0.609,0.725,-0.096
44.591,-0.607,0.727,-0.098
44.601,-0.607,0.727,-0.096
44.611,-0.605,0.727,-0.094
44.621,-0.615,0.723,-0.090
44.630,-0.621,0.719,-0.090
44.640,-0.619,0.711,-0.094
44.650,-0.619,0.703,-0.090
44.660,-0.617,0.707,-0.094
44.670,-0.611,0.721,-0.092
44.680,-0.617,0.721,-0.102
44.690,-0.635,0.713,-0.109
44.700,-0.607,0.721,-0.107
44.710,-0.605,0.730,-0.107
44.720,-0.586,0.740,-0.113
44.730,-0.613,0.729,-0.092
44.740,-0.641,0.729,-0.102
44.750,-0.641,0.723,-0.104
44.759,-0.629,0.725,-0.100
44.769,-0.619,0.727,-0.105
44.779,-0.605,0.719,-0.109
44.789,-0.600,0.727,-0.109
44.799,-0.605,0.729,-0.105
44.809,-0.617,0.727,-0.105
44.819,-0.615,0.727,-0.105
44.829,-0.598,0.732,-0.111
44.839,-0.605,0.730,-0.094
44.849,-0.625,0.730,-0.098
44.859,-0.623,0.734,-0.105
44.869,-0.609,0.736,-0.104
44.879,-0.613,0.727,-0.100
44.889,-0.613,0.729,-0.104
44.898,-0.613,0.727,-0.102
44.908,-0.602,0.727,-0.104
44.918,-0.604,0.730,-0.102
44.928,-0.602,0.730,-0.098
44.938,-0.602,0.729,-0.100
44.948,-0.607,0.732,-0.102
44.958,-0.611,0.729,-0.102
44.968,-0.609,0.729,-0.098
44.978,-0.609,0.727,-0.098
44.988,-0.617,0.729,-0.096
44.998,-0.619,0.721,-0.102
45.008,-0.619,0.719,-0.098
45.018,-0.621,0.729,-0.102
45.027,-0.619,0.734,-0.100
45.037,-0.625,0.736,-0.100
45.047,-0.629,0.727,-0.104
45.057,-0.627,0.730,-0.104
45.067,-0.621,0.730,-0.100
45.077,-0.609,0.736,-0.098
45.087,-0.613,0.734,-0.100
45.097,-0.600,0.725,-0.086
45.107,-0.602,0.729,-0.088
45.117,-0.600,0.725,-0.088
45.127,-0.592,0.701,-0.088
45.137,-0.602,0.705,-0.096
45.147,-0.613,0.717,-0.094
45.157,-0.611,0.721,-0.104
45.166,-0.600,0.730,-0.100
45.176,-0.619,0.732,-0.111
45.186,-0.637,0.732,-0.105
45.196,-0.639,0.713,-0.102
45.206,-0.635,0.717,-0.113
45.216,-0.637,0.713,-0.107
45.226,-0.637,0.713,-0.102
45.236,-0.631,0.715,-0.109
45.246,-0.625,0.717,-0.100
45.256,-0.623,0.721,-0.100
45.266,-0.621,0.725,-0.096
45.276,-0.619,0.723,-0.096
45.286,-0.615,0.719,-0.100
45.295,-0.613,0.721,-0.096
45.305,-0.611,0.719,-0.098
45.315,-0.607,0.719,-0.102
45.325,-0.607,0.725,-0.098
45.335,-0.613,0.725,-0.092
45.345,-0.609,0.727,-0.094
45.355,-0.600,0.717,-0.086
45.365,-0.605,0.713,-0.094
45.375,-0.605,0.709,-0.094
45.385,-0.592,0.713,-0.092
45.395,-0.619,0.705,-0.096
45.405,-0.631,0.732,-0.107
45.415,-0.613,0.750,-0.113
45.425,-0.623,0.742,-0.088
45.434,-0.660,0.734,-0.096
45.444,-0.623,0.730,-0.117
45.454,-0.588,0.729,-0.104
45.464,-0.602,0.727,-0.105
45.474,-0.615,0.717,-0.107
45.484,-0.621,0.725,-0.098
45.494,-0.625,0.730,-0.100
45.504,-0.625,0.729,-0.094
45.514,-0.621,0.729,-0.100
45.524,-0.609,0.725,-0.100
45.534,-0.600,0.725,-0.100
45.544,-0.600,0.725,-0.096
45.554,-0.607,0.727,-0.090
45.563,-0.604,0.729,-0.100
45.573,-0.598,0.732,-0.096
45.583,-0.604,0.734,-0.100
45.593,-0.611,0.736,-0.090
45.603,-0.613,0.738,-0.090
45.613,-0.623,0.734,-0.090
45.623,-0.619,0.744,-0.100
45.633,-0.615,0.730,-0.096
45.643,-0.623,0.736,-0.096
45.653,-0.619,0.740,-0.096
45.663,-0.617,0.736,-0.088
45.673,-0.613,0.732,-0.090
45.683,-0.611,0.705,-0.086
45.693,-0.598,0.703,-0.104
45.702,-0.600,0.701,-0.080
45.712,-0.611,0.707,-0.074
45.722,-0.619,0.723,-0.088
45.732,-0.609,0.719,-0.086
45.742,-0.609,0.727,-0.094
45.752,-0.605,0.719,-0.094
45.762,-0.617,0.723,-0.115
45.772,-0.627,0.729,-0.102
45.782,-0.629,0.709,-0.107
45.792,-0.633,0.717,-0.100
45.802,-0.639,0.725,-0.100
45.812,-0.629,0.727,-0.098
45.822,-0.625,0.727,-0.100
45.831,-0.623,0.721,-0.096
45.841,-0.621,0.723,-0.096
45.851,-0.613,0.721,-0.100
45.861,-0.609,0.721,-0.100
45.871,-0.607,0.715,-0.102
45.881,-0.613,0.713,-0.096
45.891,-0.607,0.729,-0.094
45.901,-0.607,0.723,-0.090
45.911,-0.604,0.717,-0.094
45.921,-0.607,0.715,-0.088
45.931,-0.611,0.711,-0.084
45.941,-0.613,0.713,-0.084
45.951,-0.621,0.721,-0.088
45.961,-0.617,0.730,-0.098
45.970,-0.627,0.736,-0.096
45.980,-0.631,0.721,-0.102
45.990,-0.619,0.711,-0.105
46.000,-0.607,0.715,-0.111
46.010,-0.582,0.746,-0.111
46.020,-0.602,0.738,-0.094
46.030,-0.641,0.729,-0.098
46.040,-0.643,0.729,-0.109
46.050,-0.623,0.721,-0.100
46.060,-0.619,0.713,-0.107
46.070,-0.611,0.719,-0.107
46.080,-0.611,0.721,-0.098
46.090,-0.619,0.729,-0.098
46.099,-0.619,0.738,-0.096
46.109,-0.615,0.730,-0.098
46.119,-0.613,0.725,-0.098
46.129,-0.617,0.729,-0.094
46.139,-0.611,0.723,-0.100
46.149,-0.607,0.729,-0.096
46.159,-0.605,0.730,-0.100
46.169,-0.600,0.732,-0.094
46.179,-0.598,0.730,-0.092
46.189,-0.602,0.738,-0.096
46.199,-0.602,0.734,-0.092
46.209,-0.609,0.742,-0.090
46.219,-0.615,0.730,-0.090
46.228,-0.617,0.738,-0.088
46.238,-0.617,0.730,-0.094
46.248,-0.607,0.723,-0.092
46.258,-0.602,0.717,-0.102
46.268,-0.617,0.725,-0.094
46.278,-0.621,0.738,-0.100
46.288,-0.625,0.746,-0.094
46.298,-0.631,0.734,-0.094
46.308,-0.631,0.723,-0.084
46.318,-0.643,0.717,-0.109
46.328,-0.631,0.699,-0.096
46.338,-0.623,0.688,-0.074
46.348,-0.629,0.709,-0.102
46.358,-0.627,0.715,-0.092
46.367,-0.613,0.719,-0.105
46.377,-0.605,0.727,-0.088
46.387,-0.613,0.738,-0.104
46.397,-0.625,0.732,-0.109
46.407,-0.617,0.713,-0.102
46.417,-0.609,0.713,-0.104
46.427,-0.615,0.715,-0.100
46.437,-0.617,0.717,-0.100
46.447,-0.617,0.713,-0.096
46.457,-0.611,0.721,-0.096
46.467,-0.617,0.725,-0.098
46.477,-0.609,0.721,-0.098
46.487,-0.609,0.721,-0.096
46.496,-0.611,0.721,-0.098
46.506,-0.617,0.723,-0.100
46.516,-0.617,0.723,-0.102
46.526,-0.617,0.727,-0.104
46.536,-0.621,0.725,-0.102
46.546,-0.625,0.727,-0.102
46.556,-0.623,0.725,-0.102
46.566,-0.623,0.727,-0.098
46.576,-0.621,0.725,-0.100
46.586,-0.623,0.721,-0.098
46.596,-0.619,0.713,-0.094
46.606,-0.619,0.717,-0.092
46.616,-0.615,0.725,-0.098
46.626,-0.607,0.729,-0.098
46.635,-0.617,0.725,-0.105
46.645,-0.607,0.721,-0.102
46.655,-0.613,0.729,-0.102
46.665,-0.607,0.723,-0.107
46.675,-0.607,0.719,-0.102
46.685,-0.607,0.715,-0.109
46.695,-0.609,0.725,-0.104
46.705,-0.607,0.725,-0.111
46.715,-0.605,0.732,-0.109
46.725,-0.609,0.729,-0.104
46.735,-0.627,0.727,-0.107
46.745,-0.631,0.732,-0.109
46.755,-0.621,0.730,-0.105
46.764,-0.623,0.727,-0.107
46.774,-0.623,0.721,-0.107
46.784,-0.621,0.721,-0.105
46.794,-0.617,0.723,-0.098
46.804,-0.613,0.736,-0.102
46.814,-0.607,0.721,-0.104
46.824,-0.602,0.713,-0.104
46.834,-0.607,0.721,-0.102
46.844,-0.613,0.729,-0.100
46.854,-0.619,0.727,-0.098
46.864,-0.609,0.729,-0.100
46.874,-0.598,0.732,-0.102
46.884,-0.605,0.732,-0.096
46.894,-0.613,0.736,-0.096
46.903,-0.611,0.730,-0.100
46.913,-0.605,0.721,-0.104
46.923,-0.605,0.721,-0.098
46.933,-0.613,0.725,-0.100
46.943,-0.615,0.721,-0.100
46.953,-0.617,0.729,-0.105
46.963,-0.617,0.725,-0.096
46.973,-0.617,0.729,-0.094
46.983,-0.633,0.725,-0.094
46.993,-0.629,0.727,-0.107
47.003,-0.615,0.727,-0.102
47.013,-0.625,0.732,-0.105
47.023,-0.639,0.725,-0.104
47.032,-0.613,0.721,-0.104
47.042,-0.602,0.725,-0.104
47.052,-0.607,0.713,-0.090
47.062,-0.609,0.717,-0.100
47.072,-0.607,0.717,-0.086
47.082,-0.617,0.709,-0.078
47.092,-0.613,0.719,-0.098
47.102,-0.611,0.727,-0.100
47.112,-0.611,0.732,-0.098
47.122,-0.617,0.725,-0.098
47.132,-0.611,0.719,-0.117
47.142,-0.619,0.725,-0.109
47.152,-0.631,0.719,-0.111
47.162,-0.635,0.707,-0.104
47.171,-0.641,0.709,-0.104
47.181,-0.637,0.715,-0.107
47.191,-0.631,0.713,-0.098
47.201,-0.629,0.719,-0.102
47.211,-0.627,0.719,-0.100
47.221,-0.621,0.713,-0.102
47.231,-0.617,0.717,-0.100
47.241,-0.615,0.715,-0.100
47.251,-0.615,0.715,-0.098
47.261,-0.615,0.719,-0.100
47.271,-0.615,0.717,-0.100
47.281,-0.619,0.717,-0.096
47.291,-0.619,0.717,-0.098
47.300,-0.625,0.721,-0.098
47.310,-0.625,0.717,-0.098
47.320,-0.627,0.711,-0.092
47.330,-0.623,0.705,-0.088
47.340,-0.621,0.717,-0.084
47.350,-0.625,0.736,-0.088
47.360,-0.625,0.717,-0.111
47.370,-0.611,0.713,-0.098
47.380,-0.615,0.717,-0.105
47.390,-0.627,0.723,-0.104
47.400,-0.623,0.730,-0.104
47.410,-0.613,0.738,-0.105
47.420,-0.629,0.719,-0.094
47.430,-0.639,0.713,-0.104
47.439,-0.635,0.715,-0.096
47.449,-0.629,0.717,-0.102
47.459,-0.629,0.717,-0.105
47.469,-0.625,0.715,-0.105
47.479,-0.617,0.711,-0.102
47.489,-0.609,0.715,-0.100
47.499,-0.615,0.723,-0.104
47.509,-0.621,0.727,-0.100
47.519,-0.619,0.725,-0.102
47.529,-0.611,0.725,-0.102
47.539,-0.615,0.729,-0.098
47.549,-0.627,0.727,-0.102
47.559,-0.629,0.713,-0.096
47.568,-0.619,0.719,-0.104
47.578,-0.617,0.715,-0.100
47.588,-0.613,0.717,-0.100
47.598,-0.613,0.719,-0.100
47.608,-0.615,0.725,-0.100
47.618,-0.613,0.729,-0.100
47.628,-0.617,0.723,-0.096
47.638,-0.617,0.729,-0.100
47.648,-0.621,0.729,-0.098
47.658,-0.625,0.727,-0.098
47.668,-0.635,0.725,-0.096
47.678,-0.629,0.719,-0.102
47.688,-0.619,0.719,-0.104
47.698,-0.609,0.719,-0.107
47.707,-0.605,0.740,-0.102
47.717,-0.623,0.752,-0.100
47.727,-0.635,0.738,-0.104
47.737,-0.643,0.736,-0.107
47.747,-0.639,0.729,-0.100
47.757,-0.641,0.711,-0.094
47.767,-0.639,0.703,-0.104
47.777,-0.621,0.689,-0.086
47.787,-0.607,0.693,-0.107
47.797,-0.621,0.709,-0.092
47.807,-0.615,0.711,-0.090
47.817,-0.602,0.721,-0.111
47.827,-0.604,0.738,-0.092
47.836,-0.602,0.729,-0.098
47.846,-0.600,0.734,-0.102
47.856,-0.613,0.721,-0.109
47.866,-0.621,0.715,-0.111
47.876,-0.625,0.717,-0.100
47.886,-0.623,0.723,-0.104
47.896,-0.623,0.719,-0.102
47.906,-0.617,0.709,-0.102
47.916,-0.615,0.715,-0.100
47.926,-0.623,0.723,-0.098
47.936,-0.625,0.730,-0.098
47.946,-0.621,0.732,-0.098
47.956,-0.615,0.730,-0.100
47.966,-0.615,0.723,-0.100
47.975,-0.611,0.727,-0.102
47.985,-0.611,0.727,-0.102
47.995,-0.609,0.723,-0.096
48.005,-0.611,0.719,-0.102
48.015,-0.605,0.715,-0.096
48.025,-0.604,0.713,-0.092
48.035,-0.602,0.703,-0.086
48.045,-0.596,0.699,-0.084
48.055,-0.605,0.691,-0.109
48.065,-0.615,0.732,-0.107
48.075,-0.574,0.748,-0.117
48.085,-0.607,0.732,-0.086
48.095,-0.658,0.736,-0.104
48.104,-0.637,0.730,-0.100
48.114,-0.613,0.729,-0.098
48.124,-0.609,0.721,-0.107
48.134,-0.615,0.727,-0.102
48.144,-0.621,0.729,-0.104
48.154,-0.629,0.727,-0.107
48.164,-0.619,0.729,-0.102
48.174,-0.611,0.727,-0.111
48.184,-0.600,0.734,-0.100
48.194,-0.609,0.742,-0.098
48.204,-0.619,0.736,-0.100
48.214,-0.617,0.730,-0.092
48.224,-0.609,0.732,-0.100
48.234,-0.617,0.729,-0.096
48.243,-0.621,0.725,-0.104
48.253,-0.617,0.719,-0.090
48.263,-0.615,0.723,-0.094
48.273,-0.613,0.727,-0.092
48.283,-0.615,0.727,-0.090
48.293,-0.605,0.742,-0.105
48.303,-0.602,0.732,-0.084
48.313,-0.607,0.715,-0.086
48.323,-0.598,0.709,-0.109
48.333,-0.592,0.711,-0.086
48.343,-0.619,0.709,-0.080
48.353,-0.633,0.713,-0.088
48.363,-0.625,0.719,-0.102
48.372,-0.623,0.729,-0.105
48.382,-0.627,0.725,-0.104
48.392,-0.635,0.725,-0.127
48.402,-0.627,0.727,-0.104
48.412,-0.633,0.721,-0.113
48.422,-0.643,0.713,-0.100
48.432,-0.639,0.727,-0.102
48.442,-0.629,0.721,-0.100
48.452,-0.617,0.707,-0.104
48.462,-0.611,0.699,-0.098
48.472,-0.619,0.713,-0.100
48.482,-0.623,0.723,-0.100
48.492,-0.617,0.725,-0.096
48.502,-0.607,0.725,-0.100
48.511,-0.607,0.723,-0.102
48.521,-0.607,0.725,-0.098
48.531,-0.615,0.723,-0.096
48.541,-0.617,0.721,-0.102
48.551,-0.617,0.723,-0.100
48.561,-0.617,0.719,-0.096
48.571,-0.615,0.713,-0.096
48.581,-0.609,0.707,-0.088
48.591,-0.625,0.723,-0.086
48.601,-0.619,0.713,-0.109
48.611,-0.602,0.715,-0.113
48.621,-0.594,0.738,-0.121
48.631,-0.590,0.732,-0.104
48.640,-0.625,0.734,-0.098
48.650,-0.643,0.725,-0.105
48.660,-0.623,0.727,-0.104
48.670,-0.609,0.723,-0.109
48.680,-0.613,0.729,-0.105
48.690,-0.615,0.721,-0.105
48.700,-0.613,0.721,-0.109
48.710,-0.615,0.725,-0.104
48.720,-0.619,0.727,-0.104
48.730,-0.629,0.732,-0.104
48.740,-0.623,0.732,-0.102
48.750,-0.625,0.736,-0.104
48.760,-0.613,0.732,-0.105
48.770,-0.617,0.729,-0.100
48.779,-0.613,0.721,-0.104
48.789,-0.609,0.725,-0.104
48.799,-0.611,0.725,-0.104
48.809,-0.607,0.725,-0.104
48.819,-0.602,0.729,-0.100
48.829,-0.605,0.732,-0.100
48.839,-0.605,0.730,-0.098
48.849,-0.605,0.727,-0.100
48.859,-0.604,0.729,-0.100
48.869,-0.607,0.721,-0.100
48.879,-0.609,0.723,-0.102
48.889,-0.615,0.725,-0.100
48.899,-0.611,0.723,-0.096
48.908,-0.617,0.719,-0.102
48.918,-0.615,0.725,-0.107
48.928,-0.607,0.732,-0.104
48.938,-0.615,0.750,-0.105
48.948,-0.611,0.744,-0.105
48.958,-0.629,0.734,-0.098
48.968,-0.639,0.723,-0.105
48.978,-0.637,0.719,-0.102
48.988,-0.627,0.727,-0.107
48.998,-0.619,0.742,-0.105
49.008,-0.621,0.730,-0.104
49.018,-0.619,0.711,-0.088
49.028,-0.617,0.705,-0.104
49.038,-0.629,0.713,-0.100
49.047,-0.615,0.705,-0.086
49.057,-0.609,0.713,-0.080
49.067,-0.615,0.727,-0.088
49.077,-0.613,0.721,-0.088
49.087,-0.607,0.721,-0.100
49.097,-0.605,0.719,-0.092
49.107,-0.605,0.715,-0.094
49.117,-0.615,0.721,-0.115
49.127,-0.613,0.727,-0.115
49.137,-0.621,0.732,-0.107
49.147,-0.621,0.719,-0.105
49.157,-0.631,0.727,-0.107
49.167,-0.633,0.725,-0.105
49.176,-0.627,0.723,-0.100
49.186,-0.623,0.715,-0.100
