df_hash,22ZHK4.E50QS1
device,HZ2X61
project_hash,29R7
project_name,istanbul_aydin_university
person_hash,29R7.2ES5
person_label,v130
date_time_start,2026-04-07_17-55-40.586000_+03
date_time_start_unix,1775566540.586
date_time_end,2026-04-07_18-04-27.744000_+03
length_difference_noticed,no

time,acc_x,acc_y,acc_z
4.549,-0.982,-0.428,0.113
4.559,-0.977,-0.434,0.109
4.569,-0.975,-0.438,0.107
4.578,-0.975,-0.439,0.111
4.588,-0.977,-0.436,0.109
4.598,-0.975,-0.438,0.107
4.608,-0.979,-0.436,0.107
4.618,-0.979,-0.434,0.109
4.628,-0.977,-0.428,0.111
4.638,-0.984,-0.426,0.107
4.648,-0.982,-0.432,0.109
4.658,-0.982,-0.436,0.105
4.668,-0.988,-0.436,0.109
4.678,-0.988,-0.432,0.111
4.688,-0.984,-0.434,0.113
4.698,-0.982,-0.434,0.109
4.707,-0.975,-0.438,0.107
4.717,-0.971,-0.439,0.109
4.727,-0.971,-0.436,0.111
4.737,-0.971,-0.436,0.113
4.747,-0.977,-0.436,0.111
4.757,-0.979,-0.430,0.111
4.767,-0.979,-0.428,0.113
4.777,-0.979,-0.436,0.109
4.787,-0.977,-0.438,0.111
4.797,-0.977,-0.439,0.111
4.807,-0.977,-0.434,0.113
4.817,-0.977,-0.434,0.113
4.827,-0.975,-0.434,0.113
4.836,-0.975,-0.434,0.113
4.846,-0.980,-0.438,0.111
4.856,-0.980,-0.434,0.111
4.866,-0.979,-0.436,0.111
4.876,-0.980,-0.436,0.107
4.886,-0.979,-0.432,0.107
4.896,-0.975,-0.432,0.107
4.906,-0.977,-0.434,0.107
4.916,-0.975,-0.434,0.107
4.926,-0.980,-0.439,0.107
4.936,-0.980,-0.439,0.105
4.946,-0.982,-0.439,0.107
4.956,-0.980,-0.434,0.104
4.965,-0.982,-0.434,0.111
4.975,-0.980,-0.432,0.105
4.985,-0.984,-0.428,0.109
4.995,-0.977,-0.430,0.109
5.005,-0.977,-0.438,0.107
5.015,-0.977,-0.436,0.111
5.025,-0.979,-0.432,0.113
5.035,-0.979,-0.426,0.113
5.045,-0.973,-0.439,0.113
5.055,-0.971,-0.443,0.109
5.065,-0.971,-0.447,0.109
5.075,-0.973,-0.438,0.113
5.085,-0.980,-0.432,0.111
5.095,-0.982,-0.432,0.111
5.104,-0.984,-0.430,0.105
5.114,-0.982,-0.428,0.105
5.124,-0.975,-0.432,0.109
5.134,-0.975,-0.430,0.105
5.144,-0.980,-0.434,0.104
5.154,-0.977,-0.436,0.102
5.164,-0.979,-0.434,0.104
5.174,-0.980,-0.428,0.100
5.184,-0.980,-0.428,0.102
5.194,-0.980,-0.422,0.104
5.204,-0.984,-0.424,0.102
5.214,-0.986,-0.432,0.102
5.224,-0.988,-0.436,0.104
5.233,-0.986,-0.438,0.100
5.243,-0.982,-0.434,0.105
5.253,-0.977,-0.432,0.104
5.263,-0.975,-0.432,0.107
5.273,-0.975,-0.434,0.104
5.283,-0.973,-0.436,0.104
5.293,-0.969,-0.438,0.107
5.303,-0.969,-0.436,0.104
5.313,-0.979,-0.438,0.107
5.323,-0.979,-0.432,0.102
5.333,-0.984,-0.434,0.107
5.343,-0.982,-0.432,0.104
5.353,-0.986,-0.432,0.104
5.362,-0.982,-0.438,0.104
5.372,-0.980,-0.439,0.102
5.382,-0.979,-0.443,0.104
5.392,-0.977,-0.436,0.105
5.402,-0.977,-0.434,0.104
5.412,-0.980,-0.432,0.104
5.422,-0.980,-0.432,0.102
5.432,-0.979,-0.430,0.105
5.442,-0.979,-0.430,0.100
5.452,-0.979,-0.434,0.100
5.462,-0.982,-0.439,0.098
5.472,-0.979,-0.434,0.100
5.482,-0.979,-0.430,0.100
5.491,-0.980,-0.434,0.102
5.501,-0.984,-0.434,0.100
5.511,-0.986,-0.434,0.098
5.521,-0.988,-0.428,0.098
5.531,-0.988,-0.426,0.096
5.541,-0.986,-0.432,0.100
5.551,-0.979,-0.438,0.100
5.561,-0.980,-0.432,0.098
5.571,-0.977,-0.426,0.105
5.581,-0.979,-0.430,0.102
5.591,-0.977,-0.432,0.104
5.601,-0.977,-0.428,0.105
5.611,-0.977,-0.418,0.109
5.620,-0.980,-0.426,0.111
5.630,-0.977,-0.441,0.104
5.640,-0.977,-0.449,0.104
5.650,-0.977,-0.447,0.104
5.660,-0.980,-0.447,0.102
5.670,-0.984,-0.439,0.100
5.680,-0.986,-0.432,0.104
5.690,-0.984,-0.432,0.100
5.700,-0.980,-0.436,0.100
5.710,-0.980,-0.434,0.100
5.720,-0.975,-0.430,0.100
5.730,-0.971,-0.430,0.098
5.740,-0.975,-0.436,0.096
5.749,-0.973,-0.439,0.098
5.759,-0.975,-0.438,0.094
5.769,-0.979,-0.436,0.096
5.779,-0.984,-0.428,0.098
5.789,-0.986,-0.432,0.098
5.799,-0.984,-0.432,0.096
5.809,-0.982,-0.438,0.096
5.819,-0.984,-0.434,0.098
5.829,-0.980,-0.432,0.102
5.839,-0.977,-0.436,0.102
5.849,-0.979,-0.434,0.102
5.859,-0.973,-0.434,0.100
5.869,-0.977,-0.438,0.102
5.879,-0.979,-0.443,0.102
5.888,-0.980,-0.439,0.102
5.898,-0.979,-0.436,0.102
5.908,-0.984,-0.432,0.102
5.918,-0.982,-0.432,0.104
5.928,-0.982,-0.434,0.104
5.938,-0.977,-0.436,0.104
5.948,-0.977,-0.438,0.107
5.958,-0.977,-0.441,0.102
5.968,-0.975,-0.441,0.100
5.978,-0.975,-0.439,0.102
5.988,-0.975,-0.439,0.104
5.998,-0.971,-0.434,0.105
6.008,-0.973,-0.439,0.104
6.017,-0.975,-0.432,0.102
6.027,-0.979,-0.436,0.100
6.037,-0.984,-0.430,0.100
6.047,-0.982,-0.436,0.100
6.057,-0.982,-0.434,0.094
6.067,-0.980,-0.438,0.096
6.077,-0.977,-0.434,0.098
6.087,-0.979,-0.439,0.100
6.097,-0.977,-0.439,0.098
6.107,-0.975,-0.438,0.100
6.117,-0.979,-0.436,0.100
6.127,-0.980,-0.439,0.102
6.137,-0.980,-0.439,0.098
6.146,-0.979,-0.439,0.096
6.156,-0.980,-0.436,0.098
6.166,-0.980,-0.432,0.100
6.176,-0.980,-0.438,0.100
6.186,-0.977,-0.439,0.096
6.196,-0.975,-0.436,0.102
6.206,-0.980,-0.432,0.104
6.216,-0.977,-0.432,0.104
6.226,-0.973,-0.441,0.104
6.236,-0.969,-0.455,0.102
6.246,-0.977,-0.451,0.102
6.256,-0.973,-0.438,0.102
6.266,-0.980,-0.432,0.102
6.275,-0.984,-0.430,0.102
6.285,-0.982,-0.430,0.102
6.295,-0.986,-0.428,0.102
6.305,-0.986,-0.424,0.100
6.315,-0.982,-0.426,0.100
6.325,-0.980,-0.432,0.100
6.335,-0.977,-0.436,0.100
6.345,-0.979,-0.434,0.098
6.355,-0.982,-0.436,0.098
6.365,-0.980,-0.434,0.098
6.375,-0.980,-0.432,0.102
6.385,-0.980,-0.432,0.102
6.395,-0.984,-0.434,0.102
6.404,-0.984,-0.438,0.100
6.414,-0.980,-0.432,0.102
6.424,-0.977,-0.430,0.105
6.434,-0.977,-0.432,0.109
6.444,-0.973,-0.432,0.107
6.454,-0.973,-0.439,0.107
6.464,-0.971,-0.441,0.104
6.474,-0.969,-0.438,0.109
6.484,-0.975,-0.438,0.105
6.494,-0.980,-0.438,0.107
6.504,-0.986,-0.428,0.105
6.514,-0.984,-0.430,0.105
6.524,-0.986,-0.436,0.104
6.533,-0.986,-0.438,0.105
6.543,-0.984,-0.441,0.104
6.553,-0.982,-0.436,0.104
6.563,-0.977,-0.438,0.105
6.573,-0.975,-0.439,0.107
6.583,-0.979,-0.434,0.107
6.593,-0.973,-0.438,0.105
6.603,-0.973,-0.439,0.105
6.613,-0.971,-0.432,0.107
6.623,-0.973,-0.432,0.105
6.633,-0.977,-0.432,0.104
6.643,-0.979,-0.428,0.105
6.653,-0.979,-0.432,0.102
6.662,-0.984,-0.439,0.102
6.672,-0.980,-0.434,0.100
6.682,-0.980,-0.436,0.102
6.692,-0.980,-0.436,0.102
6.702,-0.986,-0.436,0.104
6.712,-0.984,-0.434,0.100
6.722,-0.986,-0.438,0.104
6.732,-0.982,-0.438,0.104
6.742,-0.980,-0.441,0.104
6.752,-0.979,-0.436,0.105
6.762,-0.980,-0.428,0.105
6.772,-0.980,-0.428,0.105
6.782,-0.980,-0.430,0.105
6.792,-0.977,-0.426,0.107
6.801,-0.975,-0.426,0.117
6.811,-0.975,-0.426,0.113
6.821,-0.975,-0.441,0.109
6.831,-0.973,-0.455,0.109
6.841,-0.977,-0.449,0.109
6.851,-0.973,-0.441,0.107
6.861,-0.980,-0.438,0.111
6.871,-0.986,-0.430,0.113
6.881,-0.982,-0.426,0.111
6.891,-0.979,-0.430,0.109
6.901,-0.977,-0.432,0.105
6.911,-0.971,-0.436,0.105
6.921,-0.975,-0.436,0.102
6.930,-0.973,-0.436,0.100
6.940,-0.979,-0.436,0.100
6.950,-0.982,-0.432,0.104
6.960,-0.990,-0.430,0.102
6.970,-0.982,-0.432,0.104
6.980,-0.986,-0.432,0.104
6.990,-0.986,-0.438,0.109
7.000,-0.980,-0.438,0.109
7.010,-0.979,-0.434,0.107
7.020,-0.979,-0.428,0.111
7.030,-0.973,-0.432,0.113
7.040,-0.971,-0.436,0.111
7.050,-0.969,-0.445,0.109
7.059,-0.969,-0.439,0.109
7.069,-0.971,-0.438,0.113
7.079,-0.980,-0.438,0.105
7.089,-0.982,-0.430,0.111
7.099,-0.982,-0.426,0.109
7.109,-0.984,-0.426,0.107
7.119,-0.980,-0.432,0.109
7.129,-0.980,-0.434,0.107
7.139,-0.977,-0.439,0.109
7.149,-0.975,-0.438,0.105
7.159,-0.971,-0.439,0.107
7.169,-0.975,-0.443,0.104
7.179,-0.977,-0.438,0.104
7.188,-0.977,-0.436,0.105
7.198,-0.979,-0.432,0.104
7.208,-0.982,-0.432,0.105
7.218,-0.984,-0.428,0.104
7.228,-0.982,-0.434,0.104
7.238,-0.980,-0.439,0.104
7.248,-0.979,-0.439,0.102
7.258,-0.979,-0.436,0.104
7.268,-0.977,-0.438,0.102
7.278,-0.977,-0.436,0.100
7.288,-0.977,-0.436,0.105
7.298,-0.980,-0.436,0.105
7.308,-0.984,-0.432,0.105
7.317,-0.984,-0.430,0.109
7.327,-0.980,-0.436,0.107
7.337,-0.979,-0.436,0.109
7.347,-0.979,-0.436,0.109
7.357,-0.977,-0.432,0.109
7.367,-0.975,-0.426,0.113
7.377,-0.977,-0.430,0.109
7.387,-0.975,-0.436,0.111
7.397,-0.979,-0.453,0.107
7.407,-0.977,-0.449,0.105
7.417,-0.979,-0.439,0.111
7.427,-0.980,-0.428,0.113
7.437,-0.982,-0.424,0.113
7.446,-0.979,-0.426,0.111
7.456,-0.977,-0.426,0.111
7.466,-0.973,-0.434,0.111
7.476,-0.969,-0.439,0.109
7.486,-0.969,-0.443,0.109
7.496,-0.971,-0.439,0.107
7.506,-0.977,-0.438,0.107
7.516,-0.982,-0.438,0.105
7.526,-0.988,-0.436,0.105
7.536,-0.990,-0.436,0.107
7.546,-0.984,-0.432,0.107
7.556,-0.982,-0.432,0.107
7.566,-0.982,-0.436,0.105
7.576,-0.979,-0.441,0.104
7.585,-0.975,-0.434,0.113
7.595,-0.975,-0.430,0.107
7.605,-0.971,-0.428,0.109
7.615,-0.975,-0.438,0.105
7.625,-0.977,-0.443,0.102
7.635,-0.971,-0.443,0.107
7.645,-0.977,-0.441,0.107
7.655,-0.979,-0.434,0.105
7.665,-0.980,-0.434,0.105
7.675,-0.982,-0.428,0.107
7.685,-0.986,-0.426,0.104
7.695,-0.986,-0.430,0.105
7.705,-0.980,-0.434,0.105
7.714,-0.982,-0.438,0.107
7.724,-0.977,-0.441,0.104
7.734,-0.979,-0.438,0.105
7.744,-0.975,-0.432,0.104
7.754,-0.979,-0.430,0.104
7.764,-0.975,-0.434,0.107
7.774,-0.979,-0.434,0.102
7.784,-0.980,-0.436,0.104
7.794,-0.979,-0.438,0.102
7.804,-0.975,-0.436,0.104
7.814,-0.979,-0.434,0.104
7.824,-0.979,-0.436,0.104
7.834,-0.977,-0.434,0.104
7.843,-0.977,-0.436,0.105
7.853,-0.979,-0.439,0.102
7.863,-0.980,-0.439,0.104
7.873,-0.982,-0.434,0.102
7.883,-0.988,-0.430,0.107
7.893,-0.986,-0.430,0.105
7.903,-0.982,-0.434,0.107
7.913,-0.979,-0.432,0.109
7.923,-0.973,-0.430,0.113
7.933,-0.973,-0.428,0.117
7.943,-0.971,-0.436,0.117
7.953,-0.973,-0.447,0.115
7.963,-0.975,-0.457,0.113
7.972,-0.973,-0.449,0.115
7.982,-0.979,-0.439,0.119
7.992,-0.980,-0.430,0.117
8.002,-0.982,-0.434,0.117
8.012,-0.979,-0.432,0.115
8.022,-0.975,-0.432,0.115
8.032,-0.973,-0.432,0.109
8.042,-0.973,-0.432,0.109
8.052,-0.973,-0.434,0.113
8.062,-0.975,-0.432,0.113
8.072,-0.977,-0.432,0.109
8.082,-0.980,-0.428,0.107
8.092,-0.979,-0.428,0.107
8.101,-0.982,-0.434,0.111
8.111,-0.984,-0.438,0.109
8.121,-0.980,-0.438,0.107
8.131,-0.977,-0.441,0.104
8.141,-0.975,-0.441,0.107
8.151,-0.979,-0.432,0.111
8.161,-0.980,-0.430,0.105
8.171,-0.979,-0.434,0.107
8.181,-0.977,-0.438,0.104
8.191,-0.977,-0.443,0.107
8.201,-0.975,-0.443,0.107
8.211,-0.979,-0.438,0.105
8.221,-0.980,-0.438,0.107
8.230,-0.977,-0.432,0.105
8.240,-0.979,-0.432,0.111
8.250,-0.975,-0.430,0.109
8.260,-0.977,-0.436,0.111
8.270,-0.977,-0.434,0.109
8.280,-0.979,-0.439,0.107
8.290,-0.977,-0.441,0.109
8.300,-0.975,-0.443,0.109
8.310,-0.977,-0.441,0.105
8.320,-0.975,-0.436,0.111
8.330,-0.979,-0.436,0.109
8.340,-0.982,-0.436,0.105
8.350,-0.982,-0.439,0.102
8.359,-0.979,-0.439,0.102
8.369,-0.980,-0.439,0.104
8.379,-0.973,-0.438,0.098
8.389,-0.975,-0.439,0.104
8.399,-0.975,-0.432,0.104
8.409,-0.980,-0.436,0.100
8.419,-0.979,-0.436,0.102
8.429,-0.977,-0.436,0.102
8.439,-0.980,-0.432,0.100
8.449,-0.990,-0.432,0.105
8.459,-0.982,-0.436,0.107
8.469,-0.982,-0.445,0.105
8.479,-0.982,-0.438,0.105
8.489,-0.979,-0.426,0.109
8.498,-0.979,-0.426,0.113
8.508,-0.979,-0.434,0.113
8.518,-0.975,-0.445,0.113
8.528,-0.973,-0.449,0.111
8.538,-0.971,-0.443,0.115
8.548,-0.975,-0.439,0.117
8.558,-0.980,-0.434,0.115
8.568,-0.980,-0.436,0.113
8.578,-0.977,-0.434,0.113
8.588,-0.973,-0.432,0.115
8.598,-0.973,-0.434,0.113
8.608,-0.971,-0.438,0.109
8.618,-0.971,-0.434,0.109
8.627,-0.971,-0.432,0.107
8.637,-0.977,-0.434,0.105
8.647,-0.982,-0.432,0.109
8.657,-0.990,-0.434,0.105
8.667,-0.988,-0.432,0.105
8.677,-0.984,-0.436,0.107
8.687,-0.984,-0.441,0.104
8.697,-0.984,-0.443,0.105
8.707,-0.979,-0.438,0.105
8.717,-0.977,-0.436,0.111
8.727,-0.971,-0.434,0.109
8.737,-0.973,-0.438,0.109
8.747,-0.967,-0.439,0.109
8.756,-0.967,-0.441,0.109
8.766,-0.973,-0.439,0.105
8.776,-0.975,-0.439,0.109
8.786,-0.977,-0.439,0.111
8.796,-0.980,-0.441,0.109
8.806,-0.980,-0.436,0.107
8.816,-0.982,-0.434,0.107
8.826,-0.984,-0.434,0.109
8.836,-0.982,-0.438,0.109
8.846,-0.975,-0.438,0.109
8.856,-0.973,-0.434,0.111
8.866,-0.977,-0.436,0.105
8.876,-0.977,-0.436,0.107
8.885,-0.980,-0.434,0.105
8.895,-0.984,-0.436,0.105
8.905,-0.977,-0.438,0.107
8.915,-0.980,-0.441,0.105
8.925,-0.979,-0.438,0.104
8.935,-0.975,-0.432,0.107
8.945,-0.973,-0.434,0.105
8.955,-0.973,-0.434,0.105
8.965,-0.975,-0.438,0.102
8.975,-0.975,-0.438,0.105
8.985,-0.977,-0.439,0.100
8.995,-0.980,-0.438,0.104
9.005,-0.982,-0.439,0.102
9.014,-0.980,-0.441,0.104
9.024,-0.980,-0.436,0.105
9.034,-0.980,-0.430,0.107
9.044,-0.984,-0.436,0.113
9.054,-0.979,-0.439,0.105
9.064,-0.979,-0.439,0.105
9.074,-0.979,-0.432,0.113
9.084,-0.975,-0.428,0.113
9.094,-0.973,-0.438,0.111
9.104,-0.973,-0.443,0.111
9.114,-0.969,-0.449,0.109
9.124,-0.967,-0.447,0.109
9.134,-0.975,-0.443,0.113
9.143,-0.979,-0.438,0.111
9.153,-0.982,-0.432,0.109
9.163,-0.982,-0.436,0.109
9.173,-0.979,-0.432,0.107
9.183,-0.982,-0.432,0.104
9.193,-0.975,-0.434,0.102
9.203,-0.979,-0.434,0.104
9.213,-0.977,-0.436,0.098
9.223,-0.979,-0.436,0.100
9.233,-0.979,-0.434,0.098
9.243,-0.982,-0.432,0.104
9.253,-0.984,-0.430,0.102
9.263,-0.984,-0.432,0.105
9.273,-0.986,-0.438,0.104
9.282,-0.980,-0.441,0.107
9.292,-0.979,-0.438,0.105
9.302,-0.977,-0.436,0.107
9.312,-0.973,-0.434,0.105
9.322,-0.975,-0.439,0.105
9.332,-0.969,-0.443,0.105
9.342,-0.969,-0.445,0.104
9.352,-0.969,-0.443,0.105
9.362,-0.975,-0.445,0.105
9.372,-0.979,-0.436,0.104
9.382,-0.979,-0.436,0.109
9.392,-0.982,-0.434,0.109
9.402,-0.980,-0.432,0.104
9.411,-0.982,-0.438,0.109
9.421,-0.977,-0.436,0.107
9.431,-0.977,-0.439,0.105
9.441,-0.979,-0.438,0.105
9.451,-0.975,-0.441,0.105
9.461,-0.977,-0.438,0.104
9.471,-0.979,-0.436,0.105
9.481,-0.975,-0.436,0.104
9.491,-0.975,-0.434,0.105
9.501,-0.975,-0.438,0.107
9.511,-0.975,-0.438,0.102
9.521,-0.977,-0.436,0.104
9.531,-0.977,-0.434,0.104
9.540,-0.979,-0.436,0.107
9.550,-0.977,-0.436,0.102
9.560,-0.980,-0.436,0.104
9.570,-0.980,-0.434,0.102
9.580,-0.979,-0.439,0.104
9.590,-0.980,-0.438,0.104
9.600,-0.980,-0.443,0.105
9.610,-0.979,-0.439,0.104
9.620,-0.973,-0.436,0.105
9.630,-0.977,-0.438,0.105
9.640,-0.977,-0.438,0.104
9.650,-0.977,-0.436,0.107
9.660,-0.982,-0.434,0.107
9.669,-0.977,-0.438,0.105
9.679,-0.977,-0.436,0.107
9.689,-0.980,-0.432,0.107
9.699,-0.979,-0.436,0.107
9.709,-0.977,-0.443,0.104
9.719,-0.975,-0.438,0.105
9.729,-0.975,-0.426,0.111
9.739,-0.977,-0.430,0.111
9.749,-0.973,-0.439,0.111
9.759,-0.971,-0.451,0.104
9.769,-0.971,-0.449,0.107
9.779,-0.973,-0.441,0.104
9.789,-0.979,-0.432,0.107
9.798,-0.984,-0.432,0.102
9.808,-0.986,-0.432,0.104
9.818,-0.986,-0.432,0.104
9.828,-0.982,-0.436,0.102
9.838,-0.977,-0.436,0.098
9.848,-0.975,-0.436,0.094
9.858,-0.977,-0.436,0.096
9.868,-0.977,-0.436,0.090
9.878,-0.982,-0.434,0.092
9.888,-0.982,-0.430,0.094
9.898,-0.986,-0.428,0.094
9.908,-0.984,-0.432,0.094
9.918,-0.984,-0.434,0.096
9.927,-0.979,-0.436,0.100
9.937,-0.980,-0.438,0.098
9.947,-0.975,-0.439,0.102
9.957,-0.973,-0.438,0.102
9.967,-0.977,-0.438,0.102
9.977,-0.973,-0.438,0.102
9.987,-0.973,-0.439,0.102
9.997,-0.975,-0.439,0.102
10.007,-0.977,-0.439,0.107
10.017,-0.982,-0.436,0.104
10.027,-0.982,-0.436,0.105
10.037,-0.984,-0.436,0.105
10.047,-0.980,-0.438,0.105
10.056,-0.982,-0.439,0.104
10.066,-0.977,-0.438,0.102
10.076,-0.977,-0.436,0.104
10.086,-0.977,-0.438,0.105
10.096,-0.977,-0.436,0.104
10.106,-0.977,-0.439,0.105
10.116,-0.980,-0.436,0.104
10.126,-0.979,-0.434,0.104
10.136,-0.977,-0.434,0.105
10.146,-0.979,-0.432,0.102
10.156,-0.977,-0.438,0.100
10.166,-0.980,-0.432,0.104
10.176,-0.980,-0.436,0.102
10.186,-0.979,-0.439,0.102
10.195,-0.977,-0.439,0.100
10.205,-0.975,-0.436,0.100
10.215,-0.979,-0.434,0.105
10.225,-0.982,-0.432,0.105
10.235,-0.984,-0.432,0.104
10.245,-0.982,-0.434,0.104
10.255,-0.982,-0.439,0.105
10.265,-0.975,-0.439,0.104
10.275,-0.975,-0.441,0.105
10.285,-0.977,-0.438,0.105
10.295,-0.982,-0.434,0.109
10.305,-0.980,-0.434,0.102
10.315,-0.977,-0.432,0.104
10.324,-0.979,-0.432,0.102
10.334,-0.980,-0.436,0.107
10.344,-0.979,-0.436,0.105
10.354,-0.977,-0.434,0.104
10.364,-0.982,-0.436,0.109
10.374,-0.982,-0.438,0.104
10.384,-0.979,-0.439,0.102
10.394,-0.977,-0.432,0.102
10.404,-0.982,-0.426,0.107
10.414,-0.980,-0.422,0.107
10.424,-0.977,-0.432,0.105
10.434,-0.975,-0.443,0.105
10.444,-0.979,-0.449,0.098
10.453,-0.982,-0.441,0.105
10.463,-0.982,-0.432,0.104
10.473,-0.984,-0.432,0.102
10.483,-0.982,-0.434,0.105
10.493,-0.980,-0.434,0.102
10.503,-0.977,-0.432,0.104
10.513,-0.973,-0.436,0.100
10.523,-0.973,-0.434,0.100
10.533,-0.973,-0.436,0.102
10.543,-0.975,-0.436,0.100
10.553,-0.979,-0.434,0.102
10.563,-0.984,-0.436,0.098
10.573,-0.984,-0.434,0.102
10.582,-0.982,-0.436,0.100
10.592,-0.986,-0.432,0.104
10.602,-0.986,-0.438,0.104
10.612,-0.984,-0.439,0.100
10.622,-0.980,-0.438,0.107
10.632,-0.979,-0.432,0.109
10.642,-0.977,-0.430,0.107
10.652,-0.969,-0.434,0.107
10.662,-0.969,-0.439,0.105
10.672,-0.967,-0.441,0.105
10.682,-0.971,-0.436,0.104
10.692,-0.977,-0.436,0.109
10.702,-0.980,-0.438,0.105
10.711,-0.980,-0.430,0.109
10.721,-0.986,-0.430,0.107
10.731,-0.982,-0.432,0.104
10.741,-0.986,-0.434,0.104
10.751,-0.980,-0.434,0.105
10.761,-0.979,-0.438,0.105
10.771,-0.973,-0.441,0.105
10.781,-0.975,-0.438,0.105
10.791,-0.977,-0.434,0.105
10.801,-0.982,-0.432,0.104
10.811,-0.982,-0.436,0.104
10.821,-0.980,-0.434,0.102
10.831,-0.979,-0.439,0.102
10.840,-0.979,-0.439,0.102
10.850,-0.977,-0.438,0.100
10.860,-0.977,-0.439,0.102
10.870,-0.977,-0.438,0.100
10.880,-0.979,-0.436,0.102
10.890,-0.975,-0.436,0.102
10.900,-0.979,-0.438,0.102
10.910,-0.975,-0.436,0.102
10.920,-0.979,-0.438,0.107
10.930,-0.980,-0.436,0.104
10.940,-0.982,-0.439,0.102
10.950,-0.979,-0.441,0.105
10.960,-0.977,-0.439,0.105
10.970,-0.977,-0.436,0.105
10.979,-0.977,-0.434,0.107
10.989,-0.975,-0.434,0.109
10.999,-0.977,-0.436,0.111
11.009,-0.973,-0.438,0.109
11.019,-0.973,-0.438,0.111
11.029,-0.979,-0.439,0.109
11.039,-0.980,-0.439,0.107
11.049,-0.980,-0.438,0.105
11.059,-0.979,-0.434,0.105
11.069,-0.977,-0.438,0.105
11.079,-0.979,-0.436,0.104
11.089,-0.977,-0.438,0.104
11.099,-0.977,-0.438,0.105
11.108,-0.979,-0.443,0.107
11.118,-0.977,-0.438,0.107
11.128,-0.975,-0.428,0.107
11.138,-0.977,-0.428,0.111
11.148,-0.982,-0.438,0.105
11.158,-0.977,-0.449,0.104
11.168,-0.975,-0.457,0.102
11.178,-0.973,-0.449,0.104
11.188,-0.977,-0.441,0.102
11.198,-0.984,-0.436,0.104
11.208,-0.982,-0.436,0.102
11.218,-0.984,-0.432,0.100
11.228,-0.980,-0.436,0.102
11.237,-0.980,-0.438,0.098
11.247,-0.975,-0.436,0.098
11.257,-0.977,-0.439,0.096
11.267,-0.975,-0.434,0.098
11.277,-0.971,-0.439,0.100
11.287,-0.977,-0.439,0.098
11.297,-0.980,-0.436,0.100
11.307,-0.980,-0.432,0.098
11.317,-0.984,-0.432,0.102
11.327,-0.979,-0.434,0.104
11.337,-0.980,-0.438,0.100
11.347,-0.977,-0.443,0.096
11.357,-0.977,-0.445,0.105
11.366,-0.979,-0.439,0.105
11.376,-0.977,-0.438,0.104
11.386,-0.977,-0.438,0.107
11.396,-0.973,-0.441,0.104
11.406,-0.973,-0.439,0.105
11.416,-0.973,-0.443,0.109
11.426,-0.975,-0.439,0.104
11.436,-0.979,-0.438,0.105
11.446,-0.980,-0.436,0.105
11.456,-0.982,-0.436,0.107
11.466,-0.980,-0.438,0.105
11.476,-0.979,-0.443,0.105
11.486,-0.979,-0.445,0.104
11.495,-0.975,-0.441,0.104
11.505,-0.971,-0.439,0.104
11.515,-0.971,-0.438,0.105
11.525,-0.975,-0.432,0.104
11.535,-0.975,-0.434,0.102
11.545,-0.980,-0.438,0.104
11.555,-0.980,-0.439,0.102
11.565,-0.979,-0.439,0.100
11.575,-0.980,-0.441,0.102
11.585,-0.979,-0.439,0.100
11.595,-0.979,-0.439,0.102
11.605,-0.980,-0.441,0.100
11.615,-0.973,-0.438,0.104
11.624,-0.973,-0.436,0.104
11.634,-0.977,-0.436,0.100
11.644,-0.980,-0.439,0.107
11.654,-0.980,-0.439,0.104
11.664,-0.980,-0.439,0.100
11.674,-0.980,-0.438,0.100
11.684,-0.979,-0.439,0.102
11.694,-0.979,-0.438,0.104
11.704,-0.973,-0.441,0.105
11.714,-0.977,-0.441,0.105
11.724,-0.973,-0.438,0.105
11.734,-0.973,-0.434,0.107
11.744,-0.977,-0.434,0.102
11.753,-0.980,-0.436,0.102
11.763,-0.979,-0.439,0.102
11.773,-0.980,-0.443,0.102
11.783,-0.979,-0.441,0.104
11.793,-0.980,-0.438,0.105
11.803,-0.979,-0.434,0.104
11.813,-0.980,-0.434,0.102
11.823,-0.979,-0.441,0.104
11.833,-0.977,-0.436,0.105
11.843,-0.977,-0.436,0.104
11.853,-0.977,-0.439,0.107
11.863,-0.975,-0.443,0.104
11.873,-0.969,-0.451,0.105
11.883,-0.967,-0.451,0.102
11.892,-0.973,-0.443,0.107
11.902,-0.977,-0.439,0.107
11.912,-0.980,-0.436,0.104
11.922,-0.984,-0.432,0.100
11.932,-0.980,-0.436,0.102
11.942,-0.980,-0.438,0.100
11.952,-0.977,-0.438,0.098
11.962,-0.977,-0.439,0.096
11.972,-0.973,-0.438,0.100
11.982,-0.973,-0.436,0.100
11.992,-0.980,-0.436,0.100
12.002,-0.980,-0.432,0.098
12.012,-0.982,-0.434,0.102
12.021,-0.984,-0.436,0.100
12.031,-0.984,-0.438,0.105
12.041,-0.979,-0.439,0.102
12.051,-0.975,-0.443,0.102
12.061,-0.975,-0.447,0.102
12.071,-0.975,-0.441,0.105
12.081,-0.973,-0.436,0.107
12.091,-0.975,-0.432,0.105
12.101,-0.973,-0.438,0.105
12.111,-0.971,-0.443,0.105
12.121,-0.973,-0.441,0.100
12.131,-0.979,-0.439,0.105
12.141,-0.979,-0.439,0.105
12.150,-0.979,-0.436,0.105
12.160,-0.979,-0.438,0.104
12.170,-0.980,-0.438,0.107
12.180,-0.980,-0.439,0.104
12.190,-0.977,-0.441,0.105
12.200,-0.977,-0.441,0.104
12.210,-0.975,-0.447,0.105
12.220,-0.971,-0.443,0.104
12.230,-0.973,-0.441,0.105
12.240,-0.973,-0.438,0.104
12.250,-0.973,-0.438,0.104
12.260,-0.975,-0.438,0.100
12.270,-0.973,-0.436,0.102
12.279,-0.977,-0.439,0.102
12.289,-0.977,-0.441,0.102
12.299,-0.979,-0.439,0.102
12.309,-0.979,-0.445,0.100
12.319,-0.980,-0.441,0.098
12.329,-0.977,-0.443,0.100
12.339,-0.975,-0.438,0.100
12.349,-0.975,-0.438,0.100
12.359,-0.977,-0.436,0.100
12.369,-0.980,-0.438,0.100
12.379,-0.980,-0.439,0.098
12.389,-0.977,-0.443,0.100
12.399,-0.979,-0.441,0.102
12.408,-0.982,-0.445,0.104
12.418,-0.973,-0.443,0.102
12.428,-0.973,-0.438,0.104
12.438,-0.975,-0.438,0.104
12.448,-0.973,-0.432,0.104
12.458,-0.977,-0.441,0.104
12.468,-0.979,-0.439,0.102
12.478,-0.979,-0.438,0.104
12.488,-0.980,-0.436,0.102
12.498,-0.980,-0.436,0.105
12.508,-0.979,-0.445,0.104
12.518,-0.977,-0.441,0.102
12.528,-0.977,-0.434,0.107
12.537,-0.973,-0.432,0.107
12.547,-0.973,-0.438,0.107
12.557,-0.973,-0.449,0.105
12.567,-0.973,-0.455,0.105
12.577,-0.971,-0.457,0.105
12.587,-0.973,-0.451,0.105
12.597,-0.975,-0.443,0.104
12.607,-0.982,-0.439,0.104
12.617,-0.979,-0.438,0.104
12.627,-0.977,-0.436,0.105
12.637,-0.977,-0.434,0.100
12.647,-0.977,-0.438,0.100
12.657,-0.975,-0.443,0.096
12.667,-0.971,-0.441,0.098
12.676,-0.975,-0.445,0.102
12.686,-0.977,-0.441,0.098
12.696,-0.982,-0.439,0.098
12.706,-0.984,-0.434,0.100
12.716,-0.982,-0.436,0.102
12.726,-0.982,-0.438,0.104
12.736,-0.980,-0.439,0.100
12.746,-0.977,-0.449,0.102
12.756,-0.973,-0.445,0.102
12.766,-0.971,-0.441,0.105
12.776,-0.969,-0.439,0.107
12.786,-0.975,-0.441,0.105
12.796,-0.973,-0.443,0.102
12.805,-0.975,-0.447,0.102
12.815,-0.980,-0.449,0.105
12.825,-0.977,-0.443,0.104
12.835,-0.979,-0.439,0.104
12.845,-0.977,-0.436,0.104
12.855,-0.980,-0.434,0.105
12.865,-0.980,-0.438,0.104
12.875,-0.979,-0.441,0.104
12.885,-0.980,-0.447,0.102
12.895,-0.975,-0.447,0.102
12.905,-0.975,-0.441,0.104
12.915,-0.973,-0.441,0.102
12.925,-0.971,-0.439,0.104
12.934,-0.975,-0.441,0.102
12.944,-0.975,-0.439,0.100
12.954,-0.980,-0.441,0.100
12.964,-0.977,-0.445,0.096
12.974,-0.977,-0.443,0.098
12.984,-0.971,-0.441,0.098
12.994,-0.973,-0.443,0.098
13.004,-0.975,-0.443,0.100
13.014,-0.979,-0.441,0.098
13.024,-0.979,-0.441,0.102
13.034,-0.979,-0.436,0.100
13.044,-0.979,-0.438,0.098
13.054,-0.982,-0.443,0.102
13.063,-0.977,-0.439,0.098
13.073,-0.975,-0.447,0.102
13.083,-0.979,-0.449,0.102
13.093,-0.975,-0.445,0.102
13.103,-0.977,-0.441,0.105
13.113,-0.977,-0.441,0.102
13.123,-0.979,-0.438,0.104
13.133,-0.979,-0.441,0.102
13.143,-0.980,-0.441,0.105
13.153,-0.977,-0.436,0.104
13.163,-0.977,-0.428,0.105
13.173,-0.977,-0.432,0.104
13.183,-0.979,-0.438,0.102
13.192,-0.975,-0.441,0.104
13.202,-0.977,-0.441,0.104
13.212,-0.975,-0.436,0.107
13.222,-0.975,-0.438,0.107
13.232,-0.975,-0.447,0.107
13.242,-0.973,-0.457,0.105
13.252,-0.973,-0.459,0.105
13.262,-0.971,-0.451,0.105
13.272,-0.969,-0.443,0.109
13.282,-0.975,-0.441,0.109
13.292,-0.973,-0.439,0.105
13.302,-0.975,-0.441,0.104
13.312,-0.973,-0.443,0.100
13.321,-0.973,-0.447,0.104
13.331,-0.973,-0.449,0.096
13.341,-0.971,-0.443,0.096
13.351,-0.971,-0.438,0.102
13.361,-0.980,-0.436,0.098
13.371,-0.984,-0.438,0.098
13.381,-0.984,-0.436,0.096
13.391,-0.982,-0.434,0.102
13.401,-0.982,-0.441,0.104
13.411,-0.979,-0.441,0.102
13.421,-0.975,-0.447,0.104
13.431,-0.975,-0.447,0.105
13.441,-0.971,-0.441,0.104
13.450,-0.969,-0.434,0.107
13.460,-0.971,-0.434,0.107
13.470,-0.969,-0.441,0.107
13.480,-0.969,-0.447,0.104
13.490,-0.973,-0.445,0.107
13.500,-0.977,-0.443,0.107
13.510,-0.980,-0.439,0.104
13.520,-0.982,-0.439,0.104
13.530,-0.980,-0.439,0.105
13.540,-0.980,-0.438,0.105
13.550,-0.977,-0.443,0.105
13.560,-0.977,-0.445,0.109
13.570,-0.975,-0.447,0.105
13.580,-0.975,-0.445,0.107
13.589,-0.973,-0.449,0.102
13.599,-0.971,-0.445,0.102
13.609,-0.973,-0.445,0.102
13.619,-0.971,-0.441,0.096
13.629,-0.971,-0.441,0.104
13.639,-0.971,-0.438,0.102
13.649,-0.979,-0.441,0.105
13.659,-0.979,-0.441,0.098
13.669,-0.973,-0.439,0.105
13.679,-0.977,-0.443,0.102
13.689,-0.979,-0.439,0.102
13.699,-0.977,-0.441,0.107
13.709,-0.977,-0.447,0.102
13.718,-0.977,-0.449,0.102
13.728,-0.973,-0.447,0.105
13.738,-0.975,-0.445,0.107
13.748,-0.975,-0.447,0.105
13.758,-0.975,-0.443,0.104
13.768,-0.975,-0.445,0.107
13.778,-0.977,-0.441,0.104
13.788,-0.973,-0.439,0.104
13.798,-0.975,-0.436,0.105
13.808,-0.975,-0.430,0.107
13.818,-0.977,-0.436,0.107
13.828,-0.971,-0.439,0.107
13.838,-0.969,-0.443,0.107
13.847,-0.971,-0.445,0.105
13.857,-0.973,-0.443,0.111
13.867,-0.973,-0.451,0.107
13.877,-0.979,-0.451,0.105
13.887,-0.979,-0.455,0.104
13.897,-0.979,-0.453,0.107
13.907,-0.977,-0.441,0.107
13.917,-0.979,-0.436,0.107
13.927,-0.975,-0.438,0.105
13.937,-0.973,-0.445,0.104
13.947,-0.967,-0.445,0.104
13.957,-0.965,-0.449,0.102
13.967,-0.969,-0.453,0.104
13.976,-0.971,-0.447,0.102
13.986,-0.975,-0.439,0.100
13.996,-0.977,-0.438,0.105
14.006,-0.980,-0.436,0.102
14.016,-0.982,-0.439,0.104
14.026,-0.980,-0.439,0.105
14.036,-0.977,-0.447,0.105
14.046,-0.977,-0.447,0.102
14.056,-0.975,-0.447,0.102
14.066,-0.975,-0.449,0.104
14.076,-0.973,-0.445,0.104
14.086,-0.973,-0.438,0.105
14.096,-0.973,-0.438,0.104
14.105,-0.973,-0.436,0.105
14.115,-0.971,-0.445,0.102
14.125,-0.971,-0.451,0.104
14.135,-0.971,-0.451,0.104
14.145,-0.979,-0.445,0.105
14.155,-0.980,-0.438,0.104
14.165,-0.982,-0.439,0.104
14.175,-0.982,-0.438,0.104
14.185,-0.979,-0.441,0.105
14.195,-0.975,-0.445,0.104
14.205,-0.977,-0.449,0.104
14.215,-0.969,-0.445,0.104
14.225,-0.973,-0.445,0.104
14.234,-0.971,-0.441,0.102
14.244,-0.975,-0.441,0.104
14.254,-0.977,-0.439,0.105
14.264,-0.979,-0.441,0.105
14.274,-0.977,-0.445,0.105
14.284,-0.973,-0.449,0.105
14.294,-0.971,-0.449,0.102
14.304,-0.977,-0.443,0.105
14.314,-0.975,-0.443,0.100
14.324,-0.977,-0.445,0.098
14.334,-0.975,-0.447,0.100
14.344,-0.975,-0.443,0.102
14.354,-0.973,-0.447,0.104
14.364,-0.977,-0.447,0.102
14.373,-0.977,-0.447,0.104
14.383,-0.977,-0.441,0.100
14.393,-0.977,-0.443,0.104
14.403,-0.975,-0.441,0.104
14.413,-0.977,-0.438,0.104
14.423,-0.980,-0.434,0.107
14.433,-0.977,-0.438,0.107
14.443,-0.973,-0.445,0.104
14.453,-0.973,-0.445,0.104
14.463,-0.973,-0.436,0.109
14.473,-0.973,-0.438,0.109
14.483,-0.979,-0.439,0.111
14.493,-0.973,-0.443,0.107
14.502,-0.975,-0.449,0.105
14.512,-0.973,-0.451,0.105
14.522,-0.975,-0.445,0.107
14.532,-0.979,-0.441,0.105
14.542,-0.977,-0.439,0.105
14.552,-0.979,-0.441,0.104
14.562,-0.977,-0.443,0.100
14.572,-0.975,-0.445,0.102
14.582,-0.973,-0.443,0.100
14.592,-0.971,-0.445,0.096
14.602,-0.975,-0.443,0.100
14.612,-0.975,-0.439,0.094
14.622,-0.980,-0.441,0.098
14.631,-0.980,-0.441,0.096
14.641,-0.982,-0.441,0.096
14.651,-0.984,-0.443,0.100
14.661,-0.984,-0.441,0.100
14.671,-0.979,-0.449,0.100
14.681,-0.977,-0.449,0.098
14.691,-0.975,-0.445,0.102
14.701,-0.969,-0.438,0.104
14.711,-0.969,-0.434,0.107
14.721,-0.971,-0.436,0.111
14.731,-0.967,-0.443,0.104
14.741,-0.973,-0.453,0.102
14.751,-0.973,-0.455,0.102
14.760,-0.977,-0.447,0.102
14.770,-0.979,-0.441,0.104
14.780,-0.980,-0.436,0.105
14.790,-0.977,-0.438,0.102
14.800,-0.975,-0.434,0.105
14.810,-0.979,-0.436,0.104
14.820,-0.977,-0.439,0.102
14.830,-0.975,-0.443,0.102
14.840,-0.971,-0.447,0.104
14.850,-0.973,-0.443,0.100
14.860,-0.975,-0.445,0.100
14.870,-0.973,-0.439,0.104
14.880,-0.975,-0.441,0.102
14.889,-0.977,-0.439,0.104
14.899,-0.980,-0.438,0.098
14.909,-0.980,-0.443,0.098
14.919,-0.975,-0.443,0.098
14.929,-0.973,-0.447,0.102
14.939,-0.973,-0.447,0.100
14.949,-0.973,-0.443,0.098
14.959,-0.975,-0.441,0.100
14.969,-0.973,-0.441,0.100
14.979,-0.977,-0.441,0.100
14.989,-0.980,-0.447,0.104
14.999,-0.977,-0.447,0.100
15.009,-0.980,-0.447,0.096
15.018,-0.977,-0.443,0.102
15.028,-0.975,-0.441,0.104
15.038,-0.977,-0.443,0.104
15.048,-0.975,-0.443,0.100
15.058,-0.980,-0.441,0.102
15.068,-0.979,-0.441,0.102
15.078,-0.975,-0.439,0.104
15.088,-0.973,-0.445,0.104
15.098,-0.971,-0.441,0.105
15.108,-0.975,-0.439,0.107
15.118,-0.975,-0.436,0.107
15.128,-0.979,-0.439,0.105
15.138,-0.979,-0.445,0.109
15.147,-0.973,-0.455,0.104
15.157,-0.969,-0.455,0.104
15.167,-0.969,-0.451,0.105
15.177,-0.969,-0.439,0.104
15.187,-0.979,-0.438,0.107
15.197,-0.980,-0.441,0.102
15.207,-0.980,-0.445,0.100
15.217,-0.973,-0.447,0.102
15.227,-0.971,-0.447,0.100
15.237,-0.975,-0.441,0.098
15.247,-0.971,-0.441,0.096
15.257,-0.971,-0.443,0.092
15.267,-0.977,-0.441,0.098
15.277,-0.980,-0.438,0.096
15.286,-0.980,-0.436,0.100
15.296,-0.979,-0.439,0.102
15.306,-0.977,-0.441,0.100
15.316,-0.969,-0.439,0.102
15.326,-0.975,-0.443,0.102
15.336,-0.979,-0.449,0.096
15.346,-0.980,-0.447,0.100
15.356,-0.979,-0.441,0.102
15.366,-0.977,-0.439,0.104
15.376,-0.969,-0.439,0.104
15.386,-0.965,-0.445,0.104
15.396,-0.965,-0.453,0.102
15.406,-0.975,-0.449,0.100
15.415,-0.973,-0.441,0.107
15.425,-0.975,-0.438,0.104
15.435,-0.982,-0.438,0.104
15.445,-0.980,-0.439,0.102
15.455,-0.977,-0.441,0.102
15.465,-0.982,-0.445,0.104
15.475,-0.977,-0.447,0.096
15.485,-0.975,-0.447,0.096
15.495,-0.975,-0.445,0.100
15.505,-0.971,-0.441,0.102
15.515,-0.967,-0.438,0.100
15.525,-0.971,-0.439,0.104
15.535,-0.975,-0.439,0.100
15.544,-0.975,-0.443,0.100
15.554,-0.977,-0.443,0.098
15.564,-0.975,-0.443,0.100
15.574,-0.977,-0.447,0.098
15.584,-0.979,-0.449,0.098
15.594,-0.973,-0.447,0.096
15.604,-0.977,-0.443,0.102
15.614,-0.979,-0.445,0.100
15.624,-0.977,-0.439,0.100
15.634,-0.973,-0.441,0.102
15.644,-0.973,-0.441,0.100
15.654,-0.977,-0.441,0.104
15.664,-0.977,-0.443,0.104
15.673,-0.977,-0.443,0.104
15.683,-0.979,-0.443,0.102
15.693,-0.980,-0.443,0.100
15.703,-0.977,-0.449,0.102
15.713,-0.971,-0.447,0.102
15.723,-0.969,-0.443,0.105
15.733,-0.973,-0.443,0.102
15.743,-0.971,-0.441,0.105
15.753,-0.977,-0.439,0.102
15.763,-0.980,-0.443,0.104
15.773,-0.979,-0.443,0.102
15.783,-0.979,-0.441,0.102
15.793,-0.980,-0.439,0.102
15.802,-0.977,-0.441,0.102
15.812,-0.975,-0.447,0.105
15.822,-0.975,-0.443,0.107
15.832,-0.973,-0.441,0.107
15.842,-0.975,-0.441,0.107
15.852,-0.973,-0.443,0.111
15.862,-0.969,-0.453,0.105
15.872,-0.969,-0.459,0.105
15.882,-0.967,-0.455,0.104
15.892,-0.969,-0.443,0.104
15.902,-0.975,-0.439,0.102
15.912,-0.984,-0.441,0.102
15.922,-0.982,-0.445,0.100
15.931,-0.979,-0.445,0.098
15.941,-0.975,-0.439,0.096
15.951,-0.979,-0.443,0.098
15.961,-0.975,-0.439,0.096
15.971,-0.971,-0.439,0.094
15.981,-0.975,-0.439,0.094
15.991,-0.979,-0.441,0.096
16.001,-0.982,-0.441,0.096
16.011,-0.986,-0.439,0.092
16.021,-0.979,-0.441,0.102
16.031,-0.980,-0.443,0.098
16.041,-0.980,-0.445,0.102
16.051,-0.975,-0.449,0.102
16.061,-0.973,-0.447,0.100
16.070,-0.973,-0.439,0.102
16.080,-0.973,-0.438,0.107
16.090,-0.973,-0.441,0.104
16.100,-0.973,-0.443,0.105
16.110,-0.971,-0.451,0.105
16.120,-0.969,-0.451,0.105
16.130,-0.973,-0.451,0.104
16.140,-0.971,-0.449,0.104
16.150,-0.973,-0.447,0.104
16.160,-0.977,-0.443,0.105
16.170,-0.979,-0.443,0.104
16.180,-0.979,-0.443,0.107
16.190,-0.975,-0.439,0.102
16.199,-0.973,-0.443,0.104
16.209,-0.975,-0.443,0.102
16.219,-0.975,-0.443,0.104
16.229,-0.977,-0.447,0.102
16.239,-0.979,-0.445,0.104
16.249,-0.980,-0.449,0.100
16.259,-0.980,-0.443,0.102
16.269,-0.977,-0.443,0.102
16.279,-0.977,-0.445,0.100
16.289,-0.971,-0.447,0.098
16.299,-0.969,-0.445,0.100
16.309,-0.973,-0.441,0.100
16.319,-0.977,-0.439,0.100
16.328,-0.975,-0.443,0.100
16.338,-0.975,-0.445,0.102
16.348,-0.975,-0.443,0.102
16.358,-0.979,-0.443,0.102
16.368,-0.975,-0.443,0.104
16.378,-0.975,-0.447,0.104
16.388,-0.975,-0.443,0.102
16.398,-0.975,-0.441,0.104
16.408,-0.973,-0.441,0.104
16.418,-0.971,-0.441,0.102
16.428,-0.971,-0.443,0.104
16.438,-0.973,-0.445,0.104
16.448,-0.977,-0.441,0.100
16.457,-0.979,-0.443,0.102
16.467,-0.979,-0.447,0.100
16.477,-0.979,-0.449,0.098
16.487,-0.979,-0.443,0.100
16.497,-0.977,-0.443,0.102
16.507,-0.977,-0.439,0.100
16.517,-0.975,-0.439,0.102
16.527,-0.975,-0.439,0.104
16.537,-0.975,-0.441,0.102
16.547,-0.975,-0.441,0.102
16.557,-0.969,-0.447,0.104
16.567,-0.969,-0.445,0.104
16.577,-0.971,-0.449,0.105
16.586,-0.971,-0.451,0.105
16.596,-0.971,-0.459,0.100
16.606,-0.979,-0.459,0.100
16.616,-0.975,-0.451,0.100
16.626,-0.979,-0.436,0.104
16.636,-0.984,-0.438,0.107
16.646,-0.980,-0.441,0.104
16.656,-0.977,-0.441,0.104
16.666,-0.973,-0.447,0.100
16.676,-0.971,-0.449,0.100
16.686,-0.969,-0.449,0.100
16.696,-0.973,-0.451,0.098
16.706,-0.975,-0.445,0.100
16.715,-0.973,-0.441,0.100
16.725,-0.977,-0.439,0.102
16.735,-0.977,-0.441,0.104
16.745,-0.977,-0.439,0.104
16.755,-0.977,-0.443,0.102
16.765,-0.975,-0.443,0.107
16.775,-0.971,-0.445,0.105
16.785,-0.967,-0.451,0.105
16.795,-0.967,-0.447,0.105
16.805,-0.971,-0.443,0.111
16.815,-0.975,-0.443,0.105
16.825,-0.979,-0.445,0.105
16.835,-0.977,-0.455,0.105
16.844,-0.973,-0.451,0.100
16.854,-0.979,-0.445,0.105
16.864,-0.982,-0.441,0.102
16.874,-0.979,-0.438,0.102
16.884,-0.982,-0.438,0.102
16.894,-0.977,-0.441,0.102
16.904,-0.977,-0.445,0.105
16.914,-0.975,-0.445,0.105
16.924,-0.971,-0.449,0.105
16.934,-0.971,-0.447,0.104
16.944,-0.969,-0.447,0.105
16.954,-0.971,-0.447,0.105
16.964,-0.971,-0.445,0.104
16.974,-0.971,-0.441,0.100
16.983,-0.971,-0.441,0.100
16.993,-0.971,-0.443,0.104
17.003,-0.975,-0.441,0.100
17.013,-0.973,-0.447,0.102
17.023,-0.979,-0.449,0.096
17.033,-0.977,-0.453,0.102
17.043,-0.979,-0.451,0.100
17.053,-0.977,-0.445,0.098
17.063,-0.979,-0.445,0.102
17.073,-0.975,-0.447,0.100
17.083,-0.977,-0.447,0.102
17.093,-0.977,-0.449,0.100
17.103,-0.977,-0.449,0.100
17.112,-0.975,-0.445,0.104
17.122,-0.971,-0.445,0.105
17.132,-0.969,-0.443,0.105
17.142,-0.973,-0.445,0.107
17.152,-0.973,-0.447,0.107
17.162,-0.975,-0.453,0.104
17.172,-0.973,-0.449,0.102
17.182,-0.975,-0.449,0.105
17.192,-0.975,-0.445,0.107
17.202,-0.973,-0.439,0.107
17.212,-0.975,-0.434,0.105
17.222,-0.973,-0.436,0.109
17.232,-0.973,-0.447,0.107
17.241,-0.971,-0.449,0.104
17.251,-0.971,-0.445,0.105
17.261,-0.969,-0.443,0.104
17.271,-0.979,-0.457,0.107
17.281,-0.977,-0.451,0.100
17.291,-0.973,-0.451,0.102
17.301,-0.975,-0.455,0.100
17.311,-0.975,-0.447,0.104
17.321,-0.971,-0.439,0.104
17.331,-0.973,-0.441,0.104
17.341,-0.979,-0.445,0.102
17.351,-0.977,-0.449,0.096
17.361,-0.971,-0.447,0.098
17.370,-0.973,-0.453,0.096
17.380,-0.971,-0.449,0.100
17.390,-0.971,-0.447,0.098
17.400,-0.973,-0.443,0.098
17.410,-0.980,-0.445,0.100
17.420,-0.980,-0.441,0.098
17.430,-0.982,-0.449,0.098
17.440,-0.975,-0.445,0.102
17.450,-0.975,-0.447,0.104
17.460,-0.971,-0.449,0.105
17.470,-0.969,-0.447,0.105
17.480,-0.973,-0.453,0.102
17.490,-0.973,-0.451,0.105
17.499,-0.969,-0.443,0.107
17.509,-0.973,-0.439,0.102
17.519,-0.971,-0.441,0.104
17.529,-0.973,-0.449,0.102
17.539,-0.973,-0.451,0.102
17.549,-0.975,-0.445,0.104
17.559,-0.979,-0.445,0.105
17.569,-0.979,-0.439,0.107
17.579,-0.980,-0.439,0.104
17.589,-0.980,-0.439,0.109
17.599,-0.975,-0.443,0.104
17.609,-0.975,-0.447,0.111
17.619,-0.975,-0.447,0.104
17.628,-0.971,-0.451,0.104
17.638,-0.969,-0.449,0.105
17.648,-0.971,-0.443,0.102
17.658,-0.971,-0.439,0.107
17.668,-0.971,-0.445,0.104
17.678,-0.975,-0.443,0.102
17.688,-0.973,-0.443,0.102
17.698,-0.973,-0.443,0.105
17.708,-0.979,-0.447,0.102
17.718,-0.977,-0.449,0.102
17.728,-0.977,-0.451,0.100
17.738,-0.975,-0.449,0.104
17.748,-0.973,-0.443,0.104
17.758,-0.975,-0.443,0.102
17.767,-0.977,-0.445,0.104
17.777,-0.973,-0.443,0.105
17.787,-0.975,-0.445,0.107
17.797,-0.975,-0.443,0.104
17.807,-0.973,-0.443,0.107
17.817,-0.973,-0.451,0.107
17.827,-0.975,-0.447,0.107
17.837,-0.980,-0.449,0.105
17.847,-0.977,-0.447,0.105
17.857,-0.977,-0.445,0.105
17.867,-0.977,-0.445,0.105
17.877,-0.971,-0.438,0.104
17.887,-0.973,-0.432,0.105
17.896,-0.975,-0.434,0.105
17.906,-0.973,-0.439,0.105
17.916,-0.975,-0.451,0.104
17.926,-0.977,-0.451,0.104
17.936,-0.975,-0.443,0.105
17.946,-0.979,-0.443,0.107
17.956,-0.975,-0.441,0.109
17.966,-0.973,-0.451,0.105
17.976,-0.973,-0.459,0.102
17.986,-0.971,-0.455,0.104
17.996,-0.975,-0.449,0.105
18.006,-0.975,-0.443,0.102
18.016,-0.979,-0.443,0.102
18.025,-0.977,-0.441,0.098
18.035,-0.977,-0.445,0.098
18.045,-0.977,-0.443,0.100
18.055,-0.977,-0.441,0.100
18.065,-0.969,-0.441,0.100
18.075,-0.965,-0.439,0.096
18.085,-0.959,-0.436,0.100
18.095,-0.965,-0.436,0.102
18.105,-0.973,-0.436,0.098
18.115,-0.980,-0.441,0.102
18.125,-0.990,-0.451,0.102
18.135,-0.992,-0.451,0.102
18.145,-0.986,-0.449,0.105
18.154,-0.975,-0.453,0.107
18.164,-0.967,-0.453,0.104
18.174,-0.963,-0.445,0.109
18.184,-0.963,-0.441,0.115
18.194,-0.963,-0.441,0.105
18.204,-0.961,-0.445,0.105
18.214,-0.963,-0.449,0.105
18.224,-0.965,-0.455,0.096
18.234,-0.977,-0.455,0.094
18.244,-0.982,-0.447,0.088
18.254,-0.988,-0.443,0.092
18.264,-0.988,-0.438,0.086
18.274,-0.988,-0.436,0.088
18.283,-0.986,-0.438,0.088
18.293,-0.980,-0.438,0.088
18.303,-0.977,-0.441,0.092
18.313,-0.979,-0.447,0.088
18.323,-0.973,-0.451,0.088
18.333,-0.969,-0.453,0.092
18.343,-0.973,-0.453,0.090
18.353,-0.977,-0.449,0.090
18.363,-0.975,-0.445,0.090
18.373,-0.977,-0.445,0.094
18.383,-0.973,-0.445,0.092
18.393,-0.973,-0.447,0.094
18.403,-0.973,-0.447,0.096
18.412,-0.971,-0.445,0.094
18.422,-0.969,-0.447,0.098
18.432,-0.971,-0.445,0.098
18.442,-0.971,-0.445,0.098
18.452,-0.975,-0.445,0.098
18.462,-0.980,-0.449,0.102
18.472,-0.980,-0.449,0.098
18.482,-0.979,-0.449,0.100
18.492,-0.977,-0.447,0.100
18.502,-0.971,-0.445,0.100
18.512,-0.971,-0.449,0.104
18.522,-0.969,-0.451,0.100
18.532,-0.969,-0.445,0.100
18.541,-0.971,-0.443,0.100
18.551,-0.973,-0.447,0.098
18.561,-0.971,-0.443,0.096
18.571,-0.977,-0.441,0.098
18.581,-0.973,-0.439,0.098
18.591,-0.975,-0.447,0.100
18.601,-0.975,-0.447,0.098
18.611,-0.977,-0.441,0.098
18.621,-0.977,-0.441,0.104
18.631,-0.977,-0.445,0.102
18.641,-0.973,-0.449,0.100
18.651,-0.973,-0.455,0.100
18.661,-0.973,-0.461,0.096
18.671,-0.971,-0.455,0.098
18.680,-0.975,-0.445,0.096
18.690,-0.979,-0.439,0.098
18.700,-0.984,-0.441,0.094
18.710,-0.982,-0.445,0.098
18.720,-0.977,-0.453,0.096
18.730,-0.973,-0.453,0.096
18.740,-0.971,-0.449,0.098
18.750,-0.969,-0.441,0.096
18.760,-0.965,-0.445,0.098
18.770,-0.967,-0.447,0.096
18.780,-0.975,-0.441,0.094
18.790,-0.975,-0.439,0.096
18.800,-0.980,-0.439,0.096
18.809,-0.980,-0.445,0.092
18.819,-0.979,-0.447,0.094
18.829,-0.977,-0.451,0.096
18.839,-0.975,-0.449,0.094
18.849,-0.977,-0.453,0.094
18.859,-0.977,-0.443,0.094
18.869,-0.973,-0.441,0.096
18.879,-0.975,-0.441,0.102
18.889,-0.969,-0.449,0.096
18.899,-0.967,-0.455,0.100
18.909,-0.967,-0.455,0.098
18.919,-0.971,-0.453,0.096
18.929,-0.975,-0.447,0.100
18.938,-0.980,-0.445,0.094
18.948,-0.980,-0.441,0.096
18.958,-0.977,-0.445,0.096
18.968,-0.979,-0.445,0.094
18.978,-0.977,-0.445,0.096
18.988,-0.973,-0.447,0.098
18.998,-0.971,-0.447,0.100
19.008,-0.971,-0.443,0.096
19.018,-0.975,-0.443,0.100
19.028,-0.975,-0.445,0.096
19.038,-0.971,-0.451,0.098
19.048,-0.977,-0.445,0.096
19.058,-0.973,-0.447,0.094
19.067,-0.973,-0.447,0.096
19.077,-0.975,-0.443,0.096
19.087,-0.973,-0.445,0.100
19.097,-0.975,-0.447,0.096
19.107,-0.977,-0.449,0.100
19.117,-0.977,-0.449,0.094
19.127,-0.975,-0.445,0.094
19.137,-0.977,-0.443,0.096
19.147,-0.979,-0.443,0.096
19.157,-0.977,-0.445,0.098
19.167,-0.971,-0.445,0.100
19.177,-0.969,-0.449,0.102
19.187,-0.971,-0.451,0.098
19.196,-0.971,-0.449,0.100
19.206,-0.971,-0.451,0.098
19.216,-0.975,-0.447,0.100
19.226,-0.977,-0.447,0.100
19.236,-0.973,-0.449,0.100
19.246,-0.979,-0.441,0.098
19.256,-0.979,-0.436,0.098
19.266,-0.979,-0.436,0.102
19.276,-0.973,-0.438,0.100
19.286,-0.971,-0.447,0.098
19.296,-0.971,-0.451,0.100
19.306,-0.975,-0.447,0.100
19.316,-0.979,-0.451,0.100
19.325,-0.973,-0.447,0.105
19.335,-0.975,-0.447,0.100
19.345,-0.975,-0.451,0.096
19.355,-0.975,-0.451,0.098
19.365,-0.975,-0.447,0.100
19.375,-0.973,-0.443,0.104
19.385,-0.969,-0.441,0.100
19.395,-0.971,-0.443,0.096
19.405,-0.975,-0.447,0.096
19.415,-0.971,-0.447,0.092
19.425,-0.971,-0.449,0.096
19.435,-0.973,-0.447,0.096
19.445,-0.975,-0.443,0.094
19.455,-0.977,-0.443,0.092
19.464,-0.980,-0.439,0.094
19.474,-0.982,-0.439,0.096
19.484,-0.984,-0.441,0.098
19.494,-0.980,-0.447,0.098
19.504,-0.975,-0.447,0.100
19.514,-0.971,-0.451,0.098
19.524,-0.967,-0.453,0.098
19.534,-0.963,-0.453,0.100
19.544,-0.971,-0.445,0.104
19.554,-0.967,-0.439,0.100
19.564,-0.973,-0.441,0.102
19.574,-0.975,-0.447,0.100
19.584,-0.971,-0.455,0.098
19.593,-0.971,-0.453,0.100
19.603,-0.979,-0.447,0.100
19.613,-0.980,-0.445,0.102
19.623,-0.982,-0.445,0.102
19.633,-0.984,-0.445,0.098
19.643,-0.982,-0.441,0.098
19.653,-0.975,-0.443,0.100
19.663,-0.973,-0.443,0.096
19.673,-0.969,-0.449,0.100
19.683,-0.969,-0.451,0.098
19.693,-0.967,-0.449,0.096
19.703,-0.969,-0.447,0.098
19.713,-0.973,-0.449,0.100
19.722,-0.973,-0.449,0.098
19.732,-0.975,-0.447,0.098
19.742,-0.975,-0.447,0.094
19.752,-0.973,-0.447,0.096
19.762,-0.973,-0.449,0.100
19.772,-0.973,-0.447,0.094
19.782,-0.971,-0.445,0.098
19.792,-0.977,-0.453,0.096
19.802,-0.975,-0.449,0.094
19.812,-0.979,-0.451,0.100
19.822,-0.982,-0.455,0.094
19.832,-0.979,-0.453,0.098
19.842,-0.977,-0.451,0.100
19.851,-0.971,-0.447,0.100
19.861,-0.973,-0.447,0.102
19.871,-0.973,-0.447,0.098
19.881,-0.969,-0.449,0.092
19.891,-0.969,-0.449,0.098
19.901,-0.975,-0.453,0.096
19.911,-0.975,-0.449,0.092
19.921,-0.975,-0.443,0.098
19.931,-0.975,-0.439,0.100
19.941,-0.977,-0.441,0.100
19.951,-0.973,-0.449,0.098
19.961,-0.967,-0.449,0.098
19.971,-0.967,-0.445,0.098
19.980,-0.971,-0.445,0.102
19.990,-0.977,-0.451,0.100
20.000,-0.977,-0.449,0.102
20.010,-0.975,-0.453,0.104
20.020,-0.977,-0.457,0.100
20.030,-0.973,-0.453,0.102
20.040,-0.977,-0.445,0.100
20.050,-0.969,-0.441,0.098
20.060,-0.969,-0.445,0.100
20.070,-0.973,-0.445,0.098
20.080,-0.973,-0.449,0.094
20.090,-0.973,-0.451,0.096
20.100,-0.969,-0.455,0.096
20.109,-0.971,-0.451,0.094
20.119,-0.967,-0.441,0.094
20.129,-0.975,-0.439,0.100
20.139,-0.984,-0.449,0.094
20.149,-0.980,-0.451,0.094
20.159,-0.982,-0.449,0.096
20.169,-0.982,-0.455,0.098
20.179,-0.971,-0.453,0.100
20.189,-0.967,-0.447,0.100
20.199,-0.971,-0.449,0.102
20.209,-0.971,-0.449,0.100
20.219,-0.973,-0.445,0.102
20.229,-0.973,-0.443,0.104
20.238,-0.975,-0.441,0.104
20.248,-0.969,-0.451,0.102
20.258,-0.969,-0.455,0.098
20.268,-0.967,-0.451,0.104
20.278,-0.971,-0.453,0.102
20.288,-0.980,-0.447,0.102
20.298,-0.982,-0.443,0.100
20.308,-0.982,-0.445,0.100
20.318,-0.979,-0.443,0.098
20.328,-0.979,-0.443,0.098
20.338,-0.975,-0.449,0.094
20.348,-0.975,-0.447,0.096
20.358,-0.973,-0.449,0.098
20.368,-0.973,-0.447,0.100
20.377,-0.971,-0.447,0.098
20.387,-0.967,-0.445,0.098
20.397,-0.971,-0.449,0.094
20.407,-0.971,-0.447,0.098
20.417,-0.973,-0.451,0.094
20.427,-0.971,-0.449,0.098
20.437,-0.979,-0.447,0.096
20.447,-0.977,-0.447,0.094
20.457,-0.977,-0.447,0.098
20.467,-0.977,-0.445,0.092
20.477,-0.977,-0.445,0.096
20.487,-0.971,-0.443,0.100
20.497,-0.973,-0.447,0.094
20.506,-0.973,-0.451,0.100
20.516,-0.975,-0.453,0.098
20.526,-0.975,-0.453,0.098
20.536,-0.975,-0.451,0.100
20.546,-0.973,-0.451,0.100
20.556,-0.975,-0.441,0.102
20.566,-0.975,-0.439,0.102
20.576,-0.979,-0.439,0.104
20.586,-0.971,-0.443,0.098
20.596,-0.967,-0.443,0.102
20.606,-0.969,-0.445,0.102
20.616,-0.967,-0.441,0.104
20.626,-0.971,-0.445,0.105
20.635,-0.977,-0.449,0.104
20.645,-0.977,-0.457,0.100
20.655,-0.975,-0.457,0.100
20.665,-0.973,-0.449,0.102
20.675,-0.975,-0.445,0.102
20.685,-0.977,-0.443,0.102
20.695,-0.977,-0.447,0.102
20.705,-0.973,-0.445,0.098
20.715,-0.969,-0.447,0.096
20.725,-0.969,-0.447,0.094
20.735,-0.969,-0.443,0.098
20.745,-0.975,-0.445,0.092
20.755,-0.975,-0.443,0.092
20.764,-0.979,-0.443,0.092
20.774,-0.977,-0.443,0.094
20.784,-0.979,-0.443,0.094
20.794,-0.979,-0.443,0.094
20.804,-0.977,-0.449,0.094
20.814,-0.975,-0.447,0.098
20.824,-0.973,-0.449,0.094
20.834,-0.975,-0.451,0.094
20.844,-0.969,-0.447,0.096
20.854,-0.971,-0.441,0.098
20.864,-0.969,-0.439,0.100
20.874,-0.975,-0.439,0.100
20.884,-0.973,-0.449,0.100
20.893,-0.977,-0.453,0.096
20.903,-0.975,-0.455,0.098
20.913,-0.975,-0.449,0.100
20.923,-0.977,-0.445,0.098
20.933,-0.975,-0.443,0.098
20.943,-0.977,-0.441,0.096
20.953,-0.979,-0.445,0.096
20.963,-0.975,-0.443,0.100
20.973,-0.975,-0.449,0.102
20.983,-0.973,-0.449,0.098
20.993,-0.975,-0.447,0.096
21.003,-0.973,-0.451,0.096
21.013,-0.973,-0.445,0.100
21.022,-0.975,-0.445,0.102
21.032,-0.969,-0.441,0.100
21.042,-0.971,-0.447,0.098
21.052,-0.973,-0.445,0.098
21.062,-0.973,-0.447,0.098
21.072,-0.973,-0.449,0.094
21.082,-0.973,-0.445,0.094
21.092,-0.975,-0.449,0.094
21.102,-0.975,-0.447,0.094
21.112,-0.979,-0.443,0.096
21.122,-0.975,-0.443,0.098
21.132,-0.975,-0.449,0.096
21.142,-0.975,-0.447,0.098
21.152,-0.975,-0.451,0.100
21.161,-0.977,-0.447,0.100
21.171,-0.975,-0.447,0.096
21.181,-0.979,-0.445,0.102
21.191,-0.975,-0.443,0.100
21.201,-0.973,-0.441,0.098
21.211,-0.975,-0.438,0.100
21.221,-0.977,-0.443,0.098
21.231,-0.975,-0.445,0.098
21.241,-0.975,-0.445,0.096
21.251,-0.975,-0.441,0.098
21.261,-0.975,-0.443,0.102
21.271,-0.975,-0.443,0.100
21.281,-0.973,-0.445,0.104
21.290,-0.973,-0.453,0.102
21.300,-0.973,-0.455,0.100
21.310,-0.975,-0.453,0.098
21.320,-0.977,-0.445,0.100
21.330,-0.979,-0.441,0.100
21.340,-0.979,-0.443,0.096
21.350,-0.977,-0.445,0.096
21.360,-0.975,-0.451,0.094
21.370,-0.969,-0.449,0.090
21.380,-0.971,-0.447,0.092
21.390,-0.971,-0.441,0.090
21.400,-0.973,-0.439,0.092
21.410,-0.975,-0.441,0.090
21.419,-0.977,-0.439,0.092
21.429,-0.979,-0.441,0.094
21.439,-0.982,-0.447,0.094
21.449,-0.982,-0.451,0.096
21.459,-0.982,-0.447,0.098
21.469,-0.979,-0.449,0.096
21.479,-0.975,-0.453,0.094
21.489,-0.971,-0.451,0.096
21.499,-0.967,-0.441,0.104
21.509,-0.967,-0.439,0.102
21.519,-0.967,-0.445,0.104
21.529,-0.963,-0.447,0.104
21.539,-0.965,-0.453,0.102
21.548,-0.969,-0.451,0.102
21.558,-0.969,-0.451,0.102
21.568,-0.980,-0.453,0.098
21.578,-0.982,-0.445,0.104
21.588,-0.982,-0.441,0.098
21.598,-0.979,-0.443,0.096
21.608,-0.977,-0.443,0.098
21.618,-0.973,-0.445,0.098
21.628,-0.973,-0.447,0.100
21.638,-0.971,-0.449,0.096
21.648,-0.971,-0.449,0.098
21.658,-0.973,-0.451,0.094
21.668,-0.973,-0.445,0.098
21.677,-0.979,-0.441,0.096
21.687,-0.979,-0.443,0.096
21.697,-0.979,-0.443,0.096
21.707,-0.975,-0.443,0.096
21.717,-0.971,-0.445,0.096
21.727,-0.969,-0.445,0.096
21.737,-0.971,-0.449,0.096
21.747,-0.977,-0.449,0.096
21.757,-0.973,-0.447,0.094
21.767,-0.979,-0.447,0.096
21.777,-0.979,-0.445,0.098
21.787,-0.977,-0.445,0.098
21.797,-0.979,-0.445,0.098
21.806,-0.973,-0.451,0.098
21.816,-0.975,-0.447,0.098
21.826,-0.973,-0.445,0.098
21.836,-0.973,-0.445,0.098
21.846,-0.971,-0.449,0.096
21.856,-0.971,-0.449,0.098
21.866,-0.973,-0.443,0.096
21.876,-0.973,-0.441,0.102
21.886,-0.975,-0.438,0.098
21.896,-0.973,-0.439,0.102
21.906,-0.977,-0.447,0.096
21.916,-0.979,-0.449,0.094
21.926,-0.975,-0.443,0.102
21.935,-0.977,-0.441,0.102
21.945,-0.975,-0.447,0.104
21.955,-0.971,-0.455,0.100
21.965,-0.969,-0.461,0.096
21.975,-0.969,-0.465,0.098
21.985,-0.969,-0.457,0.100
21.995,-0.969,-0.439,0.098
22.005,-0.973,-0.441,0.098
22.015,-0.979,-0.441,0.096
22.025,-0.979,-0.438,0.096
22.035,-0.977,-0.447,0.096
22.045,-0.977,-0.449,0.092
22.055,-0.975,-0.445,0.092
22.065,-0.977,-0.449,0.092
22.074,-0.973,-0.445,0.090
22.084,-0.975,-0.443,0.092
22.094,-0.979,-0.441,0.094
22.104,-0.980,-0.441,0.094
22.114,-0.979,-0.443,0.096
22.124,-0.973,-0.445,0.098
22.134,-0.971,-0.449,0.100
22.144,-0.971,-0.451,0.098
22.154,-0.973,-0.453,0.098
22.164,-0.971,-0.447,0.098
22.174,-0.969,-0.445,0.104
22.184,-0.973,-0.441,0.098
22.194,-0.971,-0.445,0.104
22.203,-0.973,-0.451,0.098
22.213,-0.973,-0.453,0.098
22.223,-0.975,-0.449,0.098
22.233,-0.975,-0.443,0.094
22.243,-0.979,-0.443,0.100
22.253,-0.979,-0.441,0.100
22.263,-0.977,-0.445,0.100
22.273,-0.975,-0.447,0.096
22.283,-0.975,-0.449,0.098
22.293,-0.975,-0.449,0.098
22.303,-0.975,-0.451,0.096
22.313,-0.973,-0.447,0.094
22.323,-0.975,-0.447,0.100
22.332,-0.969,-0.445,0.096
22.342,-0.971,-0.445,0.094
22.352,-0.973,-0.447,0.096
22.362,-0.973,-0.443,0.098
22.372,-0.975,-0.445,0.094
22.382,-0.973,-0.445,0.090
22.392,-0.973,-0.447,0.094
22.402,-0.975,-0.449,0.096
22.412,-0.977,-0.449,0.096
22.422,-0.975,-0.449,0.094
22.432,-0.980,-0.449,0.096
22.442,-0.979,-0.449,0.094
22.452,-0.975,-0.445,0.092
22.461,-0.977,-0.445,0.096
22.471,-0.973,-0.447,0.094
22.481,-0.973,-0.449,0.098
22.491,-0.971,-0.449,0.100
22.501,-0.973,-0.449,0.100
22.511,-0.971,-0.451,0.098
22.521,-0.971,-0.445,0.100
22.531,-0.973,-0.445,0.098
22.541,-0.975,-0.449,0.098
22.551,-0.977,-0.445,0.100
22.561,-0.977,-0.447,0.098
22.571,-0.973,-0.443,0.096
22.581,-0.977,-0.441,0.096
22.590,-0.973,-0.445,0.098
22.600,-0.969,-0.443,0.102
22.610,-0.971,-0.443,0.098
22.620,-0.973,-0.443,0.102
22.630,-0.971,-0.443,0.100
22.640,-0.977,-0.449,0.098
22.650,-0.971,-0.451,0.102
22.660,-0.969,-0.461,0.100
22.670,-0.969,-0.457,0.096
22.680,-0.975,-0.451,0.098
22.690,-0.973,-0.445,0.098
22.700,-0.977,-0.445,0.098
22.710,-0.977,-0.443,0.096
22.719,-0.977,-0.441,0.094
22.729,-0.977,-0.447,0.092
22.739,-0.975,-0.443,0.092
22.749,-0.973,-0.447,0.090
22.759,-0.973,-0.445,0.094
22.769,-0.977,-0.447,0.090
22.779,-0.979,-0.445,0.090
22.789,-0.982,-0.445,0.090
22.799,-0.980,-0.443,0.092
22.809,-0.979,-0.445,0.092
22.819,-0.973,-0.443,0.094
22.829,-0.971,-0.451,0.100
22.839,-0.971,-0.453,0.098
22.849,-0.969,-0.453,0.100
22.858,-0.969,-0.449,0.102
22.868,-0.969,-0.445,0.105
22.878,-0.969,-0.445,0.105
22.888,-0.969,-0.447,0.102
22.898,-0.969,-0.455,0.098
22.908,-0.969,-0.451,0.098
22.918,-0.971,-0.449,0.102
22.928,-0.977,-0.447,0.100
22.938,-0.979,-0.443,0.100
22.948,-0.982,-0.445,0.098
22.958,-0.979,-0.445,0.104
22.968,-0.977,-0.447,0.098
22.978,-0.979,-0.447,0.094
22.987,-0.975,-0.449,0.098
22.997,-0.975,-0.449,0.094
23.007,-0.973,-0.447,0.096
23.017,-0.973,-0.447,0.096
23.027,-0.973,-0.447,0.096
23.037,-0.971,-0.447,0.094
23.047,-0.971,-0.449,0.094
23.057,-0.973,-0.445,0.094
23.067,-0.971,-0.447,0.098
23.077,-0.975,-0.449,0.094
23.087,-0.975,-0.451,0.096
23.097,-0.971,-0.449,0.098
23.107,-0.971,-0.451,0.098
23.116,-0.977,-0.449,0.096
23.126,-0.975,-0.445,0.094
23.136,-0.975,-0.449,0.096
23.146,-0.975,-0.447,0.098
23.156,-0.975,-0.449,0.096
23.166,-0.973,-0.453,0.100
23.176,-0.973,-0.447,0.104
23.186,-0.969,-0.441,0.102
23.196,-0.971,-0.447,0.100
23.206,-0.971,-0.453,0.100
23.216,-0.973,-0.449,0.100
23.226,-0.973,-0.451,0.100
23.236,-0.975,-0.449,0.096
23.245,-0.975,-0.449,0.100
23.255,-0.973,-0.441,0.098
23.265,-0.975,-0.441,0.100
23.275,-0.975,-0.449,0.098
23.285,-0.969,-0.455,0.098
23.295,-0.971,-0.451,0.100
23.305,-0.971,-0.449,0.100
23.315,-0.977,-0.449,0.098
23.325,-0.973,-0.449,0.104
23.335,-0.977,-0.457,0.098
23.345,-0.975,-0.459,0.092
23.355,-0.975,-0.457,0.096
23.365,-0.971,-0.445,0.094
23.374,-0.979,-0.443,0.100
23.384,-0.973,-0.443,0.096
23.394,-0.975,-0.445,0.096
23.404,-0.969,-0.449,0.096
23.414,-0.971,-0.451,0.092
23.424,-0.971,-0.455,0.092
23.434,-0.969,-0.449,0.096
23.444,-0.975,-0.447,0.096
23.454,-0.979,-0.445,0.096
23.464,-0.975,-0.443,0.100
23.474,-0.979,-0.447,0.094
23.484,-0.977,-0.449,0.100
23.494,-0.973,-0.453,0.100
23.503,-0.969,-0.451,0.100
23.513,-0.971,-0.455,0.102
23.523,-0.971,-0.457,0.098
23.533,-0.973,-0.449,0.100
23.543,-0.969,-0.443,0.104
23.553,-0.967,-0.443,0.102
23.563,-0.969,-0.447,0.100
23.573,-0.965,-0.457,0.102
23.583,-0.969,-0.459,0.102
23.593,-0.973,-0.451,0.100
23.603,-0.977,-0.449,0.102
23.613,-0.980,-0.445,0.102
23.623,-0.979,-0.443,0.098
23.632,-0.975,-0.447,0.098
23.642,-0.973,-0.449,0.098
23.652,-0.971,-0.455,0.100
23.662,-0.969,-0.457,0.100
23.672,-0.969,-0.451,0.098
23.682,-0.971,-0.451,0.094
23.692,-0.971,-0.447,0.094
23.702,-0.973,-0.449,0.096
23.712,-0.973,-0.447,0.098
23.722,-0.973,-0.445,0.094
23.732,-0.977,-0.449,0.096
23.742,-0.977,-0.451,0.096
23.752,-0.975,-0.451,0.096
23.762,-0.973,-0.451,0.096
23.771,-0.973,-0.447,0.094
23.781,-0.975,-0.449,0.102
23.791,-0.975,-0.445,0.096
23.801,-0.977,-0.445,0.098
23.811,-0.973,-0.453,0.098
23.821,-0.975,-0.451,0.100
23.831,-0.973,-0.455,0.100
23.841,-0.975,-0.455,0.102
23.851,-0.973,-0.451,0.102
23.861,-0.973,-0.449,0.100
23.871,-0.973,-0.449,0.098
23.881,-0.977,-0.447,0.100
23.891,-0.975,-0.441,0.102
23.900,-0.973,-0.438,0.102
23.910,-0.973,-0.441,0.105
23.920,-0.973,-0.449,0.100
23.930,-0.969,-0.453,0.102
23.940,-0.971,-0.447,0.102
23.950,-0.975,-0.445,0.105
23.960,-0.971,-0.449,0.102
23.970,-0.971,-0.449,0.104
23.980,-0.973,-0.453,0.105
23.990,-0.977,-0.455,0.100
24.000,-0.975,-0.455,0.100
24.010,-0.975,-0.447,0.102
24.020,-0.977,-0.445,0.096
24.029,-0.980,-0.445,0.098
24.039,-0.973,-0.445,0.098
24.049,-0.971,-0.447,0.098
24.059,-0.969,-0.449,0.094
24.069,-0.969,-0.447,0.092
24.079,-0.973,-0.449,0.094
24.089,-0.975,-0.447,0.092
24.099,-0.973,-0.441,0.092
24.109,-0.979,-0.443,0.094
24.119,-0.982,-0.443,0.094
24.129,-0.982,-0.445,0.098
24.139,-0.980,-0.447,0.098
24.149,-0.975,-0.449,0.094
24.158,-0.971,-0.455,0.098
24.168,-0.975,-0.453,0.098
24.178,-0.967,-0.451,0.098
24.188,-0.967,-0.445,0.100
24.198,-0.969,-0.443,0.105
24.208,-0.975,-0.443,0.100
24.218,-0.969,-0.447,0.102
24.228,-0.969,-0.457,0.102
24.238,-0.971,-0.451,0.102
24.248,-0.973,-0.451,0.100
24.258,-0.975,-0.447,0.100
24.268,-0.979,-0.443,0.104
24.278,-0.979,-0.441,0.105
24.287,-0.979,-0.439,0.100
24.297,-0.975,-0.443,0.104
24.307,-0.975,-0.449,0.100
24.317,-0.969,-0.453,0.098
24.327,-0.967,-0.451,0.104
24.337,-0.967,-0.455,0.102
24.347,-0.975,-0.449,0.096
24.357,-0.971,-0.445,0.096
24.367,-0.977,-0.445,0.100
24.377,-0.973,-0.445,0.094
24.387,-0.979,-0.447,0.098
24.397,-0.979,-0.447,0.098
24.407,-0.975,-0.447,0.096
24.416,-0.973,-0.447,0.098
24.426,-0.969,-0.449,0.096
24.436,-0.971,-0.449,0.102
24.446,-0.971,-0.445,0.098
24.456,-0.975,-0.447,0.096
24.466,-0.975,-0.451,0.100
24.476,-0.975,-0.449,0.098
24.486,-0.975,-0.449,0.100
24.496,-0.975,-0.449,0.096
24.506,-0.973,-0.451,0.098
24.516,-0.975,-0.449,0.096
24.526,-0.975,-0.449,0.096
24.536,-0.973,-0.447,0.100
24.546,-0.975,-0.445,0.096
24.555,-0.975,-0.441,0.098
24.565,-0.975,-0.439,0.102
24.575,-0.975,-0.443,0.100
24.585,-0.975,-0.451,0.102
24.595,-0.973,-0.451,0.100
24.605,-0.977,-0.447,0.104
24.615,-0.969,-0.445,0.104
24.625,-0.973,-0.449,0.105
24.635,-0.971,-0.451,0.102
24.645,-0.971,-0.455,0.100
24.655,-0.969,-0.457,0.098
24.665,-0.973,-0.455,0.098
24.675,-0.977,-0.445,0.100
24.684,-0.979,-0.443,0.100
24.694,-0.980,-0.443,0.098
24.704,-0.975,-0.447,0.096
24.714,-0.973,-0.451,0.094
24.724,-0.973,-0.449,0.088
24.734,-0.973,-0.445,0.092
24.744,-0.975,-0.445,0.090
24.754,-0.973,-0.443,0.092
24.764,-0.971,-0.441,0.092
24.774,-0.977,-0.441,0.092
24.784,-0.979,-0.447,0.090
24.794,-0.977,-0.447,0.092
24.804,-0.979,-0.447,0.094
24.813,-0.973,-0.451,0.098
24.823,-0.971,-0.455,0.100
24.833,-0.969,-0.453,0.100
24.843,-0.971,-0.453,0.100
24.853,-0.967,-0.447,0.105
24.863,-0.967,-0.441,0.105
24.873,-0.969,-0.445,0.102
24.883,-0.967,-0.447,0.102
24.893,-0.967,-0.445,0.104
24.903,-0.971,-0.447,0.104
24.913,-0.977,-0.449,0.100
24.923,-0.979,-0.449,0.100
24.933,-0.977,-0.449,0.100
24.942,-0.977,-0.447,0.102
24.952,-0.975,-0.449,0.096
24.962,-0.977,-0.447,0.100
24.972,-0.971,-0.451,0.094
24.982,-0.971,-0.453,0.094
24.992,-0.975,-0.449,0.090
25.002,-0.971,-0.447,0.094
25.012,-0.977,-0.451,0.088
25.022,-0.973,-0.453,0.090
25.032,-0.977,-0.451,0.088
25.042,-0.977,-0.449,0.086
25.052,-0.979,-0.451,0.088
25.062,-0.979,-0.447,0.088
25.071,-0.975,-0.445,0.090
25.081,-0.973,-0.443,0.090
25.091,-0.971,-0.443,0.090
25.101,-0.967,-0.445,0.090
25.111,-0.973,-0.443,0.092
25.121,-0.973,-0.447,0.096
25.131,-0.975,-0.449,0.094
25.141,-0.973,-0.451,0.098
25.151,-0.973,-0.451,0.100
25.161,-0.973,-0.451,0.100
25.171,-0.975,-0.453,0.102
25.181,-0.971,-0.455,0.102
25.191,-0.973,-0.447,0.102
25.200,-0.973,-0.445,0.102
25.210,-0.973,-0.449,0.104
25.220,-0.971,-0.447,0.102
25.230,-0.971,-0.443,0.104
25.240,-0.975,-0.445,0.098
25.250,-0.975,-0.443,0.102
25.260,-0.973,-0.451,0.098
25.270,-0.973,-0.449,0.100
25.280,-0.975,-0.445,0.098
25.290,-0.973,-0.447,0.098
25.300,-0.973,-0.449,0.096
25.310,-0.971,-0.447,0.092
25.320,-0.973,-0.455,0.092
25.329,-0.971,-0.451,0.098
25.339,-0.973,-0.449,0.092
25.349,-0.975,-0.445,0.096
25.359,-0.979,-0.447,0.094
25.369,-0.980,-0.451,0.090
25.379,-0.977,-0.449,0.088
25.389,-0.980,-0.451,0.092
25.399,-0.979,-0.447,0.090
25.409,-0.975,-0.447,0.090
25.419,-0.973,-0.447,0.094
25.429,-0.969,-0.447,0.094
25.439,-0.971,-0.449,0.092
25.449,-0.973,-0.449,0.092
25.459,-0.975,-0.447,0.096
25.468,-0.977,-0.447,0.094
25.478,-0.977,-0.449,0.096
25.488,-0.979,-0.449,0.096
25.498,-0.979,-0.453,0.098
25.508,-0.971,-0.451,0.098
25.518,-0.971,-0.449,0.102
25.528,-0.967,-0.443,0.104
25.538,-0.965,-0.439,0.104
25.548,-0.967,-0.447,0.104
25.558,-0.965,-0.451,0.102
25.568,-0.969,-0.449,0.102
25.578,-0.971,-0.455,0.102
25.588,-0.975,-0.453,0.096
25.597,-0.977,-0.451,0.102
25.607,-0.979,-0.445,0.098
25.617,-0.979,-0.443,0.102
25.627,-0.979,-0.443,0.102
25.637,-0.979,-0.445,0.100
25.647,-0.977,-0.445,0.100
25.657,-0.973,-0.453,0.104
25.667,-0.973,-0.451,0.098
25.677,-0.969,-0.449,0.098
25.687,-0.969,-0.447,0.096
25.697,-0.971,-0.443,0.096
25.707,-0.973,-0.443,0.100
25.717,-0.971,-0.441,0.096
25.726,-0.975,-0.441,0.098
25.736,-0.975,-0.443,0.096
25.746,-0.979,-0.453,0.096
25.756,-0.977,-0.453,0.094
25.766,-0.977,-0.453,0.100
25.776,-0.973,-0.455,0.094
25.786,-0.969,-0.449,0.094
25.796,-0.967,-0.447,0.100
25.806,-0.971,-0.447,0.102
25.816,-0.975,-0.447,0.098
25.826,-0.975,-0.445,0.098
25.836,-0.975,-0.447,0.102
25.846,-0.975,-0.451,0.098
25.855,-0.973,-0.451,0.102
25.865,-0.971,-0.451,0.102
25.875,-0.973,-0.451,0.098
25.885,-0.969,-0.449,0.096
25.895,-0.975,-0.453,0.096
25.905,-0.975,-0.453,0.096
25.915,-0.969,-0.447,0.100
25.925,-0.975,-0.445,0.098
25.935,-0.979,-0.439,0.098
25.945,-0.977,-0.438,0.098
25.955,-0.975,-0.443,0.096
25.965,-0.975,-0.451,0.096
25.975,-0.971,-0.449,0.098
25.984,-0.971,-0.449,0.096
25.994,-0.969,-0.445,0.102
26.004,-0.973,-0.451,0.100
26.014,-0.967,-0.453,0.100
26.024,-0.971,-0.461,0.102
26.034,-0.971,-0.459,0.100
26.044,-0.975,-0.451,0.098
26.054,-0.979,-0.447,0.098
26.064,-0.979,-0.445,0.098
26.074,-0.977,-0.445,0.096
26.084,-0.975,-0.449,0.100
26.094,-0.973,-0.453,0.096
26.104,-0.971,-0.451,0.096
26.113,-0.971,-0.449,0.096
26.123,-0.969,-0.447,0.098
26.133,-0.977,-0.445,0.098
26.143,-0.977,-0.445,0.096
26.153,-0.980,-0.449,0.096
26.163,-0.979,-0.451,0.096
26.173,-0.977,-0.453,0.098
26.183,-0.977,-0.455,0.098
26.193,-0.967,-0.453,0.102
26.203,-0.965,-0.455,0.102
26.213,-0.963,-0.457,0.100
26.223,-0.963,-0.451,0.100
26.233,-0.969,-0.441,0.100
26.243,-0.969,-0.441,0.100
26.252,-0.969,-0.443,0.100
26.262,-0.971,-0.451,0.100
26.272,-0.973,-0.453,0.094
26.282,-0.977,-0.453,0.102
26.292,-0.980,-0.451,0.098
26.302,-0.984,-0.449,0.098
26.312,-0.982,-0.445,0.094
26.322,-0.975,-0.445,0.094
26.332,-0.973,-0.447,0.098
26.342,-0.971,-0.449,0.100
26.352,-0.969,-0.451,0.096
26.362,-0.965,-0.453,0.098
26.372,-0.967,-0.451,0.100
26.381,-0.971,-0.455,0.098
26.391,-0.971,-0.455,0.094
26.401,-0.971,-0.449,0.094
26.411,-0.973,-0.455,0.098
26.421,-0.975,-0.453,0.098
26.431,-0.969,-0.455,0.098
26.441,-0.973,-0.459,0.100
26.451,-0.969,-0.453,0.092
26.461,-0.973,-0.453,0.098
26.471,-0.969,-0.453,0.098
26.481,-0.971,-0.451,0.098
26.491,-0.967,-0.449,0.098
26.501,-0.975,-0.451,0.098
26.510,-0.971,-0.453,0.094
26.520,-0.973,-0.453,0.100
26.530,-0.975,-0.451,0.100
26.540,-0.975,-0.449,0.100
26.550,-0.975,-0.445,0.100
26.560,-0.969,-0.447,0.104
26.570,-0.971,-0.449,0.104
26.580,-0.971,-0.449,0.100
26.590,-0.967,-0.447,0.102
26.600,-0.971,-0.441,0.105
26.610,-0.973,-0.441,0.100
26.620,-0.975,-0.447,0.104
26.630,-0.975,-0.455,0.100
26.639,-0.971,-0.453,0.100
26.649,-0.973,-0.451,0.100
26.659,-0.973,-0.449,0.100
26.669,-0.973,-0.453,0.105
26.679,-0.980,-0.459,0.096
26.689,-0.975,-0.457,0.100
26.699,-0.969,-0.465,0.096
26.709,-0.969,-0.459,0.094
26.719,-0.971,-0.447,0.096
26.729,-0.973,-0.443,0.098
26.739,-0.979,-0.449,0.094
26.749,-0.975,-0.453,0.098
26.759,-0.969,-0.453,0.094
26.768,-0.971,-0.457,0.094
26.778,-0.973,-0.455,0.096
26.788,-0.973,-0.455,0.092
26.798,-0.973,-0.449,0.096
26.808,-0.971,-0.447,0.094
26.818,-0.975,-0.443,0.098
26.828,-0.973,-0.447,0.094
26.838,-0.973,-0.453,0.096
26.848,-0.975,-0.453,0.100
26.858,-0.973,-0.453,0.098
26.868,-0.967,-0.449,0.100
26.878,-0.971,-0.453,0.098
26.888,-0.973,-0.453,0.102
26.897,-0.973,-0.443,0.104
26.907,-0.971,-0.443,0.104
26.917,-0.975,-0.443,0.102
26.927,-0.969,-0.453,0.100
26.937,-0.967,-0.459,0.100
26.947,-0.973,-0.455,0.098
26.957,-0.975,-0.449,0.102
26.967,-0.975,-0.445,0.100
26.977,-0.975,-0.441,0.100
26.987,-0.979,-0.441,0.100
26.997,-0.980,-0.445,0.100
27.007,-0.979,-0.451,0.098
27.017,-0.977,-0.455,0.098
27.026,-0.973,-0.453,0.098
27.036,-0.967,-0.453,0.100
27.046,-0.969,-0.451,0.100
27.056,-0.971,-0.447,0.098
27.066,-0.973,-0.447,0.098
27.076,-0.971,-0.447,0.104
27.086,-0.969,-0.449,0.100
27.096,-0.971,-0.449,0.100
27.106,-0.971,-0.451,0.098
27.116,-0.975,-0.453,0.100
27.126,-0.969,-0.453,0.100
27.136,-0.973,-0.453,0.096
27.146,-0.975,-0.449,0.100
27.156,-0.971,-0.449,0.100
27.165,-0.971,-0.451,0.100
27.175,-0.973,-0.455,0.100
27.185,-0.971,-0.451,0.100
27.195,-0.977,-0.451,0.100
27.205,-0.975,-0.445,0.098
27.215,-0.979,-0.449,0.098
27.225,-0.977,-0.451,0.098
27.235,-0.977,-0.447,0.100
27.245,-0.973,-0.445,0.100
27.255,-0.973,-0.441,0.100
27.265,-0.971,-0.443,0.104
27.275,-0.971,-0.447,0.102
27.285,-0.969,-0.447,0.102
27.294,-0.971,-0.447,0.104
27.304,-0.971,-0.449,0.104
27.314,-0.973,-0.445,0.107
27.324,-0.973,-0.447,0.105
27.334,-0.971,-0.453,0.104
27.344,-0.975,-0.461,0.104
27.354,-0.971,-0.459,0.102
27.364,-0.971,-0.457,0.100
27.374,-0.973,-0.449,0.100
27.384,-0.982,-0.447,0.100
27.394,-0.980,-0.445,0.096
27.404,-0.977,-0.447,0.098
27.414,-0.979,-0.447,0.096
27.423,-0.979,-0.443,0.092
27.433,-0.977,-0.441,0.096
27.443,-0.971,-0.445,0.094
27.453,-0.971,-0.445,0.098
27.463,-0.979,-0.443,0.098
27.473,-0.979,-0.449,0.098
27.483,-0.971,-0.451,0.098
27.493,-0.975,-0.449,0.104
27.503,-0.980,-0.449,0.104
27.513,-0.973,-0.449,0.104
27.523,-0.969,-0.455,0.105
27.533,-0.965,-0.449,0.104
27.543,-0.965,-0.449,0.105
27.552,-0.965,-0.445,0.111
27.562,-0.971,-0.445,0.107
27.572,-0.965,-0.447,0.107
27.582,-0.967,-0.457,0.105
27.592,-0.971,-0.461,0.105
27.602,-0.973,-0.453,0.104
27.612,-0.973,-0.449,0.105
27.622,-0.975,-0.447,0.104
27.632,-0.980,-0.449,0.104
27.642,-0.977,-0.445,0.107
27.652,-0.973,-0.441,0.105
27.662,-0.975,-0.447,0.105
27.672,-0.971,-0.447,0.104
27.681,-0.973,-0.447,0.104
27.691,-0.971,-0.449,0.102
27.701,-0.969,-0.451,0.102
27.711,-0.967,-0.447,0.104
27.721,-0.971,-0.443,0.100
27.731,-0.973,-0.449,0.100
27.741,-0.975,-0.449,0.102
27.751,-0.973,-0.449,0.100
27.761,-0.973,-0.449,0.096
27.771,-0.975,-0.451,0.094
27.781,-0.977,-0.455,0.098
27.791,-0.975,-0.449,0.100
27.801,-0.975,-0.447,0.100
27.810,-0.979,-0.445,0.100
27.820,-0.975,-0.443,0.100
27.830,-0.977,-0.445,0.104
27.840,-0.975,-0.447,0.102
27.850,-0.977,-0.447,0.100
27.860,-0.977,-0.455,0.096
27.870,-0.971,-0.451,0.102
27.880,-0.971,-0.451,0.102
27.890,-0.971,-0.449,0.100
27.900,-0.971,-0.449,0.102
27.910,-0.969,-0.451,0.102
27.920,-0.971,-0.449,0.098
27.930,-0.973,-0.447,0.100
27.940,-0.971,-0.447,0.100
27.949,-0.977,-0.443,0.098
27.959,-0.979,-0.441,0.102
27.969,-0.975,-0.447,0.100
27.979,-0.977,-0.451,0.102
27.989,-0.973,-0.453,0.096
27.999,-0.975,-0.449,0.100
28.009,-0.973,-0.447,0.100
28.019,-0.973,-0.449,0.102
28.029,-0.969,-0.447,0.102
28.039,-0.967,-0.453,0.104
28.049,-0.971,-0.461,0.100
28.059,-0.973,-0.459,0.096
28.069,-0.971,-0.447,0.102
28.078,-0.977,-0.443,0.104
28.088,-0.979,-0.447,0.100
28.098,-0.975,-0.447,0.096
28.108,-0.977,-0.449,0.096
28.118,-0.971,-0.447,0.096
28.128,-0.969,-0.449,0.092
28.138,-0.969,-0.449,0.092
28.148,-0.971,-0.447,0.096
28.158,-0.973,-0.445,0.096
28.168,-0.980,-0.441,0.098
28.178,-0.980,-0.439,0.098
28.188,-0.982,-0.441,0.096
28.198,-0.977,-0.449,0.100
28.207,-0.977,-0.453,0.102
28.217,-0.969,-0.453,0.100
28.227,-0.971,-0.455,0.100
28.237,-0.967,-0.451,0.100
28.247,-0.967,-0.443,0.105
28.257,-0.971,-0.441,0.105
28.267,-0.971,-0.443,0.104
28.277,-0.969,-0.445,0.107
28.287,-0.969,-0.455,0.102
28.297,-0.969,-0.459,0.102
28.307,-0.973,-0.455,0.098
28.317,-0.973,-0.455,0.098
28.327,-0.980,-0.447,0.100
28.336,-0.979,-0.443,0.098
28.346,-0.979,-0.441,0.102
28.356,-0.975,-0.443,0.102
28.366,-0.977,-0.445,0.096
28.376,-0.975,-0.451,0.096
28.386,-0.971,-0.449,0.100
28.396,-0.969,-0.455,0.098
28.406,-0.969,-0.451,0.098
28.416,-0.969,-0.447,0.098
28.426,-0.973,-0.447,0.094
28.436,-0.975,-0.449,0.100
28.446,-0.973,-0.447,0.096
28.456,-0.975,-0.449,0.096
28.465,-0.971,-0.449,0.096
28.475,-0.975,-0.447,0.098
28.485,-0.975,-0.447,0.098
28.495,-0.971,-0.447,0.100
28.505,-0.973,-0.447,0.100
28.515,-0.977,-0.447,0.100
28.525,-0.973,-0.449,0.098
28.535,-0.977,-0.447,0.100
28.545,-0.975,-0.447,0.098
28.555,-0.973,-0.449,0.096
28.565,-0.975,-0.445,0.096
28.575,-0.969,-0.447,0.098
28.585,-0.967,-0.449,0.100
28.594,-0.969,-0.447,0.100
28.604,-0.973,-0.449,0.098
28.614,-0.969,-0.449,0.098
28.624,-0.973,-0.453,0.098
28.634,-0.973,-0.453,0.098
28.644,-0.977,-0.449,0.096
28.654,-0.975,-0.439,0.098
28.664,-0.979,-0.443,0.100
28.674,-0.979,-0.443,0.102
28.684,-0.975,-0.445,0.102
28.694,-0.977,-0.451,0.104
28.704,-0.977,-0.451,0.102
28.714,-0.975,-0.443,0.104
28.723,-0.969,-0.449,0.105
28.733,-0.969,-0.445,0.102
28.743,-0.969,-0.443,0.104
28.753,-0.967,-0.453,0.104
28.763,-0.971,-0.455,0.102
28.773,-0.969,-0.447,0.102
28.783,-0.967,-0.439,0.104
28.793,-0.971,-0.438,0.102
28.803,-0.977,-0.447,0.098
28.813,-0.975,-0.449,0.096
28.823,-0.971,-0.445,0.096
28.833,-0.975,-0.449,0.096
28.843,-0.977,-0.447,0.090
28.853,-0.977,-0.443,0.092
28.862,-0.977,-0.441,0.096
28.872,-0.979,-0.443,0.092
28.882,-0.979,-0.441,0.094
28.892,-0.980,-0.443,0.092
28.902,-0.980,-0.443,0.100
28.912,-0.979,-0.445,0.096
28.922,-0.977,-0.451,0.100
28.932,-0.977,-0.459,0.096
28.942,-0.975,-0.455,0.096
28.952,-0.973,-0.445,0.102
28.962,-0.975,-0.436,0.104
28.972,-0.977,-0.436,0.102
28.982,-0.969,-0.439,0.104
28.991,-0.965,-0.443,0.102
29.001,-0.959,-0.447,0.104
29.011,-0.975,-0.449,0.104
29.021,-0.973,-0.441,0.098
29.031,-0.979,-0.441,0.100
29.041,-0.982,-0.439,0.100
29.051,-0.980,-0.441,0.104
29.061,-0.980,-0.441,0.105
29.071,-0.980,-0.441,0.104
29.081,-0.977,-0.443,0.100
29.091,-0.969,-0.443,0.100
29.101,-0.971,-0.438,0.105
29.111,-0.973,-0.438,0.102
29.120,-0.971,-0.447,0.100
29.130,-0.967,-0.447,0.102
29.140,-0.969,-0.447,0.107
29.150,-0.971,-0.445,0.102
29.160,-0.975,-0.445,0.098
29.170,-0.975,-0.445,0.100
29.180,-0.975,-0.443,0.102
29.190,-0.973,-0.443,0.104
29.200,-0.975,-0.441,0.100
29.210,-0.979,-0.439,0.100
29.220,-0.973,-0.441,0.102
29.230,-0.975,-0.443,0.102
29.240,-0.977,-0.441,0.102
29.249,-0.977,-0.441,0.102
29.259,-0.980,-0.447,0.100
29.269,-0.977,-0.445,0.100
29.279,-0.975,-0.449,0.104
29.289,-0.975,-0.449,0.102
29.299,-0.973,-0.445,0.102
29.309,-0.975,-0.439,0.105
29.319,-0.975,-0.438,0.098
29.329,-0.977,-0.439,0.100
29.339,-0.979,-0.441,0.096
29.349,-0.979,-0.436,0.100
29.359,-0.980,-0.436,0.102
29.369,-0.980,-0.436,0.100
29.378,-0.977,-0.439,0.102
29.388,-0.975,-0.445,0.105
29.398,-0.971,-0.443,0.104
29.408,-0.973,-0.443,0.107
29.418,-0.975,-0.439,0.107
29.428,-0.973,-0.439,0.105
29.438,-0.975,-0.441,0.105
29.448,-0.973,-0.441,0.105
29.458,-0.975,-0.443,0.102
29.468,-0.977,-0.447,0.104
29.478,-0.977,-0.451,0.104
29.488,-0.979,-0.443,0.100
29.498,-0.979,-0.439,0.100
29.507,-0.980,-0.436,0.104
29.517,-0.979,-0.441,0.102
29.527,-0.975,-0.439,0.100
29.537,-0.971,-0.438,0.104
29.547,-0.963,-0.438,0.100
29.557,-0.965,-0.439,0.100
29.567,-0.963,-0.438,0.100
29.577,-0.967,-0.441,0.102
29.587,-0.973,-0.447,0.100
29.597,-0.975,-0.445,0.104
29.607,-0.980,-0.443,0.105
29.617,-0.979,-0.453,0.100
29.627,-0.975,-0.451,0.100
29.637,-0.979,-0.449,0.100
29.646,-0.975,-0.453,0.098
29.656,-0.975,-0.449,0.096
29.666,-0.973,-0.439,0.105
29.676,-0.980,-0.439,0.104
29.686,-0.975,-0.443,0.104
29.696,-0.973,-0.453,0.104
29.706,-0.969,-0.453,0.102
29.716,-0.973,-0.449,0.104
29.726,-0.967,-0.449,0.104
29.736,-0.969,-0.451,0.102
29.746,-0.971,-0.441,0.102
29.756,-0.971,-0.436,0.104
29.766,-0.973,-0.445,0.104
29.775,-0.977,-0.443,0.100
29.785,-0.980,-0.438,0.100
29.795,-0.982,-0.439,0.100
29.805,-0.979,-0.445,0.104
29.815,-0.977,-0.449,0.104
29.825,-0.973,-0.445,0.100
29.835,-0.973,-0.447,0.104
29.845,-0.967,-0.449,0.102
29.855,-0.961,-0.455,0.105
29.865,-0.957,-0.461,0.104
29.875,-0.963,-0.453,0.104
29.885,-0.969,-0.449,0.102
29.895,-0.975,-0.451,0.100
29.904,-0.975,-0.447,0.102
29.914,-0.977,-0.449,0.100
29.924,-0.979,-0.449,0.102
29.934,-0.973,-0.447,0.100
29.944,-0.969,-0.447,0.098
29.954,-0.971,-0.447,0.098
29.964,-0.969,-0.449,0.102
29.974,-0.967,-0.447,0.098
29.984,-0.975,-0.445,0.102
29.994,-0.980,-0.445,0.104
30.004,-0.979,-0.445,0.100
30.014,-0.980,-0.447,0.102
30.024,-0.982,-0.445,0.104
30.033,-0.977,-0.451,0.100
30.043,-0.973,-0.449,0.105
30.053,-0.969,-0.445,0.105
30.063,-0.967,-0.441,0.105
30.073,-0.967,-0.443,0.105
30.083,-0.965,-0.445,0.105
30.093,-0.967,-0.449,0.107
30.103,-0.965,-0.455,0.104
30.113,-0.971,-0.459,0.104
30.123,-0.975,-0.453,0.104
30.133,-0.975,-0.449,0.104
30.143,-0.977,-0.447,0.104
30.153,-0.975,-0.449,0.100
30.162,-0.975,-0.447,0.100
30.172,-0.973,-0.447,0.102
30.182,-0.969,-0.445,0.096
30.192,-0.969,-0.445,0.100
30.202,-0.971,-0.449,0.100
30.212,-0.975,-0.451,0.096
30.222,-0.975,-0.449,0.098
30.232,-0.977,-0.451,0.102
30.242,-0.975,-0.445,0.098
30.252,-0.979,-0.443,0.100
30.262,-0.977,-0.445,0.100
30.272,-0.975,-0.449,0.102
30.282,-0.973,-0.451,0.102
30.291,-0.971,-0.453,0.100
30.301,-0.971,-0.443,0.102
30.311,-0.971,-0.445,0.107
30.321,-0.975,-0.443,0.104
30.331,-0.969,-0.445,0.102
30.341,-0.969,-0.453,0.102
30.351,-0.967,-0.453,0.102
30.361,-0.973,-0.451,0.100
30.371,-0.973,-0.445,0.104
30.381,-0.975,-0.445,0.104
30.391,-0.977,-0.443,0.102
30.401,-0.977,-0.445,0.104
30.411,-0.979,-0.445,0.102
30.420,-0.977,-0.449,0.102
30.430,-0.975,-0.451,0.100
30.440,-0.967,-0.451,0.102
30.450,-0.969,-0.447,0.100
30.460,-0.965,-0.447,0.100
30.470,-0.965,-0.447,0.102
30.480,-0.969,-0.447,0.104
30.490,-0.971,-0.451,0.100
30.500,-0.975,-0.451,0.102
30.510,-0.975,-0.447,0.100
30.520,-0.977,-0.449,0.096
30.530,-0.975,-0.447,0.096
30.540,-0.973,-0.445,0.096
30.550,-0.969,-0.449,0.098
30.559,-0.967,-0.447,0.098
30.569,-0.969,-0.453,0.098
30.579,-0.971,-0.453,0.098
30.589,-0.973,-0.453,0.098
30.599,-0.980,-0.451,0.104
30.609,-0.980,-0.447,0.098
30.619,-0.979,-0.445,0.104
30.629,-0.979,-0.441,0.104
30.639,-0.973,-0.438,0.104
30.649,-0.975,-0.441,0.104
30.659,-0.973,-0.443,0.107
30.669,-0.971,-0.443,0.104
30.679,-0.973,-0.445,0.105
30.688,-0.973,-0.445,0.105
30.698,-0.971,-0.447,0.105
30.708,-0.969,-0.443,0.109
30.718,-0.969,-0.453,0.105
30.728,-0.971,-0.459,0.104
30.738,-0.971,-0.455,0.104
30.748,-0.975,-0.447,0.104
30.758,-0.977,-0.441,0.104
30.768,-0.977,-0.441,0.104
30.778,-0.977,-0.439,0.098
30.788,-0.973,-0.443,0.100
30.798,-0.975,-0.445,0.094
30.808,-0.977,-0.451,0.092
30.817,-0.975,-0.449,0.092
30.827,-0.975,-0.447,0.092
30.837,-0.977,-0.447,0.092
30.847,-0.979,-0.445,0.096
30.857,-0.979,-0.443,0.096
30.867,-0.979,-0.443,0.096
30.877,-0.977,-0.447,0.100
30.887,-0.975,-0.449,0.100
30.897,-0.969,-0.447,0.100
30.907,-0.969,-0.453,0.102
30.917,-0.971,-0.451,0.100
30.927,-0.967,-0.447,0.102
30.937,-0.973,-0.443,0.102
30.946,-0.967,-0.445,0.104
30.956,-0.963,-0.449,0.105
30.966,-0.969,-0.451,0.104
30.976,-0.971,-0.449,0.104
30.986,-0.973,-0.445,0.102
30.996,-0.977,-0.443,0.102
31.006,-0.979,-0.445,0.104
31.016,-0.977,-0.441,0.104
31.026,-0.979,-0.443,0.105
31.036,-0.975,-0.447,0.105
31.046,-0.977,-0.447,0.104
31.056,-0.973,-0.449,0.100
31.066,-0.971,-0.447,0.104
31.075,-0.973,-0.447,0.104
31.085,-0.969,-0.445,0.104
31.095,-0.969,-0.445,0.104
31.105,-0.969,-0.449,0.102
31.115,-0.973,-0.447,0.102
31.125,-0.973,-0.451,0.102
31.135,-0.973,-0.449,0.102
31.145,-0.971,-0.447,0.100
31.155,-0.973,-0.445,0.102
31.165,-0.969,-0.451,0.100
31.175,-0.973,-0.447,0.102
31.185,-0.969,-0.451,0.102
31.195,-0.973,-0.451,0.102
31.204,-0.973,-0.451,0.100
31.214,-0.975,-0.449,0.100
31.224,-0.975,-0.449,0.098
31.234,-0.979,-0.451,0.102
31.244,-0.975,-0.451,0.098
31.254,-0.979,-0.447,0.102
31.264,-0.977,-0.443,0.104
31.274,-0.973,-0.441,0.104
31.284,-0.973,-0.443,0.105
31.294,-0.969,-0.445,0.105
31.304,-0.965,-0.449,0.107
31.314,-0.967,-0.449,0.104
31.324,-0.971,-0.449,0.105
31.334,-0.971,-0.449,0.105
31.343,-0.971,-0.451,0.105
31.353,-0.975,-0.453,0.105
31.363,-0.971,-0.453,0.104
31.373,-0.969,-0.447,0.105
31.383,-0.969,-0.447,0.102
31.393,-0.977,-0.443,0.102
31.403,-0.975,-0.443,0.100
31.413,-0.975,-0.441,0.102
31.423,-0.969,-0.453,0.098
31.433,-0.973,-0.451,0.094
31.443,-0.973,-0.453,0.098
31.453,-0.977,-0.449,0.096
31.463,-0.971,-0.447,0.098
31.472,-0.979,-0.447,0.096
31.482,-0.979,-0.445,0.094
31.492,-0.977,-0.449,0.094
31.502,-0.977,-0.449,0.094
31.512,-0.973,-0.447,0.098
31.522,-0.971,-0.451,0.100
31.532,-0.971,-0.447,0.102
31.542,-0.967,-0.449,0.096
31.552,-0.967,-0.447,0.100
31.562,-0.969,-0.447,0.104
31.572,-0.971,-0.445,0.100
31.582,-0.969,-0.449,0.098
31.592,-0.969,-0.455,0.094
31.601,-0.971,-0.451,0.096
31.611,-0.973,-0.445,0.100
31.621,-0.977,-0.445,0.096
31.631,-0.980,-0.438,0.102
31.641,-0.980,-0.441,0.098
31.651,-0.979,-0.447,0.100
31.661,-0.977,-0.443,0.102
31.671,-0.977,-0.443,0.102
31.681,-0.973,-0.445,0.100
31.691,-0.969,-0.447,0.102
31.701,-0.967,-0.449,0.102
31.711,-0.973,-0.447,0.104
31.721,-0.969,-0.449,0.100
31.730,-0.967,-0.447,0.100
31.740,-0.973,-0.447,0.102
31.750,-0.973,-0.451,0.098
31.760,-0.973,-0.449,0.098
31.770,-0.975,-0.449,0.098
31.780,-0.973,-0.443,0.100
31.790,-0.977,-0.447,0.102
31.800,-0.975,-0.447,0.098
31.810,-0.975,-0.451,0.102
31.820,-0.971,-0.447,0.100
31.830,-0.975,-0.449,0.098
31.840,-0.975,-0.445,0.102
31.850,-0.977,-0.445,0.102
31.859,-0.977,-0.449,0.102
31.869,-0.973,-0.447,0.100
31.879,-0.979,-0.443,0.102
31.889,-0.971,-0.447,0.104
31.899,-0.971,-0.445,0.105
31.909,-0.971,-0.447,0.104
31.919,-0.967,-0.443,0.104
31.929,-0.971,-0.441,0.107
31.939,-0.969,-0.441,0.105
31.949,-0.969,-0.441,0.105
31.959,-0.973,-0.443,0.107
31.969,-0.973,-0.453,0.105
31.979,-0.977,-0.457,0.104
31.988,-0.977,-0.453,0.104
31.998,-0.982,-0.445,0.104
32.008,-0.979,-0.441,0.104
32.018,-0.980,-0.443,0.098
32.028,-0.977,-0.441,0.102
32.038,-0.973,-0.443,0.094
32.048,-0.967,-0.447,0.096
32.058,-0.969,-0.445,0.098
32.068,-0.971,-0.447,0.098
32.078,-0.969,-0.447,0.098
32.088,-0.977,-0.443,0.096
32.098,-0.979,-0.447,0.094
32.108,-0.980,-0.445,0.096
32.117,-0.980,-0.445,0.096
32.127,-0.979,-0.445,0.098
32.137,-0.973,-0.447,0.100
32.147,-0.973,-0.451,0.100
32.157,-0.973,-0.447,0.094
32.167,-0.975,-0.443,0.098
32.177,-0.969,-0.438,0.102
32.187,-0.969,-0.438,0.105
32.197,-0.973,-0.443,0.105
32.207,-0.975,-0.455,0.104
32.217,-0.973,-0.453,0.100
32.227,-0.973,-0.451,0.104
32.237,-0.977,-0.449,0.102
32.247,-0.982,-0.439,0.102
32.256,-0.982,-0.436,0.104
32.266,-0.980,-0.436,0.104
32.276,-0.979,-0.438,0.104
32.286,-0.973,-0.441,0.104
32.296,-0.971,-0.445,0.104
32.306,-0.965,-0.447,0.102
32.316,-0.965,-0.447,0.102
32.326,-0.971,-0.447,0.100
32.336,-0.971,-0.447,0.100
32.346,-0.980,-0.445,0.104
32.356,-0.977,-0.445,0.100
32.366,-0.980,-0.443,0.102
32.376,-0.979,-0.447,0.100
32.385,-0.975,-0.441,0.102
32.395,-0.971,-0.445,0.104
32.405,-0.969,-0.443,0.104
32.415,-0.967,-0.447,0.100
32.425,-0.967,-0.445,0.100
32.435,-0.969,-0.445,0.098
32.445,-0.975,-0.447,0.100
32.455,-0.980,-0.447,0.098
32.465,-0.979,-0.447,0.098
32.475,-0.980,-0.445,0.098
32.485,-0.979,-0.445,0.102
32.495,-0.980,-0.445,0.102
32.505,-0.973,-0.441,0.104
32.514,-0.969,-0.439,0.104
32.524,-0.969,-0.445,0.102
32.534,-0.967,-0.445,0.104
32.544,-0.967,-0.445,0.102
32.554,-0.965,-0.439,0.105
32.564,-0.971,-0.436,0.104
32.574,-0.971,-0.436,0.104
32.584,-0.975,-0.439,0.107
32.594,-0.975,-0.447,0.104
32.604,-0.980,-0.455,0.102
32.614,-0.980,-0.453,0.098
32.624,-0.984,-0.449,0.096
32.634,-0.984,-0.441,0.098
32.643,-0.984,-0.436,0.096
32.653,-0.982,-0.441,0.096
32.663,-0.975,-0.443,0.092
32.673,-0.977,-0.445,0.096
32.683,-0.975,-0.443,0.092
32.693,-0.973,-0.445,0.094
32.703,-0.969,-0.449,0.094
32.713,-0.973,-0.447,0.096
32.723,-0.971,-0.443,0.096
32.733,-0.975,-0.439,0.098
32.743,-0.975,-0.441,0.098
32.753,-0.975,-0.441,0.100
32.763,-0.973,-0.443,0.100
32.772,-0.975,-0.445,0.100
32.782,-0.975,-0.449,0.096
32.792,-0.975,-0.451,0.096
32.802,-0.975,-0.447,0.102
32.812,-0.971,-0.439,0.102
32.822,-0.975,-0.439,0.104
32.832,-0.975,-0.443,0.102
32.842,-0.973,-0.451,0.100
32.852,-0.971,-0.447,0.100
32.862,-0.977,-0.447,0.102
32.872,-0.975,-0.445,0.100
32.882,-0.980,-0.438,0.104
32.892,-0.980,-0.438,0.100
32.901,-0.977,-0.439,0.104
32.911,-0.975,-0.443,0.104
32.921,-0.977,-0.447,0.100
32.931,-0.973,-0.447,0.104
32.941,-0.969,-0.447,0.104
32.951,-0.971,-0.445,0.102
32.961,-0.971,-0.445,0.105
32.971,-0.969,-0.447,0.102
32.981,-0.969,-0.445,0.104
32.991,-0.971,-0.445,0.104
33.001,-0.973,-0.443,0.102
33.011,-0.971,-0.441,0.100
33.021,-0.975,-0.447,0.104
33.031,-0.975,-0.445,0.100
33.040,-0.973,-0.447,0.102
33.050,-0.973,-0.445,0.102
33.060,-0.973,-0.445,0.100
33.070,-0.975,-0.445,0.100
33.080,-0.979,-0.445,0.098
33.090,-0.979,-0.441,0.100
33.100,-0.979,-0.443,0.102
33.110,-0.975,-0.443,0.100
33.120,-0.977,-0.443,0.098
33.130,-0.973,-0.443,0.100
33.140,-0.971,-0.445,0.100
33.150,-0.969,-0.441,0.102
33.160,-0.973,-0.443,0.100
33.169,-0.975,-0.443,0.100
33.179,-0.975,-0.443,0.098
33.189,-0.979,-0.445,0.098
33.199,-0.975,-0.447,0.096
33.209,-0.975,-0.443,0.098
33.219,-0.977,-0.441,0.096
33.229,-0.975,-0.438,0.100
33.239,-0.975,-0.439,0.102
33.249,-0.971,-0.441,0.100
33.259,-0.975,-0.443,0.100
33.269,-0.980,-0.441,0.100
33.279,-0.975,-0.443,0.104
33.289,-0.979,-0.445,0.104
33.298,-0.973,-0.449,0.107
33.308,-0.969,-0.457,0.100
33.318,-0.971,-0.459,0.104
33.328,-0.969,-0.449,0.100
33.338,-0.971,-0.445,0.104
33.348,-0.975,-0.439,0.100
33.358,-0.975,-0.441,0.098
33.368,-0.977,-0.439,0.096
33.378,-0.975,-0.443,0.094
33.388,-0.971,-0.445,0.098
33.398,-0.975,-0.447,0.098
33.408,-0.977,-0.447,0.094
33.418,-0.979,-0.449,0.096
33.427,-0.980,-0.445,0.094
33.437,-0.980,-0.439,0.092
33.447,-0.979,-0.438,0.102
33.457,-0.979,-0.439,0.098
33.467,-0.980,-0.441,0.100
33.477,-0.975,-0.443,0.100
33.487,-0.971,-0.445,0.102
33.497,-0.967,-0.449,0.100
33.507,-0.967,-0.451,0.098
33.517,-0.971,-0.441,0.105
33.527,-0.973,-0.441,0.102
33.537,-0.973,-0.441,0.102
33.547,-0.971,-0.445,0.102
33.556,-0.975,-0.449,0.104
33.566,-0.973,-0.449,0.100
33.576,-0.975,-0.443,0.104
33.586,-0.977,-0.443,0.104
33.596,-0.979,-0.443,0.102
33.606,-0.979,-0.441,0.098
33.616,-0.980,-0.439,0.104
33.626,-0.975,-0.443,0.100
33.636,-0.975,-0.443,0.096
33.646,-0.971,-0.441,0.100
33.656,-0.969,-0.441,0.098
33.666,-0.973,-0.443,0.098
33.676,-0.975,-0.441,0.096
33.685,-0.969,-0.441,0.094
33.695,-0.975,-0.445,0.096
33.705,-0.977,-0.445,0.096
33.715,-0.979,-0.445,0.096
33.725,-0.977,-0.445,0.092
33.735,-0.977,-0.447,0.094
33.745,-0.977,-0.447,0.096
33.755,-0.973,-0.445,0.094
33.765,-0.971,-0.445,0.096
33.775,-0.973,-0.445,0.098
33.785,-0.975,-0.443,0.098
33.795,-0.973,-0.443,0.098
33.805,-0.973,-0.443,0.102
33.814,-0.977,-0.447,0.104
33.824,-0.975,-0.449,0.100
33.834,-0.973,-0.449,0.102
33.844,-0.973,-0.447,0.102
33.854,-0.973,-0.443,0.104
33.864,-0.973,-0.441,0.102
33.874,-0.971,-0.443,0.104
33.884,-0.971,-0.445,0.102
33.894,-0.973,-0.445,0.102
33.904,-0.973,-0.447,0.102
33.914,-0.971,-0.447,0.100
33.924,-0.977,-0.447,0.102
33.934,-0.977,-0.445,0.100
33.944,-0.977,-0.443,0.100
33.953,-0.975,-0.443,0.102
33.963,-0.975,-0.438,0.105
33.973,-0.973,-0.443,0.104
33.983,-0.975,-0.451,0.102
33.993,-0.975,-0.447,0.102
34.003,-0.973,-0.439,0.102
34.013,-0.973,-0.441,0.104
34.023,-0.973,-0.441,0.104
34.033,-0.969,-0.447,0.102
34.043,-0.971,-0.453,0.104
34.053,-0.967,-0.457,0.100
34.063,-0.967,-0.453,0.100
34.073,-0.971,-0.447,0.102
34.082,-0.979,-0.445,0.102
34.092,-0.979,-0.443,0.096
34.102,-0.975,-0.443,0.098
34.112,-0.975,-0.441,0.092
34.122,-0.973,-0.441,0.094
34.132,-0.973,-0.443,0.092
34.142,-0.975,-0.441,0.090
34.152,-0.977,-0.441,0.094
34.162,-0.979,-0.443,0.092
34.172,-0.982,-0.443,0.096
34.182,-0.982,-0.443,0.096
34.192,-0.979,-0.445,0.096
34.202,-0.975,-0.445,0.096
34.211,-0.973,-0.443,0.098
34.221,-0.969,-0.445,0.100
34.231,-0.971,-0.449,0.100
34.241,-0.971,-0.447,0.104
34.251,-0.973,-0.443,0.105
34.261,-0.971,-0.443,0.102
34.271,-0.973,-0.449,0.105
34.281,-0.969,-0.453,0.102
34.291,-0.969,-0.453,0.105
34.301,-0.973,-0.451,0.098
34.311,-0.977,-0.445,0.100
34.321,-0.979,-0.439,0.102
34.331,-0.977,-0.438,0.100
34.340,-0.979,-0.438,0.100
34.350,-0.979,-0.441,0.100
34.360,-0.977,-0.441,0.098
34.370,-0.980,-0.445,0.100
34.380,-0.977,-0.447,0.100
34.390,-0.975,-0.447,0.104
34.400,-0.969,-0.449,0.096
34.410,-0.969,-0.449,0.100
34.420,-0.969,-0.447,0.096
34.430,-0.973,-0.443,0.100
34.440,-0.975,-0.439,0.096
34.450,-0.969,-0.443,0.098
34.460,-0.971,-0.441,0.102
34.469,-0.975,-0.445,0.096
34.479,-0.973,-0.441,0.096
34.489,-0.975,-0.445,0.096
34.499,-0.980,-0.447,0.096
34.509,-0.980,-0.447,0.102
34.519,-0.979,-0.447,0.098
34.529,-0.977,-0.451,0.100
34.539,-0.973,-0.445,0.098
34.549,-0.971,-0.447,0.100
34.559,-0.975,-0.443,0.098
34.569,-0.973,-0.447,0.102
34.579,-0.977,-0.441,0.104
34.589,-0.975,-0.443,0.102
34.598,-0.973,-0.439,0.102
34.608,-0.969,-0.445,0.102
34.618,-0.971,-0.445,0.102
34.628,-0.971,-0.441,0.104
34.638,-0.973,-0.441,0.105
34.648,-0.975,-0.445,0.104
34.658,-0.977,-0.451,0.102
34.668,-0.979,-0.453,0.100
34.678,-0.973,-0.447,0.100
34.688,-0.973,-0.447,0.100
34.698,-0.973,-0.441,0.105
34.708,-0.975,-0.441,0.105
34.718,-0.975,-0.441,0.104
34.728,-0.973,-0.441,0.100
34.737,-0.973,-0.449,0.104
34.747,-0.969,-0.447,0.104
34.757,-0.973,-0.445,0.104
34.767,-0.973,-0.447,0.105
34.777,-0.977,-0.451,0.107
34.787,-0.977,-0.453,0.104
34.797,-0.973,-0.455,0.098
34.807,-0.967,-0.455,0.098
34.817,-0.965,-0.447,0.098
34.827,-0.967,-0.438,0.100
34.837,-0.977,-0.439,0.100
34.847,-0.980,-0.445,0.102
34.857,-0.979,-0.445,0.094
34.866,-0.977,-0.443,0.096
34.876,-0.973,-0.445,0.098
34.886,-0.977,-0.443,0.096
34.896,-0.977,-0.443,0.096
34.906,-0.977,-0.445,0.094
34.916,-0.975,-0.447,0.096
34.926,-0.977,-0.443,0.100
34.936,-0.975,-0.447,0.098
34.946,-0.971,-0.441,0.098
34.956,-0.971,-0.445,0.102
34.966,-0.973,-0.447,0.102
34.976,-0.971,-0.451,0.098
34.986,-0.967,-0.447,0.100
34.995,-0.967,-0.445,0.100
35.005,-0.967,-0.438,0.105
35.015,-0.971,-0.439,0.107
35.025,-0.971,-0.441,0.102
35.035,-0.977,-0.451,0.100
35.045,-0.975,-0.459,0.098
35.055,-0.977,-0.455,0.098
35.065,-0.973,-0.445,0.105
35.075,-0.977,-0.439,0.100
35.085,-0.980,-0.438,0.104
35.095,-0.979,-0.438,0.098
35.105,-0.977,-0.441,0.102
35.115,-0.975,-0.447,0.100
35.124,-0.973,-0.451,0.098
35.134,-0.969,-0.449,0.100
35.144,-0.967,-0.449,0.100
35.154,-0.969,-0.447,0.100
35.164,-0.969,-0.447,0.102
35.174,-0.971,-0.447,0.098
35.184,-0.973,-0.445,0.098
35.194,-0.979,-0.445,0.098
35.204,-0.977,-0.443,0.100
35.214,-0.975,-0.447,0.098
35.224,-0.973,-0.449,0.098
35.234,-0.975,-0.445,0.098
35.244,-0.971,-0.449,0.100
35.253,-0.975,-0.449,0.100
35.263,-0.973,-0.445,0.100
35.273,-0.971,-0.445,0.098
35.283,-0.977,-0.443,0.100
35.293,-0.975,-0.449,0.100
35.303,-0.975,-0.453,0.098
35.313,-0.973,-0.449,0.100
35.323,-0.975,-0.449,0.100
35.333,-0.973,-0.449,0.102
35.343,-0.971,-0.449,0.096
35.353,-0.971,-0.445,0.102
35.363,-0.971,-0.443,0.100
35.373,-0.969,-0.447,0.102
35.382,-0.975,-0.443,0.098
35.392,-0.975,-0.439,0.102
35.402,-0.975,-0.441,0.102
35.412,-0.973,-0.449,0.096
35.422,-0.975,-0.453,0.100
35.432,-0.971,-0.451,0.100
35.442,-0.969,-0.443,0.102
35.452,-0.969,-0.445,0.102
35.462,-0.973,-0.441,0.104
35.472,-0.973,-0.447,0.102
35.482,-0.975,-0.451,0.102
35.492,-0.973,-0.451,0.098
35.502,-0.977,-0.451,0.102
35.511,-0.975,-0.447,0.102
35.521,-0.979,-0.449,0.100
35.531,-0.975,-0.443,0.094
35.541,-0.975,-0.439,0.098
35.551,-0.975,-0.443,0.094
35.561,-0.975,-0.443,0.092
35.571,-0.975,-0.447,0.098
35.581,-0.975,-0.441,0.100
35.591,-0.977,-0.445,0.098
35.601,-0.977,-0.447,0.098
35.611,-0.977,-0.449,0.100
35.621,-0.979,-0.449,0.098
35.631,-0.975,-0.449,0.102
35.641,-0.973,-0.445,0.100
35.650,-0.969,-0.447,0.104
35.660,-0.971,-0.447,0.100
35.670,-0.969,-0.447,0.100
35.680,-0.971,-0.445,0.102
35.690,-0.973,-0.441,0.102
35.700,-0.973,-0.439,0.104
35.710,-0.971,-0.441,0.104
35.720,-0.975,-0.447,0.104
35.730,-0.971,-0.447,0.102
35.740,-0.973,-0.449,0.102
35.750,-0.973,-0.449,0.105
35.760,-0.977,-0.443,0.102
35.770,-0.975,-0.441,0.105
35.779,-0.977,-0.445,0.102
35.789,-0.979,-0.441,0.100
35.799,-0.975,-0.443,0.100
35.809,-0.975,-0.447,0.104
35.819,-0.973,-0.447,0.098
35.829,-0.975,-0.443,0.100
35.839,-0.971,-0.443,0.100
35.849,-0.969,-0.443,0.096
35.859,-0.971,-0.443,0.100
35.869,-0.971,-0.445,0.100
35.879,-0.973,-0.445,0.102
35.889,-0.973,-0.443,0.100
35.899,-0.977,-0.443,0.100
35.908,-0.975,-0.445,0.098
35.918,-0.973,-0.445,0.102
35.928,-0.971,-0.447,0.104
35.938,-0.977,-0.447,0.102
35.948,-0.977,-0.441,0.104
35.958,-0.975,-0.445,0.102
35.968,-0.973,-0.449,0.104
35.978,-0.973,-0.449,0.102
35.988,-0.973,-0.449,0.102
35.998,-0.971,-0.449,0.104
36.008,-0.969,-0.447,0.105
36.018,-0.975,-0.449,0.104
36.028,-0.975,-0.445,0.100
36.037,-0.977,-0.439,0.105
36.047,-0.977,-0.439,0.098
36.057,-0.979,-0.439,0.100
36.067,-0.979,-0.439,0.104
36.077,-0.979,-0.439,0.098
36.087,-0.975,-0.445,0.105
36.097,-0.975,-0.443,0.102
36.107,-0.973,-0.443,0.104
36.117,-0.975,-0.439,0.102
36.127,-0.969,-0.443,0.107
36.137,-0.971,-0.441,0.109
36.147,-0.971,-0.445,0.107
36.157,-0.971,-0.451,0.102
36.166,-0.969,-0.453,0.104
36.176,-0.969,-0.455,0.104
36.186,-0.975,-0.445,0.105
36.196,-0.977,-0.439,0.102
36.206,-0.977,-0.439,0.100
36.216,-0.973,-0.441,0.100
36.226,-0.975,-0.449,0.100
36.236,-0.975,-0.443,0.096
36.246,-0.975,-0.447,0.098
36.256,-0.977,-0.445,0.098
36.266,-0.973,-0.443,0.094
36.276,-0.977,-0.443,0.094
36.286,-0.975,-0.445,0.096
36.295,-0.980,-0.445,0.094
36.305,-0.977,-0.441,0.096
36.315,-0.979,-0.441,0.098
36.325,-0.979,-0.443,0.098
36.335,-0.973,-0.445,0.098
36.345,-0.971,-0.451,0.100
36.355,-0.977,-0.451,0.096
36.365,-0.973,-0.445,0.100
36.375,-0.971,-0.439,0.100
36.385,-0.973,-0.439,0.104
36.395,-0.975,-0.441,0.098
36.405,-0.971,-0.447,0.102
36.415,-0.975,-0.451,0.098
36.425,-0.977,-0.443,0.100
36.434,-0.980,-0.441,0.102
36.444,-0.979,-0.439,0.104
36.454,-0.980,-0.441,0.105
36.464,-0.980,-0.441,0.102
36.474,-0.977,-0.443,0.104
36.484,-0.973,-0.443,0.104
36.494,-0.973,-0.445,0.104
36.504,-0.969,-0.443,0.105
36.514,-0.965,-0.447,0.104
36.524,-0.969,-0.445,0.109
36.534,-0.969,-0.441,0.107
36.544,-0.965,-0.443,0.105
36.554,-0.969,-0.441,0.105
36.563,-0.973,-0.443,0.104
36.573,-0.975,-0.443,0.102
36.583,-0.971,-0.443,0.102
36.593,-0.973,-0.447,0.105
36.603,-0.975,-0.449,0.105
36.613,-0.975,-0.449,0.102
36.623,-0.975,-0.445,0.102
36.633,-0.977,-0.443,0.102
36.643,-0.975,-0.443,0.102
36.653,-0.975,-0.447,0.102
36.663,-0.977,-0.443,0.102
36.673,-0.979,-0.447,0.104
36.683,-0.977,-0.443,0.102
36.692,-0.971,-0.445,0.102
36.702,-0.973,-0.445,0.102
36.712,-0.969,-0.443,0.105
36.722,-0.973,-0.443,0.100
36.732,-0.975,-0.443,0.104
36.742,-0.973,-0.439,0.098
36.752,-0.975,-0.436,0.100
36.762,-0.977,-0.439,0.100
36.772,-0.977,-0.441,0.100
36.782,-0.975,-0.445,0.102
36.792,-0.975,-0.441,0.100
36.802,-0.977,-0.443,0.104
36.812,-0.973,-0.443,0.105
36.821,-0.973,-0.443,0.105
36.831,-0.969,-0.447,0.104
36.841,-0.965,-0.455,0.104
36.851,-0.971,-0.457,0.102
36.861,-0.969,-0.453,0.100
36.871,-0.971,-0.443,0.098
36.881,-0.977,-0.441,0.104
36.891,-0.975,-0.441,0.100
36.901,-0.977,-0.445,0.100
36.911,-0.975,-0.447,0.096
36.921,-0.973,-0.447,0.092
36.931,-0.973,-0.445,0.100
36.941,-0.975,-0.447,0.090
36.950,-0.975,-0.441,0.092
36.960,-0.977,-0.439,0.092
36.970,-0.979,-0.441,0.092
36.980,-0.980,-0.439,0.092
36.990,-0.980,-0.443,0.096
37.000,-0.979,-0.445,0.096
37.010,-0.977,-0.445,0.100
37.020,-0.975,-0.449,0.102
37.030,-0.973,-0.453,0.100
37.040,-0.971,-0.447,0.102
37.050,-0.971,-0.439,0.100
37.060,-0.971,-0.439,0.104
37.070,-0.971,-0.438,0.102
37.079,-0.971,-0.443,0.105
37.089,-0.969,-0.447,0.102
37.099,-0.967,-0.451,0.105
37.109,-0.973,-0.449,0.102
37.119,-0.979,-0.445,0.102
37.129,-0.977,-0.445,0.102
37.139,-0.975,-0.445,0.102
37.149,-0.977,-0.439,0.102
37.159,-0.977,-0.439,0.104
37.169,-0.975,-0.443,0.104
37.179,-0.973,-0.447,0.104
37.189,-0.969,-0.453,0.100
37.199,-0.969,-0.447,0.100
37.208,-0.969,-0.447,0.098
37.218,-0.967,-0.447,0.102
37.228,-0.969,-0.449,0.102
37.238,-0.971,-0.447,0.102
37.248,-0.973,-0.445,0.100
37.258,-0.977,-0.443,0.096
37.268,-0.973,-0.447,0.098
37.278,-0.979,-0.443,0.100
37.288,-0.977,-0.447,0.098
37.298,-0.975,-0.447,0.098
37.308,-0.969,-0.451,0.098
37.318,-0.973,-0.445,0.096
37.328,-0.973,-0.445,0.096
37.338,-0.973,-0.441,0.098
37.347,-0.973,-0.443,0.096
37.357,-0.977,-0.445,0.096
37.367,-0.979,-0.449,0.098
37.377,-0.975,-0.445,0.094
37.387,-0.975,-0.445,0.098
37.397,-0.975,-0.447,0.098
37.407,-0.973,-0.445,0.094
37.417,-0.975,-0.445,0.098
37.427,-0.973,-0.447,0.094
37.437,-0.971,-0.443,0.096
37.447,-0.973,-0.439,0.098
37.457,-0.975,-0.436,0.098
37.467,-0.975,-0.445,0.100
37.476,-0.973,-0.451,0.098
37.486,-0.973,-0.445,0.102
37.496,-0.973,-0.443,0.102
37.506,-0.975,-0.449,0.102
37.516,-0.971,-0.447,0.102
37.526,-0.969,-0.449,0.105
37.536,-0.965,-0.455,0.104
37.546,-0.969,-0.457,0.104
37.556,-0.967,-0.457,0.102
37.566,-0.971,-0.447,0.102
37.576,-0.975,-0.441,0.102
37.586,-0.979,-0.445,0.096
37.596,-0.977,-0.441,0.098
37.605,-0.975,-0.449,0.094
37.615,-0.973,-0.445,0.094
37.625,-0.975,-0.447,0.096
37.635,-0.973,-0.445,0.094
37.645,-0.975,-0.445,0.096
37.655,-0.975,-0.443,0.094
37.665,-0.977,-0.445,0.094
37.675,-0.977,-0.441,0.100
37.685,-0.977,-0.443,0.094
37.695,-0.977,-0.447,0.100
37.705,-0.975,-0.445,0.100
37.715,-0.975,-0.449,0.100
37.725,-0.973,-0.447,0.102
37.734,-0.975,-0.451,0.100
37.744,-0.971,-0.441,0.104
37.754,-0.975,-0.443,0.104
37.764,-0.971,-0.443,0.104
37.774,-0.965,-0.445,0.105
37.784,-0.967,-0.449,0.102
37.794,-0.969,-0.453,0.105
37.804,-0.971,-0.449,0.107
37.814,-0.975,-0.447,0.105
37.824,-0.975,-0.443,0.104
37.834,-0.975,-0.443,0.104
37.844,-0.973,-0.449,0.102
37.854,-0.969,-0.449,0.102
37.863,-0.967,-0.451,0.100
37.873,-0.969,-0.449,0.100
37.883,-0.973,-0.443,0.092
37.893,-0.973,-0.439,0.090
37.903,-0.971,-0.443,0.094
37.913,-0.977,-0.443,0.084
37.923,-0.975,-0.441,0.086
37.933,-0.979,-0.443,0.090
37.943,-0.980,-0.441,0.084
37.953,-0.979,-0.441,0.086
37.963,-0.979,-0.441,0.088
37.973,-0.980,-0.445,0.088
37.983,-0.980,-0.445,0.086
37.992,-0.979,-0.447,0.084
38.002,-0.977,-0.447,0.090
38.012,-0.973,-0.449,0.090
38.022,-0.977,-0.445,0.092
38.032,-0.975,-0.447,0.092
38.042,-0.973,-0.449,0.094
38.052,-0.971,-0.449,0.098
38.062,-0.973,-0.449,0.100
38.072,-0.973,-0.443,0.105
38.082,-0.973,-0.445,0.100
38.092,-0.975,-0.441,0.102
38.102,-0.971,-0.443,0.107
38.112,-0.973,-0.449,0.109
38.121,-0.971,-0.447,0.107
38.131,-0.971,-0.445,0.111
38.141,-0.971,-0.443,0.109
38.151,-0.971,-0.443,0.107
38.161,-0.973,-0.449,0.109
38.171,-0.967,-0.453,0.109
38.181,-0.967,-0.449,0.113
38.191,-0.969,-0.441,0.111
38.201,-0.969,-0.445,0.109
38.211,-0.967,-0.447,0.109
38.221,-0.975,-0.449,0.105
38.231,-0.973,-0.451,0.102
38.241,-0.979,-0.453,0.098
38.251,-0.984,-0.443,0.100
38.260,-0.984,-0.441,0.098
38.270,-0.986,-0.438,0.098
38.280,-0.982,-0.445,0.096
38.290,-0.975,-0.449,0.096
38.300,-0.971,-0.447,0.092
38.310,-0.973,-0.451,0.096
38.320,-0.969,-0.441,0.098
38.330,-0.965,-0.436,0.098
38.340,-0.969,-0.439,0.096
38.350,-0.973,-0.439,0.100
38.360,-0.973,-0.438,0.100
38.370,-0.977,-0.449,0.100
38.380,-0.973,-0.447,0.102
38.389,-0.971,-0.447,0.104
38.399,-0.967,-0.447,0.102
38.409,-0.969,-0.445,0.102
38.419,-0.969,-0.447,0.104
38.429,-0.969,-0.445,0.102
38.439,-0.971,-0.438,0.105
38.449,-0.975,-0.441,0.104
38.459,-0.975,-0.445,0.104
38.469,-0.975,-0.449,0.102
38.479,-0.975,-0.451,0.102
38.489,-0.977,-0.447,0.104
38.499,-0.979,-0.447,0.102
38.509,-0.980,-0.445,0.102
38.518,-0.980,-0.443,0.102
38.528,-0.979,-0.443,0.102
38.538,-0.977,-0.443,0.100
38.548,-0.971,-0.443,0.100
38.558,-0.971,-0.447,0.102
38.568,-0.969,-0.447,0.102
38.578,-0.965,-0.445,0.098
38.588,-0.969,-0.447,0.100
38.598,-0.969,-0.443,0.102
38.608,-0.971,-0.449,0.102
38.618,-0.975,-0.449,0.096
38.628,-0.973,-0.447,0.094
38.638,-0.975,-0.445,0.098
38.647,-0.979,-0.445,0.100
38.657,-0.979,-0.443,0.100
38.667,-0.979,-0.445,0.098
38.677,-0.975,-0.447,0.102
38.687,-0.973,-0.451,0.098
38.697,-0.971,-0.449,0.102
38.707,-0.969,-0.449,0.104
38.717,-0.973,-0.449,0.102
38.727,-0.969,-0.443,0.104
38.737,-0.971,-0.445,0.105
38.747,-0.971,-0.445,0.105
38.757,-0.969,-0.447,0.105
38.767,-0.971,-0.445,0.104
38.776,-0.971,-0.441,0.105
38.786,-0.973,-0.439,0.104
38.796,-0.973,-0.441,0.104
38.806,-0.973,-0.445,0.102
38.816,-0.971,-0.445,0.104
38.826,-0.967,-0.447,0.105
38.836,-0.977,-0.445,0.104
38.846,-0.977,-0.445,0.105
38.856,-0.975,-0.441,0.104
38.866,-0.975,-0.449,0.100
38.876,-0.980,-0.455,0.102
38.886,-0.973,-0.449,0.102
38.896,-0.975,-0.445,0.098
38.905,-0.977,-0.441,0.102
38.915,-0.977,-0.443,0.105
38.925,-0.973,-0.447,0.102
38.935,-0.971,-0.445,0.098
38.945,-0.971,-0.443,0.100
38.955,-0.969,-0.447,0.100
38.965,-0.971,-0.445,0.096
38.975,-0.973,-0.445,0.100
38.985,-0.973,-0.443,0.098
38.995,-0.979,-0.447,0.100
39.005,-0.980,-0.445,0.100
39.015,-0.977,-0.445,0.100
39.025,-0.975,-0.439,0.100
39.035,-0.977,-0.443,0.102
39.044,-0.975,-0.445,0.100
39.054,-0.973,-0.447,0.102
39.064,-0.971,-0.447,0.100
39.074,-0.973,-0.449,0.102
39.084,-0.969,-0.441,0.107
39.094,-0.973,-0.441,0.109
39.104,-0.973,-0.439,0.104
39.114,-0.967,-0.445,0.102
39.124,-0.969,-0.453,0.102
39.134,-0.977,-0.451,0.104
39.144,-0.977,-0.443,0.105
39.154,-0.982,-0.441,0.104
39.164,-0.980,-0.438,0.100
39.173,-0.982,-0.438,0.104
39.183,-0.979,-0.438,0.104
39.193,-0.979,-0.443,0.104
39.203,-0.971,-0.441,0.102
39.213,-0.967,-0.449,0.104
39.223,-0.969,-0.445,0.105
39.233,-0.967,-0.451,0.107
39.243,-0.971,-0.443,0.107
39.253,-0.971,-0.443,0.109
39.263,-0.971,-0.443,0.107
39.273,-0.973,-0.445,0.107
39.283,-0.973,-0.443,0.102
39.293,-0.971,-0.443,0.107
39.302,-0.971,-0.447,0.104
39.312,-0.973,-0.445,0.100
39.322,-0.969,-0.449,0.102
39.332,-0.969,-0.449,0.104
39.342,-0.973,-0.449,0.102
39.352,-0.973,-0.443,0.100
39.362,-0.975,-0.443,0.102
39.372,-0.979,-0.445,0.102
39.382,-0.979,-0.445,0.100
39.392,-0.980,-0.445,0.100
39.402,-0.979,-0.441,0.102
39.412,-0.977,-0.441,0.104
39.422,-0.977,-0.443,0.104
39.431,-0.971,-0.443,0.100
39.441,-0.971,-0.439,0.102
39.451,-0.971,-0.438,0.107
39.461,-0.969,-0.441,0.105
39.471,-0.965,-0.439,0.107
39.481,-0.969,-0.441,0.109
39.491,-0.969,-0.449,0.107
39.501,-0.973,-0.453,0.102
39.511,-0.971,-0.451,0.102
39.521,-0.979,-0.447,0.105
39.531,-0.982,-0.443,0.104
39.541,-0.980,-0.443,0.102
39.551,-0.980,-0.443,0.104
39.560,-0.977,-0.445,0.102
39.570,-0.973,-0.443,0.100
39.580,-0.973,-0.439,0.100
39.590,-0.975,-0.439,0.096
39.600,-0.973,-0.441,0.098
39.610,-0.975,-0.443,0.100
39.620,-0.982,-0.445,0.100
39.630,-0.984,-0.439,0.100
39.640,-0.984,-0.445,0.098
39.650,-0.986,-0.443,0.098
39.660,-0.984,-0.443,0.098
39.670,-0.979,-0.438,0.104
39.680,-0.971,-0.441,0.102
39.689,-0.969,-0.447,0.100
39.699,-0.963,-0.445,0.102
39.709,-0.955,-0.443,0.111
39.719,-0.961,-0.445,0.111
39.729,-0.969,-0.449,0.109
39.739,-0.971,-0.453,0.109
39.749,-0.973,-0.455,0.107
39.759,-0.977,-0.453,0.107
39.769,-0.982,-0.445,0.105
39.779,-0.979,-0.441,0.107
39.789,-0.975,-0.443,0.107
39.799,-0.971,-0.449,0.105
39.809,-0.969,-0.445,0.104
39.819,-0.965,-0.445,0.105
39.828,-0.965,-0.447,0.107
39.838,-0.967,-0.447,0.105
39.848,-0.971,-0.443,0.104
39.858,-0.971,-0.443,0.102
39.868,-0.969,-0.443,0.105
39.878,-0.975,-0.447,0.104
39.888,-0.977,-0.451,0.100
39.898,-0.971,-0.449,0.102
39.908,-0.973,-0.447,0.100
39.918,-0.969,-0.449,0.102
39.928,-0.969,-0.447,0.102
39.938,-0.969,-0.445,0.100
39.948,-0.971,-0.445,0.098
39.957,-0.971,-0.445,0.096
39.967,-0.975,-0.447,0.098
39.977,-0.975,-0.449,0.098
39.987,-0.975,-0.449,0.100
39.997,-0.980,-0.449,0.096
40.007,-0.979,-0.445,0.098
40.017,-0.979,-0.445,0.100
40.027,-0.977,-0.443,0.098
40.037,-0.975,-0.443,0.100
40.047,-0.975,-0.441,0.098
40.057,-0.973,-0.439,0.100
40.067,-0.971,-0.441,0.105
40.077,-0.969,-0.447,0.105
40.086,-0.973,-0.445,0.104
40.096,-0.971,-0.443,0.107
40.106,-0.969,-0.443,0.107
40.116,-0.969,-0.445,0.107
40.126,-0.969,-0.449,0.107
40.136,-0.969,-0.453,0.109
40.146,-0.967,-0.457,0.105
40.156,-0.965,-0.457,0.105
40.166,-0.965,-0.453,0.109
40.176,-0.971,-0.445,0.109
40.186,-0.973,-0.443,0.105
40.196,-0.977,-0.445,0.104
40.206,-0.975,-0.447,0.100
40.215,-0.977,-0.455,0.096
40.225,-0.975,-0.449,0.100
40.235,-0.975,-0.449,0.094
40.245,-0.969,-0.447,0.098
40.255,-0.973,-0.445,0.096
40.265,-0.971,-0.443,0.092
40.275,-0.975,-0.441,0.096
40.285,-0.980,-0.439,0.096
40.295,-0.977,-0.441,0.098
40.305,-0.977,-0.445,0.096
40.315,-0.977,-0.451,0.096
40.325,-0.977,-0.453,0.096
40.335,-0.973,-0.453,0.094
40.344,-0.971,-0.445,0.096
40.354,-0.975,-0.439,0.098
40.364,-0.973,-0.439,0.098
40.374,-0.969,-0.445,0.100
40.384,-0.971,-0.451,0.100
40.394,-0.973,-0.453,0.100
40.404,-0.973,-0.451,0.098
40.414,-0.975,-0.447,0.100
40.424,-0.979,-0.443,0.102
40.434,-0.977,-0.441,0.102
40.444,-0.979,-0.445,0.100
40.454,-0.977,-0.445,0.102
40.464,-0.973,-0.445,0.102
40.473,-0.971,-0.449,0.102
40.483,-0.967,-0.451,0.104
40.493,-0.965,-0.449,0.100
40.503,-0.965,-0.445,0.105
40.513,-0.969,-0.447,0.104
40.523,-0.969,-0.447,0.102
40.533,-0.969,-0.447,0.098
40.543,-0.971,-0.447,0.102
40.553,-0.975,-0.451,0.100
40.563,-0.977,-0.449,0.098
40.573,-0.973,-0.449,0.098
40.583,-0.975,-0.447,0.098
40.593,-0.973,-0.445,0.098
40.602,-0.975,-0.445,0.100
40.612,-0.975,-0.447,0.096
40.622,-0.979,-0.441,0.100
40.632,-0.977,-0.445,0.098
40.642,-0.975,-0.445,0.098
40.652,-0.975,-0.447,0.098
40.662,-0.973,-0.451,0.102
40.672,-0.971,-0.447,0.098
40.682,-0.971,-0.447,0.102
40.692,-0.969,-0.449,0.100
40.702,-0.971,-0.445,0.098
40.712,-0.975,-0.449,0.102
40.722,-0.975,-0.445,0.098
40.732,-0.973,-0.447,0.100
40.741,-0.971,-0.443,0.100
40.751,-0.975,-0.443,0.100
40.761,-0.971,-0.441,0.100
40.771,-0.973,-0.445,0.102
40.781,-0.973,-0.447,0.100
40.791,-0.975,-0.447,0.104
40.801,-0.971,-0.443,0.102
40.811,-0.975,-0.447,0.100
40.821,-0.975,-0.451,0.102
40.831,-0.971,-0.459,0.100
40.841,-0.969,-0.461,0.098
40.851,-0.967,-0.457,0.096
40.861,-0.973,-0.451,0.100
40.870,-0.973,-0.443,0.096
40.880,-0.977,-0.441,0.102
40.890,-0.977,-0.441,0.098
40.900,-0.975,-0.445,0.096
40.910,-0.973,-0.447,0.094
40.920,-0.971,-0.445,0.096
40.930,-0.967,-0.445,0.092
40.940,-0.977,-0.443,0.094
40.950,-0.973,-0.443,0.094
40.960,-0.975,-0.445,0.094
40.970,-0.980,-0.445,0.096
40.980,-0.979,-0.441,0.098
40.990,-0.977,-0.441,0.100
40.999,-0.973,-0.447,0.102
41.009,-0.971,-0.447,0.102
41.019,-0.969,-0.447,0.100
41.029,-0.969,-0.453,0.102
41.039,-0.967,-0.447,0.100
41.049,-0.969,-0.445,0.102
41.059,-0.971,-0.441,0.104
41.069,-0.971,-0.443,0.105
41.079,-0.969,-0.451,0.104
41.089,-0.969,-0.451,0.102
41.099,-0.973,-0.453,0.100
41.109,-0.975,-0.449,0.098
41.119,-0.979,-0.445,0.100
41.128,-0.977,-0.445,0.104
41.138,-0.977,-0.445,0.096
41.148,-0.977,-0.445,0.102
41.158,-0.977,-0.447,0.098
41.168,-0.979,-0.443,0.098
41.178,-0.977,-0.445,0.096
41.188,-0.975,-0.445,0.098
41.198,-0.973,-0.439,0.098
41.208,-0.967,-0.443,0.098
41.218,-0.969,-0.445,0.098
41.228,-0.971,-0.449,0.100
41.238,-0.973,-0.451,0.096
41.248,-0.971,-0.451,0.102
41.257,-0.969,-0.445,0.104
41.267,-0.971,-0.449,0.100
41.277,-0.977,-0.451,0.098
41.287,-0.973,-0.447,0.102
41.297,-0.973,-0.447,0.098
41.307,-0.975,-0.449,0.100
41.317,-0.971,-0.449,0.102
41.327,-0.975,-0.445,0.100
41.337,-0.977,-0.445,0.100
41.347,-0.971,-0.441,0.102
41.357,-0.979,-0.445,0.100
41.367,-0.975,-0.441,0.100
41.377,-0.973,-0.441,0.100
41.386,-0.969,-0.447,0.100
41.396,-0.971,-0.449,0.098
41.406,-0.969,-0.447,0.100
41.416,-0.973,-0.443,0.104
41.426,-0.973,-0.445,0.100
41.436,-0.973,-0.447,0.102
41.446,-0.975,-0.449,0.100
41.456,-0.975,-0.447,0.102
41.466,-0.975,-0.443,0.102
41.476,-0.973,-0.441,0.100
41.486,-0.975,-0.439,0.100
41.496,-0.975,-0.439,0.102
41.506,-0.973,-0.447,0.096
41.516,-0.973,-0.451,0.094
41.525,-0.975,-0.449,0.094
41.535,-0.971,-0.447,0.098
41.545,-0.973,-0.449,0.100
41.555,-0.973,-0.441,0.102
41.565,-0.973,-0.449,0.100
41.575,-0.975,-0.457,0.100
41.585,-0.977,-0.451,0.096
41.595,-0.977,-0.447,0.098
41.605,-0.979,-0.445,0.100
41.615,-0.975,-0.443,0.098
41.625,-0.975,-0.447,0.098
41.635,-0.971,-0.449,0.098
41.645,-0.967,-0.447,0.094
41.654,-0.969,-0.455,0.100
41.664,-0.967,-0.449,0.100
41.674,-0.967,-0.451,0.098
41.684,-0.971,-0.447,0.098
41.694,-0.977,-0.443,0.100
41.704,-0.977,-0.443,0.100
41.714,-0.977,-0.447,0.104
41.724,-0.971,-0.445,0.100
41.734,-0.973,-0.449,0.102
41.744,-0.971,-0.451,0.104
41.754,-0.969,-0.449,0.102
41.764,-0.967,-0.449,0.102
41.774,-0.971,-0.443,0.105
41.783,-0.969,-0.438,0.102
41.793,-0.973,-0.439,0.105
41.803,-0.973,-0.443,0.104
41.813,-0.973,-0.449,0.100
41.823,-0.973,-0.453,0.100
41.833,-0.977,-0.451,0.102
41.843,-0.979,-0.443,0.100
41.853,-0.982,-0.438,0.102
41.863,-0.980,-0.436,0.102
41.873,-0.979,-0.441,0.102
41.883,-0.975,-0.445,0.102
41.893,-0.971,-0.451,0.100
41.903,-0.967,-0.453,0.098
41.912,-0.967,-0.449,0.098
41.922,-0.969,-0.447,0.100
41.932,-0.969,-0.443,0.098
41.942,-0.973,-0.445,0.100
41.952,-0.973,-0.449,0.098
41.962,-0.973,-0.451,0.098
41.972,-0.973,-0.449,0.100
41.982,-0.975,-0.451,0.098
41.992,-0.975,-0.455,0.094
42.002,-0.975,-0.453,0.098
42.012,-0.969,-0.451,0.094
42.022,-0.971,-0.449,0.098
42.032,-0.973,-0.445,0.094
42.041,-0.975,-0.447,0.096
42.051,-0.975,-0.447,0.096
42.061,-0.979,-0.449,0.098
42.071,-0.975,-0.453,0.098
42.081,-0.971,-0.455,0.100
42.091,-0.971,-0.449,0.100
42.101,-0.971,-0.453,0.100
42.111,-0.971,-0.449,0.104
42.121,-0.971,-0.451,0.102
42.131,-0.971,-0.451,0.104
42.141,-0.969,-0.451,0.100
42.151,-0.971,-0.443,0.104
42.161,-0.973,-0.439,0.102
42.170,-0.975,-0.436,0.104
42.180,-0.977,-0.439,0.098
42.190,-0.975,-0.447,0.104
42.200,-0.973,-0.455,0.102
42.210,-0.967,-0.451,0.105
42.220,-0.973,-0.445,0.105
42.230,-0.971,-0.449,0.105
42.240,-0.973,-0.443,0.109
42.250,-0.977,-0.445,0.105
42.260,-0.973,-0.449,0.098
42.270,-0.975,-0.453,0.094
42.280,-0.973,-0.453,0.100
42.290,-0.973,-0.447,0.098
42.299,-0.977,-0.445,0.098
42.309,-0.977,-0.445,0.092
42.319,-0.977,-0.445,0.096
42.329,-0.973,-0.449,0.092
42.339,-0.975,-0.453,0.092
42.349,-0.971,-0.449,0.092
42.359,-0.971,-0.447,0.090
42.369,-0.971,-0.445,0.094
42.379,-0.977,-0.451,0.092
42.389,-0.979,-0.447,0.090
42.399,-0.979,-0.447,0.098
42.409,-0.975,-0.447,0.098
42.419,-0.977,-0.447,0.096
42.429,-0.971,-0.451,0.100
42.438,-0.969,-0.461,0.102
42.448,-0.963,-0.455,0.104
42.458,-0.969,-0.455,0.100
42.468,-0.967,-0.449,0.102
42.478,-0.963,-0.438,0.109
42.488,-0.967,-0.438,0.105
42.498,-0.971,-0.441,0.105
42.508,-0.975,-0.447,0.104
42.518,-0.973,-0.451,0.100
42.528,-0.979,-0.453,0.104
42.538,-0.980,-0.449,0.104
42.548,-0.979,-0.445,0.104
42.558,-0.977,-0.443,0.100
42.567,-0.975,-0.441,0.102
42.577,-0.971,-0.441,0.100
42.587,-0.973,-0.441,0.102
42.597,-0.975,-0.443,0.098
42.607,-0.969,-0.443,0.096
42.617,-0.975,-0.443,0.098
42.627,-0.977,-0.443,0.096
42.637,-0.977,-0.449,0.094
42.647,-0.977,-0.449,0.098
42.657,-0.975,-0.449,0.094
42.667,-0.975,-0.447,0.098
42.677,-0.971,-0.449,0.098
42.687,-0.969,-0.447,0.100
42.696,-0.973,-0.441,0.100
42.706,-0.969,-0.447,0.100
42.716,-0.969,-0.453,0.102
42.726,-0.971,-0.449,0.100
42.736,-0.975,-0.449,0.102
42.746,-0.975,-0.447,0.102
42.756,-0.973,-0.451,0.105
42.766,-0.971,-0.451,0.100
42.776,-0.973,-0.451,0.102
42.786,-0.969,-0.449,0.102
42.796,-0.969,-0.447,0.104
42.806,-0.969,-0.445,0.102
42.816,-0.969,-0.438,0.102
42.825,-0.979,-0.438,0.105
42.835,-0.977,-0.439,0.102
42.845,-0.973,-0.443,0.104
42.855,-0.975,-0.447,0.102
42.865,-0.977,-0.445,0.102
42.875,-0.973,-0.447,0.104
42.885,-0.973,-0.445,0.104
42.895,-0.973,-0.443,0.102
42.905,-0.971,-0.451,0.104
42.915,-0.975,-0.453,0.102
42.925,-0.973,-0.451,0.100
42.935,-0.975,-0.445,0.100
42.945,-0.977,-0.439,0.104
42.954,-0.973,-0.443,0.100
42.964,-0.971,-0.443,0.100
42.974,-0.973,-0.449,0.100
42.984,-0.975,-0.447,0.096
42.994,-0.971,-0.445,0.096
43.004,-0.971,-0.443,0.098
43.014,-0.975,-0.441,0.098
43.024,-0.975,-0.441,0.100
43.034,-0.979,-0.443,0.094
43.044,-0.977,-0.443,0.096
43.054,-0.975,-0.445,0.096
43.064,-0.977,-0.449,0.100
43.074,-0.973,-0.447,0.100
43.083,-0.973,-0.447,0.100
43.093,-0.973,-0.449,0.100
43.103,-0.973,-0.447,0.102
43.113,-0.971,-0.445,0.104
43.123,-0.973,-0.441,0.105
43.133,-0.971,-0.441,0.104
43.143,-0.965,-0.447,0.104
43.153,-0.969,-0.451,0.100
43.163,-0.969,-0.449,0.098
43.173,-0.973,-0.441,0.105
43.183,-0.973,-0.443,0.105
43.193,-0.977,-0.443,0.104
43.203,-0.977,-0.445,0.104
43.212,-0.977,-0.445,0.100
43.222,-0.975,-0.449,0.098
43.232,-0.971,-0.443,0.102
43.242,-0.977,-0.443,0.102
43.252,-0.975,-0.443,0.098
43.262,-0.971,-0.441,0.098
43.272,-0.971,-0.445,0.098
43.282,-0.973,-0.445,0.098
43.292,-0.973,-0.441,0.100
43.302,-0.975,-0.443,0.100
43.312,-0.975,-0.449,0.102
43.322,-0.973,-0.451,0.100
43.332,-0.971,-0.447,0.100
43.342,-0.973,-0.445,0.102
43.351,-0.973,-0.447,0.096
43.361,-0.971,-0.445,0.100
43.371,-0.973,-0.445,0.098
43.381,-0.975,-0.445,0.096
43.391,-0.975,-0.445,0.096
43.401,-0.973,-0.445,0.098
43.411,-0.971,-0.447,0.102
43.421,-0.973,-0.451,0.104
43.431,-0.973,-0.451,0.100
43.441,-0.975,-0.445,0.100
43.451,-0.973,-0.441,0.100
43.461,-0.977,-0.443,0.102
43.471,-0.975,-0.439,0.102
43.480,-0.977,-0.439,0.098
43.490,-0.977,-0.441,0.102
43.500,-0.973,-0.443,0.102
43.510,-0.973,-0.441,0.104
43.520,-0.975,-0.439,0.104
43.530,-0.975,-0.445,0.102
43.540,-0.971,-0.445,0.102
43.550,-0.969,-0.443,0.105
43.560,-0.967,-0.451,0.107
43.570,-0.969,-0.459,0.104
43.580,-0.971,-0.453,0.102
43.590,-0.973,-0.447,0.102
43.600,-0.975,-0.443,0.102
43.609,-0.979,-0.443,0.102
43.619,-0.980,-0.447,0.100
43.629,-0.979,-0.445,0.098
43.639,-0.979,-0.447,0.094
43.649,-0.971,-0.443,0.096
43.659,-0.973,-0.447,0.094
43.669,-0.971,-0.439,0.096
43.679,-0.975,-0.441,0.096
43.689,-0.977,-0.445,0.096
43.699,-0.979,-0.443,0.098
43.709,-0.979,-0.443,0.098
43.719,-0.977,-0.445,0.098
43.729,-0.975,-0.449,0.096
43.738,-0.973,-0.447,0.098
43.748,-0.969,-0.447,0.102
43.758,-0.975,-0.447,0.102
43.768,-0.967,-0.443,0.096
43.778,-0.973,-0.441,0.102
43.788,-0.973,-0.439,0.100
43.798,-0.971,-0.445,0.104
43.808,-0.969,-0.451,0.102
43.818,-0.971,-0.451,0.100
43.828,-0.971,-0.447,0.102
43.838,-0.975,-0.447,0.096
43.848,-0.979,-0.441,0.100
43.858,-0.982,-0.443,0.102
43.867,-0.977,-0.445,0.100
43.877,-0.977,-0.443,0.098
43.887,-0.973,-0.447,0.102
43.897,-0.973,-0.447,0.102
43.907,-0.973,-0.447,0.100
43.917,-0.969,-0.443,0.100
43.927,-0.973,-0.443,0.102
43.937,-0.967,-0.443,0.098
43.947,-0.971,-0.445,0.102
43.957,-0.969,-0.447,0.100
43.967,-0.973,-0.447,0.100
43.977,-0.975,-0.445,0.100
43.987,-0.975,-0.443,0.098
43.996,-0.975,-0.447,0.096
44.006,-0.975,-0.445,0.096
44.016,-0.977,-0.447,0.098
44.026,-0.977,-0.445,0.094
44.036,-0.979,-0.445,0.096
44.046,-0.971,-0.445,0.102
44.056,-0.973,-0.447,0.096
44.066,-0.973,-0.445,0.104
44.076,-0.975,-0.449,0.098
44.086,-0.975,-0.447,0.100
44.096,-0.971,-0.443,0.100
44.106,-0.971,-0.445,0.102
44.116,-0.973,-0.445,0.100
44.126,-0.971,-0.445,0.102
44.135,-0.971,-0.447,0.100
44.145,-0.975,-0.445,0.102
44.155,-0.975,-0.449,0.100
44.165,-0.971,-0.445,0.098
44.175,-0.975,-0.439,0.100
44.185,-0.979,-0.439,0.102
44.195,-0.973,-0.443,0.098
44.205,-0.977,-0.447,0.098
44.215,-0.973,-0.443,0.098
44.225,-0.977,-0.445,0.102
44.235,-0.977,-0.445,0.100
44.245,-0.971,-0.447,0.105
44.255,-0.967,-0.455,0.102
44.264,-0.967,-0.455,0.104
44.274,-0.969,-0.457,0.102
44.284,-0.967,-0.451,0.100
44.294,-0.971,-0.445,0.102
44.304,-0.979,-0.443,0.100
44.314,-0.979,-0.447,0.098
44.324,-0.973,-0.447,0.096
44.334,-0.973,-0.449,0.094
44.344,-0.977,-0.447,0.092
44.354,-0.975,-0.447,0.096
44.364,-0.973,-0.443,0.094
44.374,-0.973,-0.441,0.092
44.384,-0.977,-0.441,0.092
44.393,-0.975,-0.441,0.094
44.403,-0.975,-0.445,0.094
44.413,-0.977,-0.447,0.098
44.423,-0.975,-0.445,0.098
44.433,-0.973,-0.449,0.100
44.443,-0.973,-0.453,0.102
44.453,-0.973,-0.451,0.096
44.463,-0.969,-0.451,0.102
44.473,-0.969,-0.445,0.104
44.483,-0.967,-0.441,0.102
44.493,-0.967,-0.443,0.104
44.503,-0.967,-0.447,0.100
44.513,-0.971,-0.453,0.100
44.522,-0.973,-0.449,0.102
44.532,-0.979,-0.447,0.100
44.542,-0.980,-0.449,0.096
44.552,-0.980,-0.445,0.098
44.562,-0.979,-0.445,0.100
44.572,-0.977,-0.445,0.100
44.582,-0.977,-0.447,0.098
44.592,-0.971,-0.449,0.100
44.602,-0.967,-0.445,0.102
44.612,-0.967,-0.443,0.100
44.622,-0.971,-0.445,0.096
44.632,-0.971,-0.441,0.098
44.642,-0.973,-0.443,0.100
44.651,-0.975,-0.447,0.098
44.661,-0.977,-0.447,0.096
44.671,-0.971,-0.449,0.098
44.681,-0.975,-0.449,0.098
44.691,-0.977,-0.447,0.096
44.701,-0.975,-0.443,0.102
44.711,-0.971,-0.445,0.098
44.721,-0.973,-0.443,0.100
44.731,-0.973,-0.445,0.096
44.741,-0.973,-0.445,0.098
44.751,-0.975,-0.443,0.098
44.761,-0.975,-0.445,0.102
44.771,-0.975,-0.445,0.098
44.780,-0.975,-0.447,0.100
44.790,-0.973,-0.443,0.100
44.800,-0.973,-0.445,0.102
44.810,-0.971,-0.445,0.102
44.820,-0.971,-0.445,0.100
44.830,-0.971,-0.445,0.104
44.840,-0.971,-0.449,0.102
44.850,-0.973,-0.449,0.098
44.860,-0.973,-0.445,0.100
44.870,-0.977,-0.447,0.102
44.880,-0.975,-0.441,0.100
44.890,-0.975,-0.443,0.104
44.900,-0.977,-0.449,0.104
44.910,-0.975,-0.445,0.100
44.919,-0.971,-0.447,0.104
44.929,-0.973,-0.445,0.102
44.939,-0.971,-0.441,0.104
44.949,-0.967,-0.443,0.107
44.959,-0.965,-0.455,0.105
44.969,-0.969,-0.461,0.102
44.979,-0.973,-0.457,0.102
44.989,-0.973,-0.447,0.098
44.999,-0.977,-0.445,0.107
45.009,-0.979,-0.436,0.102
45.019,-0.975,-0.439,0.102
45.029,-0.975,-0.445,0.098
45.039,-0.967,-0.447,0.096
45.048,-0.973,-0.447,0.098
45.058,-0.975,-0.447,0.094
45.068,-0.975,-0.447,0.094
45.078,-0.979,-0.445,0.094
45.088,-0.980,-0.443,0.096
45.098,-0.980,-0.445,0.098
45.108,-0.975,-0.443,0.096
45.118,-0.975,-0.443,0.100
45.128,-0.973,-0.449,0.100
45.138,-0.971,-0.449,0.098
45.148,-0.965,-0.445,0.104
45.158,-0.971,-0.453,0.098
45.168,-0.969,-0.451,0.104
45.177,-0.967,-0.441,0.104
45.187,-0.967,-0.438,0.105
45.197,-0.967,-0.443,0.105
45.207,-0.969,-0.449,0.102
45.217,-0.971,-0.453,0.104
45.227,-0.973,-0.453,0.102
45.237,-0.980,-0.449,0.100
45.247,-0.984,-0.443,0.102
45.257,-0.982,-0.445,0.102
45.267,-0.977,-0.439,0.102
45.277,-0.979,-0.438,0.100
45.287,-0.975,-0.445,0.100
45.297,-0.971,-0.449,0.102
45.306,-0.965,-0.451,0.096
45.316,-0.967,-0.447,0.096
45.326,-0.967,-0.449,0.098
45.336,-0.969,-0.447,0.098
45.346,-0.971,-0.443,0.102
45.356,-0.973,-0.445,0.096
45.366,-0.973,-0.441,0.096
45.376,-0.975,-0.443,0.098
45.386,-0.975,-0.445,0.096
45.396,-0.971,-0.447,0.098
45.406,-0.979,-0.447,0.100
45.416,-0.977,-0.441,0.098
45.426,-0.975,-0.443,0.100
45.435,-0.973,-0.445,0.102
45.445,-0.975,-0.451,0.098
45.455,-0.975,-0.451,0.096
45.465,-0.973,-0.449,0.102
45.475,-0.973,-0.453,0.102
45.485,-0.977,-0.451,0.100
45.495,-0.973,-0.451,0.104
45.505,-0.975,-0.449,0.104
45.515,-0.971,-0.445,0.104
45.525,-0.969,-0.451,0.104
45.535,-0.969,-0.445,0.102
45.545,-0.969,-0.439,0.102
45.555,-0.969,-0.443,0.100
45.564,-0.973,-0.445,0.100
45.574,-0.973,-0.449,0.102
45.584,-0.971,-0.451,0.102
45.594,-0.971,-0.447,0.104
45.604,-0.973,-0.441,0.100
45.614,-0.975,-0.445,0.100
45.624,-0.973,-0.443,0.105
45.634,-0.969,-0.449,0.100
45.644,-0.971,-0.459,0.100
45.654,-0.971,-0.459,0.100
45.664,-0.971,-0.451,0.098
45.674,-0.969,-0.445,0.102
45.684,-0.973,-0.445,0.100
45.693,-0.971,-0.447,0.100
45.703,-0.971,-0.445,0.100
45.713,-0.971,-0.447,0.098
45.723,-0.967,-0.447,0.098
45.733,-0.969,-0.445,0.096
45.743,-0.971,-0.445,0.096
45.753,-0.975,-0.443,0.094
45.763,-0.979,-0.447,0.100
45.773,-0.979,-0.447,0.096
45.783,-0.979,-0.445,0.096
45.793,-0.977,-0.447,0.100
45.803,-0.977,-0.445,0.100
45.813,-0.969,-0.445,0.102
45.823,-0.969,-0.449,0.102
45.832,-0.967,-0.447,0.100
45.842,-0.967,-0.451,0.100
45.852,-0.971,-0.443,0.102
45.862,-0.977,-0.443,0.104
45.872,-0.975,-0.439,0.104
45.882,-0.971,-0.447,0.098
45.892,-0.971,-0.453,0.104
45.902,-0.975,-0.453,0.102
45.912,-0.975,-0.447,0.102
45.922,-0.973,-0.445,0.105
45.932,-0.979,-0.441,0.104
45.942,-0.975,-0.443,0.104
45.952,-0.971,-0.447,0.102
45.961,-0.973,-0.447,0.100
45.971,-0.973,-0.447,0.098
45.981,-0.973,-0.445,0.098
45.991,-0.969,-0.449,0.100
46.001,-0.975,-0.447,0.098
46.011,-0.973,-0.443,0.102
46.021,-0.973,-0.443,0.100
46.031,-0.971,-0.441,0.100
46.041,-0.971,-0.443,0.098
46.051,-0.973,-0.449,0.096
46.061,-0.975,-0.451,0.098
46.071,-0.975,-0.451,0.102
46.081,-0.973,-0.449,0.098
46.090,-0.973,-0.447,0.102
46.100,-0.971,-0.443,0.102
46.110,-0.975,-0.445,0.104
46.120,-0.973,-0.445,0.100
46.130,-0.977,-0.445,0.098
46.140,-0.977,-0.445,0.102
46.150,-0.975,-0.447,0.100
46.160,-0.975,-0.449,0.100
46.170,-0.971,-0.447,0.104
46.180,-0.973,-0.441,0.102
46.190,-0.971,-0.439,0.104
46.200,-0.975,-0.439,0.102
46.210,-0.973,-0.447,0.102
46.219,-0.969,-0.443,0.102
46.229,-0.973,-0.443,0.104
46.239,-0.975,-0.447,0.102
46.249,-0.971,-0.445,0.107
46.259,-0.971,-0.447,0.107
46.269,-0.971,-0.445,0.109
46.279,-0.973,-0.455,0.105
46.289,-0.971,-0.459,0.102
46.299,-0.969,-0.453,0.104
46.309,-0.973,-0.447,0.102
46.319,-0.975,-0.443,0.100
46.329,-0.977,-0.441,0.102
46.339,-0.977,-0.443,0.102
46.348,-0.973,-0.445,0.098
46.358,-0.971,-0.445,0.096
46.368,-0.971,-0.443,0.096
46.378,-0.975,-0.443,0.092
46.388,-0.973,-0.449,0.094
46.398,-0.977,-0.445,0.094
46.408,-0.977,-0.445,0.098
46.418,-0.977,-0.443,0.098
46.428,-0.979,-0.443,0.096
46.438,-0.979,-0.443,0.098
46.448,-0.977,-0.445,0.096
46.458,-0.973,-0.447,0.096
46.468,-0.973,-0.447,0.096
46.477,-0.973,-0.447,0.098
46.487,-0.969,-0.443,0.102
46.497,-0.971,-0.441,0.102
46.507,-0.971,-0.441,0.104
46.517,-0.969,-0.445,0.104
46.527,-0.965,-0.453,0.104
46.537,-0.969,-0.453,0.102
46.547,-0.971,-0.449,0.102
46.557,-0.975,-0.443,0.104
46.567,-0.977,-0.443,0.102
46.577,-0.979,-0.441,0.104
46.587,-0.980,-0.443,0.102
46.597,-0.977,-0.447,0.102
46.607,-0.973,-0.445,0.104
46.616,-0.969,-0.445,0.102
46.626,-0.973,-0.449,0.100
46.636,-0.967,-0.447,0.100
46.646,-0.967,-0.449,0.104
46.656,-0.971,-0.447,0.102
46.666,-0.971,-0.445,0.098
46.676,-0.973,-0.445,0.102
46.686,-0.977,-0.445,0.100
46.696,-0.977,-0.447,0.100
46.706,-0.975,-0.449,0.098
46.716,-0.975,-0.449,0.100
46.726,-0.971,-0.445,0.096
46.736,-0.971,-0.443,0.098
46.745,-0.973,-0.443,0.098
46.755,-0.971,-0.439,0.102
46.765,-0.977,-0.449,0.100
46.775,-0.973,-0.447,0.102
46.785,-0.973,-0.449,0.100
46.795,-0.975,-0.451,0.098
46.805,-0.975,-0.449,0.100
46.815,-0.975,-0.443,0.098
46.825,-0.973,-0.443,0.102
46.835,-0.975,-0.445,0.100
46.845,-0.973,-0.441,0.100
46.855,-0.975,-0.436,0.104
46.865,-0.979,-0.438,0.105
46.874,-0.975,-0.443,0.104
46.884,-0.973,-0.439,0.102
46.894,-0.975,-0.441,0.102
46.904,-0.973,-0.443,0.104
46.914,-0.971,-0.447,0.102
46.924,-0.971,-0.443,0.105
46.934,-0.967,-0.449,0.104
46.944,-0.969,-0.451,0.104
46.954,-0.971,-0.451,0.104
46.964,-0.971,-0.449,0.104
46.974,-0.975,-0.445,0.102
46.984,-0.975,-0.445,0.100
46.994,-0.979,-0.443,0.104
47.003,-0.977,-0.441,0.098
47.013,-0.971,-0.449,0.098
47.023,-0.973,-0.449,0.100
47.033,-0.971,-0.449,0.098
47.043,-0.973,-0.449,0.094
47.053,-0.971,-0.445,0.096
47.063,-0.975,-0.443,0.098
47.073,-0.977,-0.441,0.098
47.083,-0.979,-0.438,0.100
47.093,-0.977,-0.439,0.098
47.103,-0.979,-0.443,0.100
47.113,-0.977,-0.447,0.098
47.123,-0.973,-0.451,0.102
47.132,-0.973,-0.453,0.100
47.142,-0.969,-0.453,0.100
47.152,-0.971,-0.443,0.105
47.162,-0.973,-0.439,0.105
47.172,-0.973,-0.436,0.104
47.182,-0.969,-0.445,0.104
47.192,-0.969,-0.451,0.100
47.202,-0.971,-0.447,0.104
47.212,-0.975,-0.447,0.102
47.222,-0.979,-0.443,0.104
47.232,-0.975,-0.439,0.102
47.242,-0.977,-0.443,0.104
47.252,-0.977,-0.443,0.104
47.261,-0.973,-0.441,0.102
47.271,-0.975,-0.443,0.100
47.281,-0.971,-0.439,0.100
47.291,-0.971,-0.443,0.102
47.301,-0.973,-0.445,0.100
47.311,-0.973,-0.445,0.100
47.321,-0.973,-0.445,0.098
47.331,-0.975,-0.447,0.096
47.341,-0.975,-0.445,0.098
47.351,-0.975,-0.445,0.096
47.361,-0.973,-0.447,0.096
47.371,-0.973,-0.449,0.096
47.381,-0.973,-0.447,0.098
47.390,-0.971,-0.447,0.098
47.400,-0.977,-0.449,0.100
47.410,-0.977,-0.445,0.102
47.420,-0.977,-0.445,0.100
47.430,-0.977,-0.449,0.098
47.440,-0.977,-0.451,0.098
47.450,-0.975,-0.447,0.098
47.460,-0.971,-0.451,0.102
47.470,-0.967,-0.445,0.102
47.480,-0.969,-0.443,0.098
47.490,-0.969,-0.445,0.096
47.500,-0.969,-0.445,0.102
47.510,-0.977,-0.443,0.102
47.520,-0.979,-0.447,0.100
47.529,-0.977,-0.443,0.102
47.539,-0.977,-0.441,0.102
47.549,-0.979,-0.438,0.102
47.559,-0.975,-0.443,0.102
47.569,-0.971,-0.445,0.104
47.579,-0.975,-0.447,0.102
47.589,-0.973,-0.438,0.102
47.599,-0.973,-0.439,0.102
47.609,-0.973,-0.443,0.102
47.619,-0.969,-0.447,0.107
47.629,-0.971,-0.451,0.105
47.639,-0.969,-0.457,0.102
47.649,-0.971,-0.457,0.102
47.658,-0.971,-0.453,0.104
47.668,-0.973,-0.441,0.100
47.678,-0.977,-0.439,0.098
47.688,-0.979,-0.445,0.100
47.698,-0.973,-0.445,0.098
47.708,-0.971,-0.451,0.098
47.718,-0.973,-0.449,0.096
47.728,-0.975,-0.447,0.094
47.738,-0.973,-0.441,0.094
47.748,-0.977,-0.438,0.094
47.758,-0.977,-0.439,0.098
47.768,-0.979,-0.443,0.096
47.778,-0.975,-0.443,0.098
47.787,-0.977,-0.447,0.100
47.797,-0.975,-0.449,0.098
47.807,-0.971,-0.447,0.100
47.817,-0.969,-0.447,0.102
47.827,-0.971,-0.453,0.098
47.837,-0.971,-0.447,0.100
47.847,-0.971,-0.443,0.104
47.857,-0.969,-0.439,0.104
47.867,-0.975,-0.445,0.105
47.877,-0.971,-0.445,0.096
47.887,-0.977,-0.449,0.100
47.897,-0.971,-0.449,0.102
47.907,-0.973,-0.445,0.102
47.916,-0.975,-0.443,0.102
47.926,-0.977,-0.445,0.102
47.936,-0.973,-0.445,0.100
47.946,-0.975,-0.443,0.100
47.956,-0.975,-0.443,0.098
47.966,-0.973,-0.447,0.102
47.976,-0.975,-0.447,0.096
47.986,-0.971,-0.447,0.100
47.996,-0.971,-0.445,0.102
48.006,-0.969,-0.441,0.098
48.016,-0.969,-0.441,0.102
48.026,-0.969,-0.447,0.100
48.036,-0.973,-0.449,0.102
48.045,-0.973,-0.447,0.100
48.055,-0.973,-0.445,0.100
48.065,-0.973,-0.443,0.100
48.075,-0.973,-0.438,0.098
48.085,-0.977,-0.438,0.098
48.095,-0.975,-0.445,0.102
48.105,-0.975,-0.445,0.098
48.115,-0.977,-0.441,0.102
48.125,-0.975,-0.443,0.098
48.135,-0.977,-0.445,0.100
48.145,-0.977,-0.451,0.094
48.155,-0.977,-0.449,0.098
48.165,-0.975,-0.451,0.096
48.174,-0.975,-0.449,0.098
48.184,-0.973,-0.445,0.100
48.194,-0.975,-0.445,0.102
48.204,-0.975,-0.447,0.098
48.214,-0.975,-0.447,0.096
48.224,-0.975,-0.453,0.100
48.234,-0.975,-0.453,0.102
48.244,-0.973,-0.449,0.098
48.254,-0.971,-0.445,0.100
48.264,-0.975,-0.439,0.102
48.274,-0.975,-0.441,0.105
48.284,-0.971,-0.447,0.102
48.294,-0.967,-0.449,0.104
48.303,-0.963,-0.449,0.107
48.313,-0.967,-0.445,0.107
48.323,-0.965,-0.443,0.105
48.333,-0.967,-0.445,0.111
48.343,-0.969,-0.449,0.104
48.353,-0.975,-0.453,0.102
48.363,-0.975,-0.449,0.104
48.373,-0.975,-0.445,0.100
48.383,-0.979,-0.439,0.100
48.393,-0.977,-0.438,0.102
48.403,-0.975,-0.438,0.098
48.413,-0.977,-0.443,0.098
48.423,-0.973,-0.445,0.098
48.433,-0.971,-0.447,0.096
48.442,-0.975,-0.445,0.096
48.452,-0.977,-0.443,0.096
48.462,-0.979,-0.441,0.094
48.472,-0.979,-0.445,0.096
48.482,-0.979,-0.445,0.092
48.492,-0.977,-0.443,0.100
48.502,-0.973,-0.445,0.098
48.512,-0.969,-0.447,0.102
48.522,-0.971,-0.447,0.100
48.532,-0.967,-0.443,0.100
48.542,-0.965,-0.455,0.098
48.552,-0.965,-0.447,0.104
48.562,-0.973,-0.439,0.105
48.571,-0.971,-0.443,0.104
48.581,-0.973,-0.451,0.105
48.591,-0.971,-0.455,0.102
48.601,-0.973,-0.453,0.107
48.611,-0.977,-0.455,0.105
48.621,-0.977,-0.447,0.104
48.631,-0.979,-0.439,0.107
48.641,-0.980,-0.438,0.104
48.651,-0.973,-0.445,0.105
48.661,-0.973,-0.451,0.100
48.671,-0.967,-0.451,0.102
48.681,-0.963,-0.449,0.102
48.691,-0.967,-0.451,0.100
48.700,-0.969,-0.445,0.102
48.710,-0.973,-0.443,0.100
48.720,-0.975,-0.441,0.100
48.730,-0.973,-0.441,0.102
