df_hash,22ZHK4.QK206M
device,HZ2X61
project_hash,29R7
project_name,istanbul_aydin_university
person_hash,29R7.D6JC
person_label,V12
date_time_start,2025-05-22_10-41-54.002000_+03
date_time_start_unix,1747899714.002
date_time_end,2025-05-22_10-49-07.831000_+03
length_difference_noticed,no

time,acc_x,acc_y,acc_z
4.416,-0.805,0.602,-0.074
4.426,-0.803,0.602,-0.072
4.436,-0.799,0.600,-0.080
4.446,-0.797,0.602,-0.076
4.456,-0.803,0.600,-0.078
4.465,-0.801,0.604,-0.078
4.475,-0.801,0.604,-0.076
4.485,-0.801,0.607,-0.084
4.495,-0.805,0.611,-0.080
4.505,-0.805,0.607,-0.082
4.515,-0.803,0.607,-0.086
4.525,-0.805,0.609,-0.084
4.535,-0.805,0.604,-0.080
4.545,-0.801,0.607,-0.082
4.555,-0.803,0.605,-0.082
4.565,-0.799,0.600,-0.084
4.575,-0.795,0.592,-0.086
4.584,-0.797,0.590,-0.086
4.594,-0.795,0.594,-0.088
4.604,-0.801,0.600,-0.086
4.614,-0.811,0.609,-0.086
4.624,-0.811,0.607,-0.088
4.634,-0.812,0.613,-0.088
4.644,-0.811,0.613,-0.084
4.654,-0.807,0.605,-0.092
4.664,-0.803,0.602,-0.086
4.674,-0.807,0.604,-0.084
4.684,-0.811,0.604,-0.090
4.694,-0.812,0.604,-0.086
4.703,-0.812,0.604,-0.086
4.713,-0.812,0.602,-0.088
4.723,-0.814,0.605,-0.088
4.733,-0.816,0.605,-0.084
4.743,-0.818,0.604,-0.088
4.753,-0.818,0.602,-0.088
4.763,-0.816,0.598,-0.088
4.773,-0.816,0.602,-0.094
4.783,-0.812,0.602,-0.090
4.793,-0.814,0.604,-0.094
4.803,-0.811,0.604,-0.094
4.813,-0.809,0.602,-0.092
4.822,-0.805,0.602,-0.096
4.832,-0.801,0.602,-0.094
4.842,-0.797,0.602,-0.094
4.852,-0.795,0.600,-0.094
4.862,-0.797,0.602,-0.092
4.872,-0.805,0.605,-0.094
4.882,-0.809,0.613,-0.094
4.892,-0.814,0.611,-0.092
4.902,-0.816,0.607,-0.090
4.912,-0.814,0.602,-0.096
4.922,-0.807,0.596,-0.094
4.932,-0.805,0.594,-0.094
4.941,-0.803,0.596,-0.094
4.951,-0.803,0.596,-0.092
4.961,-0.809,0.602,-0.094
4.971,-0.812,0.602,-0.096
4.981,-0.809,0.600,-0.094
4.991,-0.807,0.604,-0.086
5.001,-0.805,0.607,-0.090
5.011,-0.803,0.605,-0.088
5.021,-0.803,0.596,-0.092
5.031,-0.807,0.596,-0.090
5.041,-0.809,0.602,-0.088
5.051,-0.811,0.605,-0.088
5.060,-0.812,0.602,-0.088
5.070,-0.812,0.604,-0.088
5.080,-0.809,0.602,-0.088
5.090,-0.811,0.600,-0.086
5.100,-0.809,0.600,-0.090
5.110,-0.811,0.598,-0.084
5.120,-0.807,0.602,-0.084
5.130,-0.807,0.604,-0.086
5.140,-0.803,0.604,-0.082
5.150,-0.803,0.602,-0.088
5.160,-0.807,0.605,-0.084
5.170,-0.811,0.604,-0.088
5.179,-0.809,0.598,-0.088
5.189,-0.809,0.596,-0.092
5.199,-0.807,0.602,-0.090
5.209,-0.801,0.605,-0.092
5.219,-0.805,0.605,-0.094
5.229,-0.807,0.605,-0.090
5.239,-0.811,0.604,-0.092
5.249,-0.809,0.611,-0.092
5.259,-0.801,0.611,-0.090
5.269,-0.801,0.607,-0.094
5.279,-0.795,0.600,-0.092
5.289,-0.791,0.602,-0.090
5.298,-0.793,0.604,-0.090
5.308,-0.797,0.604,-0.086
5.318,-0.803,0.609,-0.088
5.328,-0.805,0.611,-0.088
5.338,-0.799,0.607,-0.086
5.348,-0.799,0.605,-0.088
5.358,-0.801,0.602,-0.088
5.368,-0.801,0.596,-0.088
5.378,-0.801,0.600,-0.096
5.388,-0.807,0.602,-0.090
5.398,-0.812,0.604,-0.090
5.408,-0.811,0.604,-0.090
5.417,-0.812,0.598,-0.094
5.427,-0.809,0.598,-0.094
5.437,-0.803,0.598,-0.096
5.447,-0.799,0.598,-0.098
5.457,-0.797,0.604,-0.100
5.467,-0.799,0.609,-0.102
5.477,-0.803,0.611,-0.098
5.487,-0.807,0.615,-0.098
5.497,-0.797,0.617,-0.094
5.507,-0.801,0.613,-0.100
5.517,-0.801,0.607,-0.096
5.527,-0.803,0.607,-0.098
5.536,-0.803,0.605,-0.094
5.546,-0.805,0.605,-0.102
5.556,-0.811,0.604,-0.098
5.566,-0.811,0.607,-0.096
5.576,-0.814,0.607,-0.094
5.586,-0.811,0.605,-0.094
5.596,-0.807,0.600,-0.094
5.606,-0.805,0.598,-0.094
5.616,-0.803,0.600,-0.094
5.626,-0.803,0.600,-0.096
5.636,-0.797,0.602,-0.094
5.646,-0.797,0.598,-0.096
5.655,-0.791,0.592,-0.098
5.665,-0.793,0.596,-0.098
5.675,-0.795,0.609,-0.102
5.685,-0.803,0.617,-0.096
5.695,-0.807,0.611,-0.100
5.705,-0.805,0.609,-0.104
5.715,-0.803,0.607,-0.105
5.725,-0.799,0.615,-0.100
5.735,-0.793,0.611,-0.102
5.745,-0.789,0.609,-0.105
5.755,-0.789,0.607,-0.102
5.765,-0.789,0.604,-0.104
5.774,-0.791,0.607,-0.107
5.784,-0.791,0.611,-0.109
5.794,-0.797,0.613,-0.115
5.804,-0.799,0.609,-0.115
5.814,-0.801,0.611,-0.121
5.824,-0.793,0.611,-0.123
5.834,-0.793,0.617,-0.117
5.844,-0.789,0.623,-0.115
5.854,-0.791,0.627,-0.113
5.864,-0.793,0.627,-0.107
5.874,-0.799,0.621,-0.105
5.884,-0.803,0.609,-0.109
5.893,-0.803,0.609,-0.102
5.903,-0.799,0.607,-0.102
5.913,-0.795,0.602,-0.105
5.923,-0.797,0.592,-0.094
5.933,-0.787,0.598,-0.090
5.943,-0.783,0.604,-0.084
5.953,-0.783,0.602,-0.076
5.963,-0.789,0.602,-0.078
5.973,-0.801,0.596,-0.088
5.983,-0.812,0.586,-0.092
5.993,-0.814,0.576,-0.090
6.003,-0.795,0.578,-0.084
6.013,-0.777,0.584,-0.084
6.022,-0.777,0.594,-0.084
6.032,-0.787,0.598,-0.094
6.042,-0.791,0.592,-0.096
6.052,-0.787,0.594,-0.092
6.062,-0.775,0.596,-0.092
6.072,-0.775,0.596,-0.090
6.082,-0.787,0.594,-0.092
6.092,-0.797,0.584,-0.102
6.102,-0.807,0.582,-0.105
6.112,-0.814,0.586,-0.111
6.122,-0.818,0.588,-0.115
6.132,-0.826,0.594,-0.121
6.141,-0.834,0.598,-0.123
6.151,-0.846,0.604,-0.135
6.161,-0.854,0.602,-0.145
6.171,-0.855,0.594,-0.160
6.181,-0.854,0.594,-0.168
6.191,-0.850,0.596,-0.176
6.201,-0.844,0.602,-0.176
6.211,-0.838,0.615,-0.180
6.221,-0.818,0.625,-0.174
6.231,-0.809,0.627,-0.170
6.241,-0.795,0.615,-0.166
6.251,-0.787,0.607,-0.164
6.260,-0.787,0.609,-0.160
6.270,-0.787,0.604,-0.156
6.280,-0.785,0.602,-0.156
6.290,-0.787,0.602,-0.156
6.300,-0.789,0.596,-0.154
6.310,-0.789,0.590,-0.156
6.320,-0.785,0.586,-0.152
6.330,-0.781,0.584,-0.150
6.340,-0.781,0.596,-0.152
6.350,-0.785,0.604,-0.150
6.360,-0.789,0.605,-0.148
6.370,-0.787,0.613,-0.143
6.379,-0.789,0.615,-0.139
6.389,-0.789,0.621,-0.133
6.399,-0.789,0.615,-0.137
6.409,-0.793,0.617,-0.137
6.419,-0.805,0.613,-0.133
6.429,-0.816,0.617,-0.127
6.439,-0.816,0.613,-0.123
6.449,-0.814,0.607,-0.119
6.459,-0.812,0.598,-0.119
6.469,-0.805,0.586,-0.121
6.479,-0.797,0.582,-0.121
6.489,-0.785,0.580,-0.119
6.498,-0.783,0.582,-0.119
6.508,-0.779,0.588,-0.123
6.518,-0.785,0.592,-0.125
6.528,-0.791,0.592,-0.125
6.538,-0.793,0.594,-0.131
6.548,-0.797,0.588,-0.121
6.558,-0.779,0.592,-0.119
6.568,-0.768,0.604,-0.121
6.578,-0.770,0.617,-0.117
6.588,-0.771,0.617,-0.117
6.598,-0.781,0.623,-0.119
6.608,-0.787,0.627,-0.117
6.617,-0.789,0.617,-0.119
6.627,-0.793,0.602,-0.119
6.637,-0.777,0.596,-0.117
6.647,-0.762,0.594,-0.115
6.657,-0.752,0.600,-0.119
6.667,-0.754,0.598,-0.121
6.677,-0.762,0.600,-0.119
6.687,-0.777,0.609,-0.111
6.697,-0.781,0.621,-0.107
6.707,-0.777,0.629,-0.107
6.717,-0.785,0.635,-0.111
6.727,-0.783,0.625,-0.111
6.736,-0.777,0.607,-0.117
6.746,-0.764,0.598,-0.123
6.756,-0.756,0.600,-0.119
6.766,-0.754,0.607,-0.119
6.776,-0.756,0.619,-0.121
6.786,-0.760,0.621,-0.123
6.796,-0.756,0.611,-0.129
6.806,-0.748,0.596,-0.133
6.816,-0.736,0.598,-0.137
6.826,-0.721,0.602,-0.148
6.836,-0.721,0.602,-0.154
6.846,-0.717,0.600,-0.160
6.855,-0.711,0.598,-0.154
6.865,-0.699,0.592,-0.154
6.875,-0.693,0.592,-0.152
6.885,-0.684,0.590,-0.158
6.895,-0.680,0.588,-0.156
6.905,-0.684,0.578,-0.162
6.915,-0.682,0.568,-0.170
6.925,-0.686,0.574,-0.176
6.935,-0.693,0.588,-0.184
6.945,-0.715,0.605,-0.186
6.955,-0.740,0.600,-0.193
6.965,-0.760,0.582,-0.199
6.974,-0.770,0.570,-0.209
6.984,-0.768,0.557,-0.215
6.994,-0.750,0.551,-0.215
7.004,-0.732,0.555,-0.221
7.014,-0.727,0.549,-0.227
7.024,-0.732,0.541,-0.234
7.034,-0.764,0.537,-0.252
7.044,-0.785,0.545,-0.268
7.054,-0.809,0.545,-0.270
7.064,-0.826,0.537,-0.281
7.074,-0.844,0.541,-0.289
7.084,-0.867,0.539,-0.309
7.093,-0.896,0.533,-0.328
7.103,-0.938,0.533,-0.344
7.113,-0.961,0.525,-0.357
7.123,-0.973,0.521,-0.363
7.133,-0.969,0.521,-0.373
7.143,-0.951,0.510,-0.383
7.153,-0.953,0.510,-0.395
7.163,-0.969,0.520,-0.408
7.173,-0.963,0.527,-0.412
7.183,-0.934,0.516,-0.408
7.193,-0.898,0.506,-0.400
7.203,-0.875,0.494,-0.393
7.212,-0.855,0.486,-0.387
7.222,-0.838,0.473,-0.379
7.232,-0.816,0.455,-0.381
7.242,-0.803,0.445,-0.371
7.252,-0.791,0.430,-0.369
7.262,-0.783,0.402,-0.369
7.272,-0.783,0.385,-0.373
7.282,-0.791,0.406,-0.371
7.292,-0.787,0.422,-0.375
7.302,-0.791,0.434,-0.375
7.312,-0.803,0.436,-0.379
7.322,-0.812,0.428,-0.377
7.331,-0.828,0.430,-0.373
7.341,-0.844,0.432,-0.381
7.351,-0.865,0.434,-0.389
7.361,-0.881,0.443,-0.393
7.371,-0.887,0.445,-0.396
7.381,-0.891,0.441,-0.398
7.391,-0.896,0.438,-0.402
7.401,-0.895,0.443,-0.410
7.411,-0.879,0.443,-0.404
7.421,-0.861,0.445,-0.408
7.431,-0.840,0.447,-0.410
7.441,-0.832,0.453,-0.408
7.450,-0.820,0.453,-0.400
7.460,-0.811,0.445,-0.389
7.470,-0.814,0.439,-0.385
7.480,-0.812,0.436,-0.377
7.490,-0.812,0.439,-0.367
7.500,-0.814,0.443,-0.365
7.510,-0.826,0.447,-0.359
7.520,-0.828,0.453,-0.354
7.530,-0.826,0.451,-0.354
7.540,-0.830,0.453,-0.350
7.550,-0.828,0.449,-0.348
7.560,-0.828,0.443,-0.346
7.569,-0.834,0.447,-0.352
7.579,-0.838,0.457,-0.355
7.589,-0.846,0.467,-0.355
7.599,-0.850,0.455,-0.367
7.609,-0.867,0.447,-0.369
7.619,-0.885,0.455,-0.373
7.629,-0.902,0.475,-0.377
7.639,-0.918,0.488,-0.385
7.649,-0.934,0.500,-0.396
7.659,-0.955,0.512,-0.398
7.669,-0.969,0.500,-0.402
7.679,-0.961,0.479,-0.400
7.688,-0.941,0.475,-0.393
7.698,-0.922,0.473,-0.383
7.708,-0.904,0.469,-0.379
7.718,-0.891,0.469,-0.373
7.728,-0.889,0.475,-0.373
7.738,-0.889,0.477,-0.359
7.748,-0.883,0.463,-0.357
7.758,-0.875,0.453,-0.350
7.768,-0.873,0.463,-0.338
7.778,-0.859,0.467,-0.318
7.788,-0.842,0.473,-0.309
7.798,-0.826,0.486,-0.299
7.807,-0.812,0.500,-0.291
7.817,-0.797,0.496,-0.283
7.827,-0.787,0.496,-0.271
7.837,-0.785,0.510,-0.264
7.847,-0.779,0.516,-0.256
7.857,-0.771,0.518,-0.252
7.867,-0.775,0.521,-0.244
7.877,-0.783,0.529,-0.236
7.887,-0.785,0.521,-0.232
7.897,-0.781,0.523,-0.211
7.907,-0.770,0.523,-0.201
7.917,-0.756,0.533,-0.195
7.926,-0.742,0.547,-0.191
7.936,-0.758,0.553,-0.188
7.946,-0.775,0.557,-0.176
7.956,-0.789,0.547,-0.170
7.966,-0.789,0.549,-0.158
7.976,-0.795,0.555,-0.154
7.986,-0.791,0.562,-0.146
7.996,-0.779,0.572,-0.152
8.006,-0.787,0.568,-0.146
8.016,-0.783,0.574,-0.145
8.026,-0.779,0.582,-0.143
8.036,-0.783,0.596,-0.143
8.045,-0.783,0.602,-0.135
8.055,-0.777,0.605,-0.139
8.065,-0.768,0.605,-0.133
8.075,-0.766,0.604,-0.127
8.085,-0.756,0.600,-0.129
8.095,-0.744,0.602,-0.131
8.105,-0.746,0.604,-0.129
8.115,-0.750,0.605,-0.135
8.125,-0.752,0.611,-0.129
8.135,-0.756,0.619,-0.129
8.145,-0.760,0.627,-0.129
8.155,-0.754,0.625,-0.125
8.164,-0.750,0.623,-0.123
8.174,-0.730,0.621,-0.125
8.184,-0.719,0.623,-0.127
8.194,-0.711,0.625,-0.133
8.204,-0.717,0.633,-0.133
8.214,-0.717,0.637,-0.133
8.224,-0.719,0.641,-0.129
8.234,-0.727,0.654,-0.117
8.244,-0.723,0.662,-0.113
8.254,-0.719,0.668,-0.109
8.264,-0.713,0.666,-0.100
8.274,-0.713,0.658,-0.102
8.283,-0.713,0.648,-0.107
8.293,-0.705,0.637,-0.111
8.303,-0.707,0.633,-0.111
8.313,-0.705,0.635,-0.111
8.323,-0.715,0.646,-0.105
8.333,-0.729,0.654,-0.109
8.343,-0.736,0.666,-0.096
8.353,-0.744,0.674,-0.094
8.363,-0.738,0.680,-0.096
8.373,-0.736,0.676,-0.094
8.383,-0.736,0.670,-0.096
8.393,-0.738,0.662,-0.094
8.402,-0.736,0.662,-0.092
8.412,-0.742,0.666,-0.088
8.422,-0.742,0.662,-0.088
8.432,-0.754,0.658,-0.088
8.442,-0.760,0.656,-0.088
8.452,-0.760,0.650,-0.090
8.462,-0.750,0.650,-0.090
8.472,-0.756,0.645,-0.098
8.482,-0.762,0.643,-0.094
8.492,-0.766,0.646,-0.096
8.502,-0.764,0.650,-0.092
8.512,-0.771,0.654,-0.090
8.522,-0.775,0.654,-0.098
8.531,-0.770,0.654,-0.096
8.541,-0.764,0.648,-0.096
8.551,-0.762,0.646,-0.096
8.561,-0.760,0.646,-0.096
8.571,-0.760,0.652,-0.094
8.581,-0.764,0.656,-0.090
8.591,-0.766,0.656,-0.090
8.601,-0.768,0.654,-0.094
8.611,-0.764,0.650,-0.094
8.621,-0.760,0.648,-0.096
8.631,-0.756,0.641,-0.096
8.641,-0.748,0.645,-0.094
8.650,-0.748,0.645,-0.094
8.660,-0.746,0.641,-0.094
8.670,-0.748,0.643,-0.094
8.680,-0.740,0.639,-0.094
8.690,-0.736,0.639,-0.096
8.700,-0.738,0.643,-0.096
8.710,-0.740,0.646,-0.100
8.720,-0.746,0.648,-0.100
8.730,-0.752,0.654,-0.098
8.740,-0.760,0.656,-0.098
8.750,-0.771,0.658,-0.100
8.760,-0.777,0.664,-0.100
8.769,-0.783,0.660,-0.102
8.779,-0.785,0.660,-0.096
8.789,-0.777,0.652,-0.098
8.799,-0.771,0.646,-0.098
8.809,-0.770,0.641,-0.100
8.819,-0.768,0.639,-0.098
8.829,-0.770,0.646,-0.092
8.839,-0.764,0.650,-0.094
8.849,-0.771,0.648,-0.092
8.859,-0.773,0.646,-0.096
8.869,-0.773,0.643,-0.096
8.879,-0.775,0.646,-0.100
8.888,-0.775,0.643,-0.096
8.898,-0.775,0.643,-0.100
8.908,-0.777,0.641,-0.098
8.918,-0.775,0.641,-0.100
8.928,-0.773,0.641,-0.100
8.938,-0.773,0.641,-0.100
8.948,-0.766,0.643,-0.100
8.958,-0.766,0.645,-0.100
8.968,-0.762,0.645,-0.104
8.978,-0.758,0.643,-0.104
8.988,-0.760,0.643,-0.100
8.998,-0.764,0.637,-0.105
9.007,-0.768,0.641,-0.102
9.017,-0.770,0.639,-0.104
9.027,-0.773,0.639,-0.107
9.037,-0.775,0.643,-0.105
9.047,-0.777,0.646,-0.109
9.057,-0.777,0.645,-0.111
9.067,-0.779,0.646,-0.109
9.077,-0.773,0.643,-0.109
9.087,-0.768,0.643,-0.107
9.097,-0.764,0.643,-0.107
9.107,-0.766,0.646,-0.104
9.117,-0.764,0.645,-0.107
9.126,-0.766,0.639,-0.107
9.136,-0.762,0.629,-0.107
9.146,-0.764,0.637,-0.109
9.156,-0.760,0.643,-0.104
9.166,-0.762,0.643,-0.107
9.176,-0.764,0.639,-0.107
9.186,-0.766,0.637,-0.105
9.196,-0.773,0.643,-0.104
9.206,-0.775,0.646,-0.105
9.216,-0.770,0.646,-0.105
9.226,-0.773,0.643,-0.100
9.236,-0.773,0.641,-0.102
9.245,-0.775,0.639,-0.104
9.255,-0.770,0.637,-0.102
9.265,-0.775,0.635,-0.100
9.275,-0.771,0.635,-0.098
9.285,-0.771,0.639,-0.104
9.295,-0.771,0.639,-0.100
9.305,-0.773,0.641,-0.098
9.315,-0.779,0.641,-0.102
9.325,-0.783,0.645,-0.100
9.335,-0.783,0.646,-0.102
9.345,-0.773,0.637,-0.104
9.355,-0.773,0.637,-0.102
9.364,-0.770,0.637,-0.104
9.374,-0.771,0.643,-0.105
9.384,-0.770,0.646,-0.102
9.394,-0.764,0.639,-0.105
9.404,-0.756,0.643,-0.105
9.414,-0.744,0.643,-0.105
9.424,-0.740,0.641,-0.111
9.434,-0.730,0.635,-0.113
9.444,-0.730,0.645,-0.113
9.454,-0.740,0.652,-0.113
9.464,-0.746,0.658,-0.117
9.474,-0.752,0.656,-0.121
9.483,-0.756,0.658,-0.117
9.493,-0.754,0.662,-0.117
9.503,-0.754,0.668,-0.115
9.513,-0.758,0.670,-0.111
9.523,-0.764,0.668,-0.113
9.533,-0.766,0.664,-0.109
9.543,-0.771,0.654,-0.111
9.553,-0.768,0.645,-0.111
9.563,-0.768,0.646,-0.107
9.573,-0.766,0.650,-0.105
9.583,-0.764,0.645,-0.104
9.593,-0.760,0.637,-0.102
9.602,-0.754,0.633,-0.094
9.612,-0.744,0.637,-0.092
9.622,-0.746,0.643,-0.090
9.632,-0.754,0.641,-0.092
9.642,-0.758,0.635,-0.094
9.652,-0.760,0.635,-0.090
9.662,-0.752,0.621,-0.088
9.672,-0.740,0.621,-0.086
9.682,-0.729,0.619,-0.084
9.692,-0.723,0.623,-0.078
9.702,-0.734,0.629,-0.082
9.712,-0.748,0.637,-0.084
9.721,-0.756,0.633,-0.092
9.731,-0.760,0.627,-0.094
9.741,-0.760,0.621,-0.096
9.751,-0.752,0.629,-0.094
9.761,-0.748,0.629,-0.096
9.771,-0.754,0.627,-0.096
9.781,-0.762,0.629,-0.100
9.791,-0.754,0.623,-0.100
9.801,-0.756,0.621,-0.107
9.811,-0.758,0.621,-0.107
9.821,-0.758,0.617,-0.105
9.831,-0.756,0.617,-0.107
9.840,-0.756,0.617,-0.111
9.850,-0.760,0.615,-0.113
9.860,-0.766,0.615,-0.121
9.870,-0.773,0.611,-0.127
9.880,-0.771,0.598,-0.123
9.890,-0.758,0.592,-0.125
9.900,-0.756,0.602,-0.133
9.910,-0.764,0.598,-0.141
9.920,-0.771,0.596,-0.143
9.930,-0.771,0.600,-0.145
9.940,-0.783,0.605,-0.143
9.950,-0.785,0.602,-0.143
9.959,-0.779,0.604,-0.152
9.969,-0.789,0.605,-0.162
9.979,-0.795,0.600,-0.168
9.989,-0.803,0.592,-0.172
9.999,-0.805,0.594,-0.176
10.009,-0.811,0.598,-0.172
10.019,-0.822,0.604,-0.170
10.029,-0.826,0.604,-0.174
10.039,-0.824,0.588,-0.182
10.049,-0.818,0.568,-0.184
10.059,-0.805,0.549,-0.191
10.069,-0.787,0.547,-0.193
10.078,-0.783,0.551,-0.195
10.088,-0.787,0.553,-0.197
10.098,-0.797,0.557,-0.201
10.108,-0.809,0.559,-0.197
10.118,-0.812,0.559,-0.191
10.128,-0.809,0.557,-0.184
10.138,-0.797,0.555,-0.184
10.148,-0.803,0.551,-0.193
10.158,-0.811,0.537,-0.201
10.168,-0.805,0.529,-0.203
10.178,-0.795,0.512,-0.207
10.188,-0.787,0.504,-0.215
10.197,-0.781,0.510,-0.217
10.207,-0.779,0.512,-0.217
10.217,-0.781,0.514,-0.223
10.227,-0.787,0.510,-0.229
10.237,-0.785,0.500,-0.240
10.247,-0.791,0.494,-0.244
10.257,-0.807,0.496,-0.258
10.267,-0.838,0.500,-0.260
10.277,-0.854,0.504,-0.258
10.287,-0.859,0.508,-0.260
10.297,-0.859,0.502,-0.262
10.307,-0.867,0.488,-0.268
10.316,-0.873,0.480,-0.275
10.326,-0.885,0.473,-0.281
10.336,-0.895,0.471,-0.283
10.346,-0.895,0.459,-0.287
10.356,-0.889,0.436,-0.295
10.366,-0.887,0.441,-0.301
10.376,-0.885,0.449,-0.307
10.386,-0.873,0.441,-0.314
10.396,-0.875,0.420,-0.322
10.406,-0.885,0.416,-0.330
10.416,-0.891,0.412,-0.334
10.426,-0.896,0.398,-0.336
10.435,-0.922,0.387,-0.346
10.445,-0.947,0.402,-0.342
10.455,-0.953,0.412,-0.340
10.465,-0.951,0.412,-0.338
10.475,-0.947,0.410,-0.334
10.485,-0.941,0.406,-0.330
10.495,-0.932,0.396,-0.328
10.505,-0.922,0.381,-0.328
10.515,-0.906,0.359,-0.334
10.525,-0.904,0.373,-0.330
10.535,-0.895,0.381,-0.332
10.545,-0.883,0.387,-0.332
10.554,-0.867,0.383,-0.334
10.564,-0.859,0.379,-0.336
10.574,-0.881,0.365,-0.344
10.584,-0.914,0.369,-0.352
10.594,-0.920,0.379,-0.350
10.604,-0.908,0.379,-0.354
10.614,-0.908,0.383,-0.352
10.624,-0.914,0.381,-0.346
10.634,-0.916,0.357,-0.348
10.644,-0.924,0.359,-0.344
10.654,-0.934,0.371,-0.344
10.664,-0.926,0.383,-0.344
10.673,-0.910,0.383,-0.344
10.683,-0.906,0.381,-0.342
10.693,-0.902,0.379,-0.336
10.703,-0.898,0.375,-0.332
10.713,-0.896,0.377,-0.332
10.723,-0.891,0.383,-0.322
10.733,-0.885,0.383,-0.320
10.743,-0.877,0.389,-0.322
10.753,-0.869,0.393,-0.324
10.763,-0.867,0.395,-0.318
10.773,-0.863,0.396,-0.318
10.783,-0.865,0.400,-0.314
10.792,-0.863,0.402,-0.318
10.802,-0.861,0.393,-0.316
10.812,-0.867,0.393,-0.314
10.822,-0.873,0.400,-0.316
10.832,-0.873,0.408,-0.316
10.842,-0.869,0.410,-0.309
10.852,-0.869,0.416,-0.305
10.862,-0.861,0.416,-0.301
10.872,-0.854,0.412,-0.297
10.882,-0.848,0.408,-0.299
10.892,-0.848,0.402,-0.297
10.902,-0.846,0.400,-0.295
10.911,-0.844,0.396,-0.297
10.921,-0.844,0.396,-0.297
10.931,-0.848,0.398,-0.295
10.941,-0.854,0.404,-0.295
10.951,-0.859,0.412,-0.297
10.961,-0.861,0.414,-0.301
10.971,-0.861,0.414,-0.303
10.981,-0.859,0.416,-0.307
10.991,-0.855,0.416,-0.307
11.001,-0.859,0.414,-0.309
11.011,-0.861,0.420,-0.311
11.021,-0.855,0.422,-0.311
11.031,-0.859,0.418,-0.311
11.040,-0.865,0.410,-0.309
11.050,-0.867,0.412,-0.312
11.060,-0.869,0.402,-0.311
11.070,-0.873,0.395,-0.314
11.080,-0.883,0.393,-0.311
11.090,-0.885,0.400,-0.307
11.100,-0.881,0.406,-0.309
11.110,-0.879,0.406,-0.309
11.120,-0.885,0.406,-0.305
11.130,-0.885,0.400,-0.301
11.140,-0.875,0.396,-0.307
11.150,-0.871,0.389,-0.301
11.159,-0.867,0.387,-0.299
11.169,-0.865,0.389,-0.299
11.179,-0.865,0.393,-0.299
11.189,-0.865,0.396,-0.299
11.199,-0.867,0.396,-0.299
11.209,-0.865,0.398,-0.299
11.219,-0.869,0.395,-0.299
11.229,-0.877,0.383,-0.303
11.239,-0.883,0.375,-0.305
11.249,-0.887,0.379,-0.307
11.259,-0.891,0.385,-0.305
11.269,-0.895,0.387,-0.303
11.278,-0.896,0.387,-0.301
11.288,-0.895,0.389,-0.299
11.298,-0.889,0.381,-0.305
11.308,-0.887,0.371,-0.309
11.318,-0.895,0.377,-0.311
11.328,-0.896,0.379,-0.311
11.338,-0.896,0.389,-0.309
11.348,-0.893,0.393,-0.307
11.358,-0.889,0.396,-0.303
11.368,-0.885,0.395,-0.301
11.378,-0.885,0.387,-0.301
11.388,-0.881,0.383,-0.303
11.397,-0.883,0.375,-0.305
11.407,-0.881,0.375,-0.301
11.417,-0.879,0.383,-0.299
11.427,-0.877,0.387,-0.299
11.437,-0.869,0.393,-0.301
11.447,-0.865,0.391,-0.301
11.457,-0.863,0.393,-0.301
11.467,-0.861,0.395,-0.301
11.477,-0.865,0.395,-0.303
11.487,-0.869,0.396,-0.301
11.497,-0.865,0.398,-0.305
11.507,-0.863,0.396,-0.307
11.516,-0.865,0.396,-0.303
11.526,-0.867,0.402,-0.301
11.536,-0.869,0.412,-0.303
11.546,-0.873,0.410,-0.303
11.556,-0.871,0.400,-0.305
11.566,-0.873,0.391,-0.309
11.576,-0.875,0.389,-0.309
11.586,-0.871,0.389,-0.311
11.596,-0.873,0.393,-0.309
11.606,-0.875,0.396,-0.309
11.616,-0.877,0.400,-0.307
11.626,-0.881,0.398,-0.303
11.635,-0.891,0.402,-0.305
11.645,-0.889,0.406,-0.305
11.655,-0.887,0.406,-0.303
11.665,-0.885,0.402,-0.307
11.675,-0.879,0.400,-0.307
11.685,-0.873,0.402,-0.305
11.695,-0.873,0.402,-0.303
11.705,-0.873,0.404,-0.303
11.715,-0.871,0.406,-0.299
11.725,-0.873,0.402,-0.299
11.735,-0.867,0.400,-0.303
11.745,-0.865,0.400,-0.301
11.754,-0.869,0.395,-0.299
11.764,-0.869,0.400,-0.295
11.774,-0.869,0.395,-0.297
11.784,-0.871,0.391,-0.297
11.794,-0.875,0.391,-0.297
11.804,-0.875,0.387,-0.297
11.814,-0.875,0.389,-0.301
11.824,-0.873,0.389,-0.301
11.834,-0.871,0.391,-0.305
11.844,-0.873,0.395,-0.303
11.854,-0.873,0.396,-0.307
11.864,-0.873,0.396,-0.307
11.873,-0.875,0.396,-0.312
11.883,-0.883,0.396,-0.311
11.893,-0.887,0.398,-0.309
11.903,-0.881,0.398,-0.312
11.913,-0.879,0.395,-0.311
11.923,-0.877,0.395,-0.309
11.933,-0.879,0.391,-0.311
11.943,-0.879,0.389,-0.307
11.953,-0.873,0.391,-0.307
11.963,-0.873,0.393,-0.303
11.973,-0.869,0.396,-0.305
11.983,-0.869,0.396,-0.307
11.992,-0.873,0.400,-0.309
12.002,-0.879,0.400,-0.309
12.012,-0.883,0.400,-0.305
12.022,-0.885,0.406,-0.303
12.032,-0.887,0.402,-0.303
12.042,-0.889,0.398,-0.305
12.052,-0.885,0.396,-0.299
12.062,-0.883,0.393,-0.297
12.072,-0.879,0.387,-0.297
12.082,-0.881,0.381,-0.305
12.092,-0.877,0.377,-0.303
12.102,-0.879,0.373,-0.305
12.111,-0.877,0.373,-0.307
12.121,-0.877,0.377,-0.311
12.131,-0.879,0.377,-0.311
12.141,-0.885,0.377,-0.305
12.151,-0.889,0.377,-0.311
12.161,-0.887,0.379,-0.312
12.171,-0.889,0.381,-0.312
12.181,-0.895,0.389,-0.312
12.191,-0.895,0.393,-0.309
12.201,-0.889,0.398,-0.305
12.211,-0.883,0.400,-0.307
12.221,-0.879,0.398,-0.305
12.230,-0.873,0.391,-0.303
12.240,-0.869,0.385,-0.307
12.250,-0.871,0.377,-0.305
12.260,-0.869,0.373,-0.309
12.270,-0.871,0.379,-0.305
12.280,-0.875,0.385,-0.303
12.290,-0.879,0.393,-0.305
12.300,-0.881,0.395,-0.301
12.310,-0.881,0.389,-0.299
12.320,-0.881,0.383,-0.301
12.330,-0.883,0.381,-0.303
12.340,-0.879,0.383,-0.305
12.349,-0.879,0.385,-0.307
12.359,-0.877,0.391,-0.305
12.369,-0.875,0.389,-0.305
12.379,-0.875,0.391,-0.301
12.389,-0.873,0.391,-0.309
12.399,-0.875,0.391,-0.312
12.409,-0.875,0.395,-0.305
12.419,-0.879,0.396,-0.305
12.429,-0.877,0.396,-0.307
12.439,-0.877,0.398,-0.303
12.449,-0.873,0.395,-0.303
12.459,-0.877,0.393,-0.303
12.468,-0.879,0.391,-0.307
12.478,-0.881,0.393,-0.305
12.488,-0.883,0.396,-0.309
12.498,-0.879,0.398,-0.307
12.508,-0.879,0.396,-0.305
12.518,-0.875,0.396,-0.305
12.528,-0.873,0.396,-0.305
12.538,-0.877,0.395,-0.303
12.548,-0.873,0.389,-0.303
12.558,-0.873,0.387,-0.301
12.568,-0.875,0.389,-0.303
12.578,-0.873,0.393,-0.301
12.587,-0.873,0.391,-0.301
12.597,-0.871,0.389,-0.303
12.607,-0.873,0.389,-0.305
12.617,-0.873,0.391,-0.307
12.627,-0.871,0.387,-0.309
12.637,-0.879,0.393,-0.309
12.647,-0.881,0.393,-0.309
12.657,-0.887,0.396,-0.307
12.667,-0.887,0.400,-0.305
12.677,-0.887,0.393,-0.303
12.687,-0.891,0.385,-0.307
12.697,-0.885,0.381,-0.309
12.706,-0.883,0.379,-0.307
12.716,-0.885,0.377,-0.305
12.726,-0.883,0.383,-0.307
12.736,-0.881,0.385,-0.307
12.746,-0.881,0.385,-0.305
12.756,-0.877,0.385,-0.305
12.766,-0.879,0.381,-0.305
12.776,-0.879,0.383,-0.309
12.786,-0.885,0.383,-0.305
12.796,-0.881,0.385,-0.301
12.806,-0.879,0.391,-0.303
12.816,-0.877,0.393,-0.303
12.825,-0.877,0.391,-0.307
12.835,-0.877,0.389,-0.305
12.845,-0.877,0.391,-0.305
12.855,-0.873,0.395,-0.309
12.865,-0.873,0.393,-0.303
12.875,-0.873,0.393,-0.303
12.885,-0.873,0.391,-0.305
12.895,-0.877,0.393,-0.305
12.905,-0.873,0.389,-0.307
12.915,-0.879,0.393,-0.307
12.925,-0.879,0.396,-0.305
12.935,-0.885,0.391,-0.309
12.944,-0.887,0.389,-0.309
12.954,-0.887,0.389,-0.305
12.964,-0.887,0.393,-0.305
12.974,-0.885,0.387,-0.307
12.984,-0.881,0.387,-0.305
12.994,-0.881,0.391,-0.307
13.004,-0.875,0.391,-0.307
13.014,-0.877,0.391,-0.309
13.024,-0.879,0.393,-0.307
13.034,-0.881,0.393,-0.305
13.044,-0.881,0.398,-0.307
13.054,-0.885,0.396,-0.305
13.063,-0.881,0.393,-0.307
13.073,-0.881,0.393,-0.309
13.083,-0.875,0.391,-0.305
13.093,-0.877,0.389,-0.307
13.103,-0.873,0.385,-0.307
13.113,-0.875,0.383,-0.305
13.123,-0.877,0.383,-0.305
13.133,-0.877,0.389,-0.307
13.143,-0.875,0.389,-0.305
13.153,-0.881,0.393,-0.303
13.163,-0.883,0.389,-0.301
13.173,-0.881,0.391,-0.303
13.182,-0.881,0.393,-0.299
13.192,-0.887,0.393,-0.301
13.202,-0.885,0.389,-0.301
13.212,-0.877,0.389,-0.301
13.222,-0.879,0.383,-0.301
13.232,-0.877,0.383,-0.299
13.242,-0.877,0.385,-0.299
13.252,-0.877,0.391,-0.299
13.262,-0.875,0.389,-0.305
13.272,-0.877,0.387,-0.303
13.282,-0.877,0.391,-0.301
13.292,-0.885,0.396,-0.301
13.301,-0.887,0.402,-0.297
13.311,-0.885,0.400,-0.297
13.321,-0.881,0.391,-0.301
13.331,-0.881,0.385,-0.303
13.341,-0.885,0.383,-0.301
13.351,-0.881,0.391,-0.299
13.361,-0.883,0.389,-0.301
13.371,-0.883,0.387,-0.303
13.381,-0.879,0.387,-0.301
13.391,-0.881,0.389,-0.301
13.401,-0.881,0.385,-0.299
13.411,-0.881,0.385,-0.301
13.420,-0.877,0.387,-0.299
13.430,-0.883,0.395,-0.303
13.440,-0.879,0.393,-0.301
13.450,-0.879,0.393,-0.303
13.460,-0.877,0.395,-0.303
13.470,-0.877,0.393,-0.299
13.480,-0.879,0.387,-0.301
13.490,-0.879,0.385,-0.297
13.500,-0.879,0.393,-0.297
13.510,-0.883,0.391,-0.297
13.520,-0.877,0.389,-0.299
13.530,-0.875,0.389,-0.301
13.540,-0.879,0.387,-0.303
13.549,-0.877,0.387,-0.305
13.559,-0.881,0.389,-0.301
13.569,-0.883,0.389,-0.299
13.579,-0.883,0.391,-0.301
13.589,-0.885,0.389,-0.297
13.599,-0.881,0.393,-0.299
13.609,-0.883,0.393,-0.299
13.619,-0.881,0.389,-0.303
13.629,-0.879,0.389,-0.303
13.639,-0.875,0.387,-0.303
13.649,-0.879,0.387,-0.301
13.659,-0.881,0.387,-0.299
13.668,-0.881,0.389,-0.297
13.678,-0.881,0.391,-0.301
13.688,-0.885,0.393,-0.299
13.698,-0.883,0.396,-0.299
13.708,-0.881,0.396,-0.303
13.718,-0.881,0.393,-0.301
13.728,-0.881,0.393,-0.303
13.738,-0.883,0.391,-0.307
13.748,-0.885,0.395,-0.299
13.758,-0.887,0.395,-0.301
13.768,-0.885,0.391,-0.301
13.778,-0.885,0.387,-0.301
13.787,-0.893,0.389,-0.301
13.797,-0.885,0.389,-0.305
13.807,-0.885,0.385,-0.303
13.817,-0.887,0.387,-0.309
13.827,-0.891,0.391,-0.307
13.837,-0.895,0.402,-0.312
13.847,-0.889,0.402,-0.316
13.857,-0.889,0.400,-0.318
13.867,-0.885,0.395,-0.312
13.877,-0.885,0.391,-0.309
13.887,-0.889,0.391,-0.305
13.897,-0.891,0.389,-0.309
13.906,-0.895,0.400,-0.312
13.916,-0.902,0.424,-0.314
13.926,-0.914,0.438,-0.316
13.936,-0.926,0.445,-0.318
13.946,-0.930,0.432,-0.307
13.956,-0.928,0.428,-0.305
13.966,-0.918,0.422,-0.303
13.976,-0.906,0.428,-0.305
13.986,-0.895,0.424,-0.301
13.996,-0.871,0.420,-0.305
14.006,-0.867,0.424,-0.309
14.016,-0.850,0.430,-0.301
14.025,-0.861,0.438,-0.295
14.035,-0.867,0.422,-0.309
14.045,-0.873,0.428,-0.295
14.055,-0.867,0.434,-0.291
14.065,-0.859,0.434,-0.287
14.075,-0.857,0.434,-0.287
14.085,-0.838,0.420,-0.283
14.095,-0.842,0.445,-0.283
14.105,-0.818,0.432,-0.273
14.115,-0.830,0.445,-0.283
14.125,-0.820,0.447,-0.283
14.135,-0.814,0.438,-0.295
14.144,-0.818,0.467,-0.289
14.154,-0.822,0.469,-0.283
14.164,-0.836,0.494,-0.279
14.174,-0.820,0.486,-0.291
14.184,-0.822,0.482,-0.287
14.194,-0.801,0.498,-0.299
14.204,-0.799,0.480,-0.303
14.214,-0.826,0.480,-0.289
14.224,-0.812,0.494,-0.287
14.234,-0.791,0.473,-0.295
14.244,-0.836,0.543,-0.275
14.254,-0.822,0.521,-0.275
14.263,-0.801,0.498,-0.285
14.273,-0.789,0.498,-0.279
14.283,-0.760,0.492,-0.277
14.293,-0.727,0.477,-0.285
14.303,-0.730,0.498,-0.275
14.313,-0.762,0.535,-0.264
14.323,-0.764,0.533,-0.254
14.333,-0.748,0.514,-0.256
14.343,-0.750,0.506,-0.256
14.353,-0.760,0.512,-0.246
14.363,-0.754,0.510,-0.248
14.373,-0.754,0.508,-0.250
14.382,-0.758,0.498,-0.252
14.392,-0.766,0.498,-0.252
14.402,-0.762,0.502,-0.250
14.412,-0.752,0.502,-0.248
14.422,-0.750,0.496,-0.246
14.432,-0.754,0.484,-0.248
14.442,-0.756,0.475,-0.256
14.452,-0.768,0.480,-0.256
14.462,-0.773,0.490,-0.254
14.472,-0.768,0.484,-0.244
14.482,-0.750,0.469,-0.236
14.492,-0.750,0.445,-0.238
14.501,-0.783,0.434,-0.248
14.511,-0.803,0.439,-0.260
14.521,-0.811,0.441,-0.275
14.531,-0.822,0.430,-0.283
14.541,-0.842,0.420,-0.291
14.551,-0.848,0.426,-0.295
14.561,-0.848,0.430,-0.301
14.571,-0.842,0.408,-0.309
14.581,-0.848,0.398,-0.330
14.591,-0.871,0.414,-0.346
14.601,-0.877,0.426,-0.346
14.611,-0.881,0.418,-0.355
14.620,-0.881,0.416,-0.355
14.630,-0.875,0.412,-0.355
14.640,-0.871,0.375,-0.369
14.650,-0.912,0.326,-0.385
14.660,-0.947,0.340,-0.389
14.670,-0.967,0.369,-0.398
14.680,-0.963,0.369,-0.406
14.690,-0.949,0.346,-0.408
14.700,-0.939,0.330,-0.406
14.710,-0.928,0.324,-0.398
14.720,-0.912,0.316,-0.398
14.730,-0.893,0.301,-0.402
14.739,-0.891,0.281,-0.402
14.749,-0.906,0.240,-0.412
14.759,-0.943,0.221,-0.424
14.769,-1.002,0.301,-0.412
14.779,-1.016,0.342,-0.416
14.789,-1.025,0.346,-0.424
14.799,-1.031,0.328,-0.430
14.809,-1.025,0.299,-0.428
14.819,-1.008,0.281,-0.422
14.829,-0.977,0.273,-0.408
14.839,-0.932,0.260,-0.398
14.849,-0.898,0.250,-0.391
14.858,-0.869,0.232,-0.381
14.868,-0.855,0.215,-0.375
14.878,-0.850,0.180,-0.373
14.888,-0.855,0.197,-0.365
14.898,-0.857,0.229,-0.359
14.908,-0.871,0.238,-0.359
14.918,-0.891,0.248,-0.357
14.928,-0.914,0.264,-0.352
14.938,-0.943,0.252,-0.357
14.948,-0.977,0.258,-0.352
14.958,-0.982,0.279,-0.357
14.968,-0.975,0.281,-0.350
14.977,-0.945,0.273,-0.344
14.987,-0.916,0.254,-0.346
14.997,-0.895,0.232,-0.344
15.007,-0.885,0.223,-0.342
15.017,-0.885,0.221,-0.340
15.027,-0.883,0.229,-0.338
15.037,-0.893,0.246,-0.334
15.047,-0.902,0.252,-0.334
15.057,-0.896,0.266,-0.326
15.067,-0.896,0.264,-0.340
15.077,-0.910,0.279,-0.344
15.087,-0.924,0.281,-0.350
15.096,-0.938,0.271,-0.350
15.106,-0.947,0.256,-0.357
15.116,-0.965,0.258,-0.354
15.126,-0.963,0.254,-0.344
15.136,-0.949,0.248,-0.342
15.146,-0.936,0.254,-0.340
15.156,-0.930,0.266,-0.340
15.166,-0.920,0.268,-0.336
15.176,-0.914,0.260,-0.342
15.186,-0.908,0.254,-0.340
15.196,-0.906,0.256,-0.330
15.206,-0.895,0.258,-0.324
15.215,-0.887,0.260,-0.316
15.225,-0.883,0.260,-0.312
15.235,-0.879,0.264,-0.316
15.245,-0.879,0.277,-0.320
15.255,-0.875,0.277,-0.324
15.265,-0.889,0.271,-0.322
15.275,-0.889,0.254,-0.328
15.285,-0.896,0.250,-0.326
15.295,-0.904,0.252,-0.326
15.305,-0.906,0.256,-0.326
15.315,-0.918,0.258,-0.322
15.325,-0.916,0.256,-0.322
15.334,-0.914,0.266,-0.320
15.344,-0.906,0.260,-0.324
15.354,-0.898,0.246,-0.322
15.364,-0.898,0.207,-0.332
15.374,-0.922,0.250,-0.338
15.384,-0.922,0.262,-0.350
15.394,-0.936,0.248,-0.352
15.404,-0.945,0.234,-0.352
15.414,-0.943,0.221,-0.350
15.424,-0.938,0.213,-0.352
15.434,-0.938,0.209,-0.354
15.444,-0.943,0.211,-0.357
15.453,-0.959,0.246,-0.365
15.463,-0.973,0.262,-0.361
15.473,-0.980,0.252,-0.365
15.483,-0.980,0.246,-0.361
15.493,-0.967,0.240,-0.361
15.503,-0.953,0.232,-0.355
15.513,-0.945,0.217,-0.346
15.523,-0.936,0.201,-0.342
15.533,-0.930,0.189,-0.340
15.543,-0.928,0.180,-0.330
15.553,-0.932,0.176,-0.328
15.563,-0.928,0.178,-0.326
15.572,-0.924,0.178,-0.318
15.582,-0.924,0.180,-0.320
15.592,-0.926,0.193,-0.324
15.602,-0.938,0.213,-0.330
15.612,-0.939,0.219,-0.336
15.622,-0.943,0.215,-0.340
15.632,-0.945,0.207,-0.342
15.642,-0.945,0.201,-0.350
15.652,-0.934,0.201,-0.352
15.662,-0.926,0.205,-0.350
15.672,-0.912,0.203,-0.354
15.682,-0.912,0.205,-0.359
15.691,-0.922,0.207,-0.359
15.701,-0.924,0.205,-0.361
15.711,-0.930,0.211,-0.355
15.721,-0.926,0.207,-0.354
15.731,-0.926,0.211,-0.352
15.741,-0.928,0.215,-0.354
15.751,-0.924,0.211,-0.350
15.761,-0.932,0.221,-0.354
15.771,-0.943,0.236,-0.352
15.781,-0.951,0.234,-0.352
15.791,-0.949,0.227,-0.354
15.801,-0.945,0.217,-0.354
15.810,-0.938,0.211,-0.354
15.820,-0.930,0.215,-0.357
15.830,-0.922,0.219,-0.352
15.840,-0.906,0.209,-0.352
15.850,-0.904,0.211,-0.355
15.860,-0.908,0.217,-0.350
15.870,-0.906,0.213,-0.352
15.880,-0.908,0.213,-0.350
15.890,-0.916,0.213,-0.352
15.900,-0.924,0.219,-0.350
15.910,-0.932,0.225,-0.350
15.920,-0.930,0.223,-0.354
15.930,-0.930,0.217,-0.354
15.939,-0.932,0.215,-0.352
15.949,-0.936,0.215,-0.354
15.959,-0.939,0.209,-0.354
15.969,-0.941,0.219,-0.352
15.979,-0.938,0.215,-0.350
15.989,-0.939,0.213,-0.348
15.999,-0.941,0.215,-0.350
16.009,-0.941,0.209,-0.350
16.019,-0.936,0.211,-0.346
16.029,-0.926,0.213,-0.346
16.039,-0.924,0.211,-0.344
16.049,-0.918,0.209,-0.348
16.058,-0.918,0.205,-0.348
16.068,-0.920,0.205,-0.348
16.078,-0.926,0.201,-0.350
16.088,-0.930,0.197,-0.348
16.098,-0.932,0.211,-0.348
16.108,-0.932,0.219,-0.346
16.118,-0.932,0.223,-0.340
16.128,-0.932,0.219,-0.336
16.138,-0.926,0.215,-0.338
16.148,-0.924,0.205,-0.338
16.158,-0.918,0.209,-0.336
16.168,-0.918,0.205,-0.340
16.177,-0.922,0.209,-0.340
16.187,-0.922,0.213,-0.340
16.197,-0.926,0.215,-0.340
16.207,-0.932,0.207,-0.344
16.217,-0.941,0.217,-0.340
16.227,-0.941,0.215,-0.340
16.237,-0.943,0.211,-0.342
16.247,-0.943,0.215,-0.344
16.257,-0.939,0.213,-0.344
16.267,-0.943,0.217,-0.344
16.277,-0.949,0.215,-0.346
16.287,-0.951,0.217,-0.348
16.296,-0.943,0.215,-0.342
16.306,-0.941,0.215,-0.340
16.316,-0.939,0.215,-0.336
16.326,-0.926,0.207,-0.334
16.336,-0.916,0.203,-0.334
16.346,-0.916,0.193,-0.340
16.356,-0.922,0.199,-0.338
16.366,-0.928,0.205,-0.332
16.376,-0.928,0.207,-0.332
16.386,-0.926,0.207,-0.332
16.396,-0.926,0.213,-0.336
16.406,-0.926,0.219,-0.336
16.415,-0.932,0.223,-0.332
16.425,-0.928,0.225,-0.336
16.435,-0.930,0.227,-0.336
16.445,-0.930,0.223,-0.338
16.455,-0.932,0.219,-0.342
16.465,-0.932,0.211,-0.342
16.475,-0.932,0.211,-0.342
16.485,-0.934,0.217,-0.338
16.495,-0.936,0.217,-0.342
16.505,-0.938,0.217,-0.342
16.515,-0.938,0.215,-0.348
16.525,-0.936,0.215,-0.338
16.534,-0.934,0.211,-0.340
16.544,-0.936,0.213,-0.340
16.554,-0.934,0.213,-0.340
16.564,-0.932,0.211,-0.342
16.574,-0.930,0.213,-0.340
16.584,-0.928,0.219,-0.342
16.594,-0.926,0.219,-0.342
16.604,-0.930,0.219,-0.344
16.614,-0.930,0.217,-0.340
16.624,-0.926,0.219,-0.340
16.634,-0.918,0.217,-0.338
16.644,-0.910,0.221,-0.342
16.653,-0.906,0.223,-0.342
16.663,-0.912,0.215,-0.344
16.673,-0.920,0.213,-0.348
16.683,-0.926,0.207,-0.348
16.693,-0.936,0.211,-0.350
16.703,-0.943,0.211,-0.350
16.713,-0.951,0.213,-0.346
16.723,-0.959,0.215,-0.348
16.733,-0.961,0.217,-0.348
16.743,-0.961,0.209,-0.350
16.753,-0.957,0.205,-0.348
16.763,-0.951,0.203,-0.348
16.772,-0.949,0.205,-0.346
16.782,-0.938,0.211,-0.344
16.792,-0.928,0.211,-0.342
16.802,-0.918,0.211,-0.342
16.812,-0.918,0.211,-0.344
16.822,-0.916,0.213,-0.342
16.832,-0.914,0.217,-0.342
16.842,-0.916,0.215,-0.342
16.852,-0.916,0.211,-0.338
16.862,-0.920,0.211,-0.342
16.872,-0.922,0.213,-0.342
16.882,-0.926,0.215,-0.340
16.891,-0.932,0.219,-0.342
16.901,-0.932,0.221,-0.342
16.911,-0.932,0.221,-0.340
16.921,-0.928,0.217,-0.338
16.931,-0.930,0.215,-0.342
16.941,-0.928,0.211,-0.342
16.951,-0.928,0.215,-0.342
16.961,-0.930,0.213,-0.342
16.971,-0.932,0.217,-0.344
16.981,-0.936,0.217,-0.348
16.991,-0.938,0.217,-0.348
17.001,-0.934,0.217,-0.346
17.010,-0.934,0.215,-0.346
17.020,-0.936,0.213,-0.342
17.030,-0.934,0.211,-0.344
17.040,-0.934,0.217,-0.344
17.050,-0.934,0.219,-0.344
17.060,-0.936,0.217,-0.344
17.070,-0.934,0.215,-0.344
17.080,-0.932,0.217,-0.342
17.090,-0.930,0.219,-0.344
17.100,-0.930,0.213,-0.342
17.110,-0.928,0.209,-0.342
17.120,-0.930,0.215,-0.342
17.129,-0.928,0.217,-0.342
17.139,-0.926,0.221,-0.342
17.149,-0.926,0.221,-0.340
17.159,-0.924,0.223,-0.338
17.169,-0.926,0.215,-0.342
17.179,-0.926,0.215,-0.342
17.189,-0.928,0.213,-0.342
17.199,-0.930,0.215,-0.340
17.209,-0.928,0.211,-0.342
17.219,-0.930,0.213,-0.344
17.229,-0.932,0.219,-0.344
17.239,-0.930,0.215,-0.342
17.248,-0.932,0.207,-0.348
17.258,-0.938,0.203,-0.342
17.268,-0.941,0.207,-0.346
17.278,-0.941,0.211,-0.348
17.288,-0.939,0.213,-0.346
17.298,-0.938,0.215,-0.346
17.308,-0.936,0.213,-0.342
17.318,-0.930,0.209,-0.342
17.328,-0.930,0.209,-0.344
17.338,-0.930,0.213,-0.344
17.348,-0.930,0.211,-0.342
17.358,-0.928,0.211,-0.342
17.367,-0.928,0.211,-0.346
17.377,-0.928,0.207,-0.346
17.387,-0.930,0.209,-0.344
17.397,-0.932,0.211,-0.346
17.407,-0.932,0.213,-0.344
17.417,-0.930,0.213,-0.344
17.427,-0.930,0.213,-0.342
17.437,-0.926,0.215,-0.342
17.447,-0.928,0.211,-0.344
17.457,-0.922,0.209,-0.338
17.467,-0.926,0.213,-0.344
17.477,-0.928,0.215,-0.340
17.486,-0.924,0.215,-0.346
17.496,-0.922,0.217,-0.344
17.506,-0.926,0.213,-0.348
17.516,-0.932,0.211,-0.346
17.526,-0.932,0.211,-0.344
17.536,-0.930,0.213,-0.346
17.546,-0.934,0.215,-0.342
17.556,-0.932,0.219,-0.344
17.566,-0.932,0.215,-0.342
17.576,-0.938,0.215,-0.344
17.586,-0.939,0.215,-0.344
17.596,-0.939,0.211,-0.344
17.605,-0.936,0.211,-0.346
17.615,-0.936,0.211,-0.346
17.625,-0.932,0.213,-0.346
17.635,-0.932,0.211,-0.346
17.645,-0.926,0.215,-0.346
17.655,-0.928,0.217,-0.340
17.665,-0.928,0.215,-0.346
17.675,-0.926,0.215,-0.340
17.685,-0.924,0.215,-0.340
17.695,-0.926,0.211,-0.342
17.705,-0.924,0.209,-0.344
17.715,-0.926,0.211,-0.340
17.724,-0.924,0.213,-0.342
17.734,-0.928,0.211,-0.346
17.744,-0.934,0.211,-0.342
17.754,-0.932,0.209,-0.348
17.764,-0.938,0.211,-0.346
17.774,-0.939,0.213,-0.346
17.784,-0.938,0.211,-0.342
17.794,-0.936,0.215,-0.344
17.804,-0.934,0.215,-0.344
17.814,-0.930,0.209,-0.346
17.824,-0.930,0.205,-0.344
17.834,-0.932,0.205,-0.346
17.843,-0.930,0.203,-0.340
17.853,-0.930,0.209,-0.340
17.863,-0.934,0.215,-0.342
17.873,-0.936,0.215,-0.342
17.883,-0.934,0.207,-0.340
17.893,-0.934,0.205,-0.342
17.903,-0.938,0.203,-0.344
17.913,-0.939,0.209,-0.346
17.923,-0.943,0.213,-0.346
17.933,-0.941,0.215,-0.342
17.943,-0.938,0.213,-0.344
17.953,-0.936,0.215,-0.340
17.962,-0.930,0.209,-0.342
17.972,-0.928,0.205,-0.342
17.982,-0.930,0.207,-0.342
17.992,-0.926,0.209,-0.344
18.002,-0.928,0.209,-0.344
18.012,-0.930,0.209,-0.340
18.022,-0.928,0.213,-0.340
18.032,-0.930,0.213,-0.342
18.042,-0.930,0.213,-0.342
18.052,-0.930,0.209,-0.340
18.062,-0.928,0.211,-0.340
18.072,-0.928,0.209,-0.338
18.081,-0.926,0.213,-0.338
18.091,-0.928,0.209,-0.338
18.101,-0.928,0.213,-0.344
18.111,-0.930,0.217,-0.344
18.121,-0.928,0.217,-0.344
18.131,-0.926,0.215,-0.344
18.141,-0.922,0.213,-0.348
18.151,-0.928,0.215,-0.344
18.161,-0.930,0.217,-0.344
18.171,-0.932,0.219,-0.348
18.181,-0.936,0.219,-0.344
18.191,-0.936,0.219,-0.346
18.200,-0.938,0.221,-0.346
18.210,-0.936,0.215,-0.346
18.220,-0.934,0.211,-0.342
18.230,-0.930,0.209,-0.346
18.240,-0.930,0.207,-0.346
18.250,-0.928,0.205,-0.344
18.260,-0.932,0.205,-0.346
18.270,-0.936,0.207,-0.344
18.280,-0.936,0.209,-0.346
18.290,-0.936,0.209,-0.346
18.300,-0.936,0.211,-0.342
18.310,-0.934,0.213,-0.346
18.319,-0.930,0.213,-0.344
18.329,-0.932,0.213,-0.346
18.339,-0.932,0.211,-0.344
18.349,-0.928,0.211,-0.342
18.359,-0.926,0.213,-0.340
18.369,-0.930,0.213,-0.340
18.379,-0.930,0.211,-0.344
18.389,-0.926,0.213,-0.342
18.399,-0.924,0.211,-0.342
18.409,-0.928,0.213,-0.344
18.419,-0.928,0.213,-0.344
18.429,-0.930,0.211,-0.342
18.439,-0.930,0.207,-0.344
18.448,-0.934,0.207,-0.344
18.458,-0.934,0.205,-0.342
18.468,-0.932,0.209,-0.342
18.478,-0.936,0.207,-0.346
18.488,-0.936,0.207,-0.346
18.498,-0.939,0.209,-0.344
18.508,-0.936,0.209,-0.346
18.518,-0.938,0.211,-0.346
18.528,-0.936,0.211,-0.344
18.538,-0.934,0.213,-0.346
18.548,-0.932,0.211,-0.344
18.558,-0.930,0.213,-0.342
18.567,-0.926,0.213,-0.340
18.577,-0.924,0.209,-0.340
18.587,-0.920,0.207,-0.340
18.597,-0.918,0.205,-0.340
18.607,-0.920,0.205,-0.338
18.617,-0.924,0.207,-0.342
18.627,-0.934,0.205,-0.346
18.637,-0.941,0.203,-0.346
18.647,-0.949,0.205,-0.346
18.657,-0.947,0.211,-0.348
18.667,-0.945,0.213,-0.346
18.677,-0.943,0.217,-0.346
18.686,-0.936,0.215,-0.346
18.696,-0.934,0.207,-0.342
18.706,-0.930,0.205,-0.342
18.716,-0.930,0.207,-0.342
18.726,-0.932,0.205,-0.346
18.736,-0.930,0.205,-0.344
18.746,-0.934,0.203,-0.346
18.756,-0.930,0.209,-0.346
18.766,-0.928,0.209,-0.348
18.776,-0.926,0.211,-0.346
18.786,-0.930,0.209,-0.342
18.796,-0.928,0.207,-0.344
18.805,-0.928,0.209,-0.346
18.815,-0.928,0.209,-0.344
18.825,-0.932,0.209,-0.344
18.835,-0.932,0.207,-0.348
18.845,-0.932,0.207,-0.346
18.855,-0.934,0.211,-0.346
18.865,-0.930,0.211,-0.344
18.875,-0.930,0.205,-0.344
18.885,-0.930,0.207,-0.342
18.895,-0.930,0.205,-0.344
18.905,-0.930,0.203,-0.348
18.915,-0.932,0.201,-0.344
18.924,-0.930,0.207,-0.346
18.934,-0.932,0.205,-0.342
18.944,-0.934,0.213,-0.342
18.954,-0.938,0.211,-0.344
18.964,-0.938,0.209,-0.344
18.974,-0.938,0.209,-0.346
18.984,-0.938,0.205,-0.342
18.994,-0.934,0.203,-0.346
19.004,-0.932,0.203,-0.344
19.014,-0.934,0.207,-0.342
19.024,-0.930,0.211,-0.346
19.034,-0.930,0.211,-0.346
19.043,-0.930,0.211,-0.344
19.053,-0.928,0.213,-0.346
19.063,-0.928,0.207,-0.340
19.073,-0.930,0.203,-0.342
19.083,-0.932,0.203,-0.346
19.093,-0.932,0.207,-0.340
19.103,-0.934,0.209,-0.344
19.113,-0.932,0.209,-0.346
19.123,-0.932,0.209,-0.344
19.133,-0.932,0.207,-0.344
19.143,-0.930,0.205,-0.342
19.153,-0.932,0.203,-0.346
19.162,-0.936,0.205,-0.342
19.172,-0.934,0.201,-0.342
19.182,-0.936,0.205,-0.346
19.192,-0.938,0.203,-0.346
19.202,-0.936,0.203,-0.348
19.212,-0.939,0.205,-0.346
19.222,-0.939,0.207,-0.346
19.232,-0.936,0.201,-0.348
19.242,-0.938,0.209,-0.350
19.252,-0.938,0.209,-0.342
19.262,-0.934,0.209,-0.344
19.272,-0.932,0.209,-0.342
19.281,-0.930,0.207,-0.344
19.291,-0.928,0.207,-0.338
19.301,-0.930,0.201,-0.342
19.311,-0.924,0.205,-0.344
19.321,-0.924,0.207,-0.344
19.331,-0.924,0.209,-0.342
19.341,-0.926,0.205,-0.344
19.351,-0.928,0.205,-0.344
19.361,-0.934,0.201,-0.344
19.371,-0.938,0.207,-0.346
19.381,-0.938,0.209,-0.342
19.391,-0.939,0.215,-0.344
19.400,-0.938,0.213,-0.344
19.410,-0.936,0.209,-0.348
19.420,-0.936,0.201,-0.344
19.430,-0.932,0.205,-0.348
19.440,-0.934,0.205,-0.348
19.450,-0.934,0.203,-0.346
19.460,-0.932,0.203,-0.348
19.470,-0.934,0.207,-0.346
19.480,-0.930,0.209,-0.344
19.490,-0.932,0.205,-0.344
19.500,-0.932,0.207,-0.344
19.510,-0.936,0.205,-0.344
19.519,-0.928,0.201,-0.342
19.529,-0.928,0.203,-0.348
19.539,-0.930,0.203,-0.344
19.549,-0.932,0.205,-0.342
19.559,-0.930,0.205,-0.344
19.569,-0.930,0.207,-0.344
19.579,-0.932,0.209,-0.344
19.589,-0.930,0.209,-0.342
19.599,-0.928,0.203,-0.344
19.609,-0.924,0.203,-0.346
19.619,-0.930,0.203,-0.348
19.629,-0.930,0.205,-0.346
19.638,-0.932,0.209,-0.348
19.648,-0.936,0.211,-0.346
19.658,-0.934,0.207,-0.344
19.668,-0.936,0.205,-0.348
19.678,-0.938,0.205,-0.348
19.688,-0.939,0.207,-0.346
19.698,-0.938,0.201,-0.346
19.708,-0.936,0.203,-0.344
19.718,-0.939,0.205,-0.346
19.728,-0.936,0.205,-0.344
19.738,-0.934,0.203,-0.344
19.748,-0.934,0.201,-0.342
19.757,-0.934,0.203,-0.342
19.767,-0.932,0.205,-0.340
19.777,-0.934,0.205,-0.340
19.787,-0.932,0.207,-0.342
19.797,-0.930,0.205,-0.344
19.807,-0.930,0.207,-0.340
19.817,-0.934,0.201,-0.342
19.827,-0.930,0.203,-0.342
19.837,-0.934,0.205,-0.342
19.847,-0.932,0.207,-0.342
19.857,-0.932,0.207,-0.344
19.867,-0.934,0.205,-0.342
19.876,-0.934,0.205,-0.342
19.886,-0.934,0.201,-0.342
19.896,-0.936,0.205,-0.340
19.906,-0.934,0.205,-0.340
19.916,-0.936,0.205,-0.344
19.926,-0.936,0.207,-0.340
19.936,-0.936,0.203,-0.346
19.946,-0.934,0.203,-0.344
19.956,-0.936,0.201,-0.346
19.966,-0.938,0.201,-0.342
19.976,-0.938,0.203,-0.342
19.986,-0.938,0.203,-0.346
19.995,-0.934,0.207,-0.344
20.005,-0.936,0.209,-0.342
20.015,-0.934,0.211,-0.344
20.025,-0.934,0.213,-0.344
20.035,-0.932,0.207,-0.342
20.045,-0.930,0.205,-0.346
20.055,-0.930,0.209,-0.344
20.065,-0.928,0.207,-0.344
20.075,-0.928,0.207,-0.344
20.085,-0.926,0.205,-0.342
20.095,-0.928,0.205,-0.342
20.105,-0.926,0.209,-0.342
20.114,-0.930,0.205,-0.342
20.124,-0.932,0.201,-0.348
20.134,-0.932,0.201,-0.346
20.144,-0.938,0.201,-0.344
20.154,-0.941,0.211,-0.348
20.164,-0.941,0.211,-0.346
20.174,-0.941,0.207,-0.346
20.184,-0.938,0.209,-0.342
20.194,-0.936,0.205,-0.344
20.204,-0.934,0.207,-0.348
20.214,-0.934,0.203,-0.348
20.224,-0.934,0.203,-0.346
20.233,-0.930,0.199,-0.342
20.243,-0.932,0.205,-0.342
20.253,-0.932,0.207,-0.348
20.263,-0.932,0.205,-0.344
20.273,-0.934,0.203,-0.344
20.283,-0.930,0.203,-0.346
20.293,-0.930,0.203,-0.344
20.303,-0.930,0.205,-0.340
20.313,-0.928,0.203,-0.340
20.323,-0.928,0.203,-0.346
20.333,-0.928,0.205,-0.342
20.343,-0.932,0.207,-0.342
20.352,-0.930,0.207,-0.340
20.362,-0.928,0.211,-0.342
20.372,-0.932,0.211,-0.340
20.382,-0.926,0.203,-0.342
20.392,-0.930,0.199,-0.346
20.402,-0.932,0.201,-0.348
20.412,-0.936,0.203,-0.348
20.422,-0.934,0.207,-0.346
20.432,-0.936,0.209,-0.342
20.442,-0.938,0.205,-0.344
20.452,-0.936,0.209,-0.344
20.462,-0.939,0.211,-0.342
20.471,-0.938,0.205,-0.346
20.481,-0.934,0.205,-0.344
20.491,-0.934,0.205,-0.346
20.501,-0.934,0.203,-0.340
20.511,-0.932,0.205,-0.340
20.521,-0.932,0.205,-0.346
20.531,-0.932,0.203,-0.344
20.541,-0.932,0.205,-0.344
20.551,-0.932,0.203,-0.342
20.561,-0.932,0.205,-0.340
20.571,-0.934,0.207,-0.342
20.581,-0.932,0.207,-0.342
20.590,-0.932,0.207,-0.344
20.600,-0.932,0.207,-0.342
20.610,-0.930,0.207,-0.344
20.620,-0.934,0.207,-0.344
20.630,-0.932,0.207,-0.344
20.640,-0.934,0.205,-0.344
20.650,-0.934,0.203,-0.344
20.660,-0.934,0.205,-0.342
20.670,-0.936,0.201,-0.344
20.680,-0.934,0.203,-0.344
20.690,-0.934,0.205,-0.346
20.700,-0.936,0.203,-0.344
20.709,-0.936,0.207,-0.344
20.719,-0.932,0.207,-0.344
20.729,-0.932,0.209,-0.346
20.739,-0.932,0.209,-0.346
20.749,-0.932,0.211,-0.346
20.759,-0.932,0.205,-0.342
20.769,-0.932,0.203,-0.344
20.779,-0.932,0.199,-0.344
20.789,-0.932,0.203,-0.342
20.799,-0.932,0.199,-0.344
20.809,-0.932,0.199,-0.346
20.819,-0.932,0.203,-0.344
20.828,-0.934,0.205,-0.348
20.838,-0.936,0.207,-0.346
20.848,-0.936,0.209,-0.346
20.858,-0.932,0.211,-0.342
20.868,-0.932,0.207,-0.348
20.878,-0.936,0.207,-0.346
20.888,-0.934,0.209,-0.346
20.898,-0.930,0.207,-0.344
20.908,-0.932,0.203,-0.344
20.918,-0.928,0.203,-0.346
20.928,-0.926,0.199,-0.344
20.938,-0.924,0.203,-0.342
20.948,-0.930,0.203,-0.342
20.957,-0.930,0.201,-0.344
20.967,-0.936,0.201,-0.346
20.977,-0.939,0.207,-0.346
20.987,-0.941,0.213,-0.342
20.997,-0.939,0.215,-0.342
21.007,-0.941,0.209,-0.344
21.017,-0.938,0.207,-0.342
21.027,-0.934,0.203,-0.344
21.037,-0.934,0.199,-0.346
21.047,-0.934,0.197,-0.346
21.057,-0.934,0.199,-0.344
21.067,-0.932,0.203,-0.344
21.076,-0.932,0.201,-0.344
21.086,-0.932,0.205,-0.346
21.096,-0.932,0.203,-0.346
21.106,-0.932,0.205,-0.342
21.116,-0.934,0.207,-0.340
21.126,-0.934,0.203,-0.348
21.136,-0.936,0.203,-0.340
21.146,-0.934,0.205,-0.342
21.156,-0.936,0.207,-0.346
21.166,-0.938,0.205,-0.342
21.176,-0.934,0.205,-0.346
21.186,-0.932,0.203,-0.340
21.195,-0.928,0.209,-0.344
21.205,-0.930,0.205,-0.342
21.215,-0.930,0.203,-0.340
21.225,-0.932,0.203,-0.346
21.235,-0.932,0.201,-0.346
21.245,-0.930,0.199,-0.346
21.255,-0.934,0.205,-0.342
21.265,-0.936,0.209,-0.344
21.275,-0.938,0.209,-0.344
21.285,-0.939,0.209,-0.344
21.295,-0.939,0.207,-0.344
21.305,-0.938,0.205,-0.342
21.314,-0.936,0.203,-0.340
21.324,-0.934,0.201,-0.342
21.334,-0.932,0.201,-0.342
21.344,-0.932,0.201,-0.342
21.354,-0.930,0.203,-0.342
21.364,-0.932,0.201,-0.342
21.374,-0.928,0.203,-0.342
21.384,-0.932,0.205,-0.344
21.394,-0.930,0.207,-0.344
21.404,-0.932,0.205,-0.344
21.414,-0.932,0.207,-0.340
21.424,-0.930,0.203,-0.344
21.433,-0.932,0.207,-0.342
21.443,-0.932,0.207,-0.346
21.453,-0.932,0.207,-0.344
21.463,-0.930,0.203,-0.342
21.473,-0.934,0.203,-0.346
21.483,-0.934,0.203,-0.344
21.493,-0.936,0.201,-0.344
21.503,-0.934,0.197,-0.344
21.513,-0.936,0.199,-0.342
21.523,-0.938,0.199,-0.344
21.533,-0.938,0.197,-0.348
21.543,-0.941,0.199,-0.342
21.552,-0.941,0.197,-0.348
21.562,-0.939,0.201,-0.344
21.572,-0.941,0.201,-0.346
21.582,-0.941,0.199,-0.344
21.592,-0.939,0.201,-0.346
21.602,-0.938,0.203,-0.348
21.612,-0.932,0.207,-0.344
21.622,-0.936,0.203,-0.344
21.632,-0.930,0.203,-0.342
21.642,-0.926,0.203,-0.342
21.652,-0.924,0.207,-0.342
21.662,-0.924,0.205,-0.342
21.671,-0.924,0.205,-0.346
21.681,-0.924,0.205,-0.344
21.691,-0.930,0.205,-0.342
21.701,-0.930,0.203,-0.344
21.711,-0.938,0.199,-0.344
21.721,-0.939,0.203,-0.346
21.731,-0.943,0.209,-0.344
21.741,-0.939,0.205,-0.344
21.751,-0.938,0.205,-0.342
21.761,-0.938,0.207,-0.344
21.771,-0.936,0.205,-0.346
21.781,-0.934,0.201,-0.346
21.790,-0.936,0.201,-0.346
21.800,-0.932,0.201,-0.344
21.810,-0.932,0.205,-0.346
21.820,-0.932,0.203,-0.342
21.830,-0.934,0.205,-0.348
21.840,-0.932,0.205,-0.342
21.850,-0.934,0.205,-0.342
21.860,-0.936,0.203,-0.344
21.870,-0.930,0.205,-0.342
21.880,-0.930,0.203,-0.344
21.890,-0.930,0.205,-0.344
21.900,-0.932,0.205,-0.342
21.909,-0.930,0.205,-0.342
21.919,-0.928,0.203,-0.338
21.929,-0.926,0.209,-0.338
21.939,-0.930,0.207,-0.338
21.949,-0.928,0.203,-0.342
21.959,-0.926,0.207,-0.338
21.969,-0.930,0.201,-0.344
21.979,-0.932,0.201,-0.344
21.989,-0.934,0.199,-0.342
21.999,-0.938,0.203,-0.340
22.009,-0.938,0.207,-0.344
22.019,-0.939,0.207,-0.342
22.028,-0.939,0.205,-0.344
22.038,-0.939,0.207,-0.344
22.048,-0.936,0.201,-0.346
22.058,-0.938,0.203,-0.348
22.068,-0.939,0.201,-0.348
22.078,-0.936,0.203,-0.344
22.088,-0.932,0.205,-0.340
22.098,-0.936,0.203,-0.344
22.108,-0.934,0.203,-0.344
22.118,-0.932,0.205,-0.344
22.128,-0.934,0.209,-0.340
22.138,-0.930,0.205,-0.340
22.147,-0.932,0.207,-0.342
22.157,-0.930,0.205,-0.342
22.167,-0.930,0.203,-0.340
22.177,-0.934,0.201,-0.342
22.187,-0.930,0.205,-0.344
22.197,-0.930,0.205,-0.342
22.207,-0.932,0.203,-0.342
22.217,-0.934,0.203,-0.342
22.227,-0.934,0.205,-0.342
22.237,-0.934,0.205,-0.342
22.247,-0.932,0.207,-0.340
22.257,-0.936,0.207,-0.342
22.266,-0.936,0.205,-0.340
22.276,-0.934,0.205,-0.342
22.286,-0.934,0.207,-0.344
22.296,-0.936,0.203,-0.342
22.306,-0.939,0.199,-0.340
22.316,-0.936,0.201,-0.344
22.326,-0.938,0.201,-0.346
22.336,-0.936,0.201,-0.342
22.346,-0.939,0.207,-0.340
22.356,-0.939,0.209,-0.342
22.366,-0.936,0.209,-0.342
22.376,-0.930,0.205,-0.342
22.385,-0.930,0.205,-0.340
22.395,-0.930,0.207,-0.342
22.405,-0.928,0.205,-0.342
22.415,-0.926,0.203,-0.340
22.425,-0.926,0.203,-0.338
22.435,-0.930,0.205,-0.342
22.445,-0.928,0.207,-0.340
22.455,-0.930,0.205,-0.342
22.465,-0.934,0.197,-0.344
22.475,-0.939,0.199,-0.344
22.485,-0.941,0.205,-0.346
22.495,-0.945,0.211,-0.346
22.504,-0.943,0.213,-0.342
22.514,-0.941,0.209,-0.340
22.524,-0.938,0.203,-0.344
22.534,-0.936,0.201,-0.346
22.544,-0.934,0.201,-0.342
22.554,-0.934,0.201,-0.344
22.564,-0.932,0.201,-0.344
22.574,-0.934,0.203,-0.346
22.584,-0.934,0.205,-0.346
22.594,-0.932,0.203,-0.342
22.604,-0.932,0.201,-0.340
22.614,-0.936,0.203,-0.342
22.623,-0.936,0.203,-0.340
22.633,-0.932,0.203,-0.338
22.643,-0.932,0.201,-0.338
22.653,-0.932,0.201,-0.342
22.663,-0.932,0.205,-0.340
22.673,-0.932,0.205,-0.342
22.683,-0.932,0.203,-0.340
22.693,-0.930,0.205,-0.338
22.703,-0.928,0.207,-0.340
22.713,-0.930,0.203,-0.338
22.723,-0.928,0.201,-0.346
22.733,-0.932,0.199,-0.344
22.742,-0.932,0.201,-0.342
22.752,-0.936,0.203,-0.346
22.762,-0.939,0.207,-0.344
22.772,-0.939,0.205,-0.344
22.782,-0.941,0.207,-0.344
22.792,-0.941,0.207,-0.342
22.802,-0.941,0.205,-0.342
22.812,-0.938,0.203,-0.340
22.822,-0.936,0.203,-0.340
22.832,-0.934,0.203,-0.340
22.842,-0.932,0.203,-0.342
22.852,-0.930,0.201,-0.340
22.861,-0.930,0.205,-0.342
22.871,-0.930,0.205,-0.340
22.881,-0.930,0.207,-0.338
22.891,-0.930,0.205,-0.340
22.901,-0.932,0.199,-0.342
22.911,-0.934,0.205,-0.342
22.921,-0.934,0.207,-0.342
22.931,-0.932,0.209,-0.342
22.941,-0.934,0.203,-0.342
22.951,-0.934,0.205,-0.342
22.961,-0.936,0.203,-0.342
22.971,-0.936,0.203,-0.336
22.980,-0.932,0.203,-0.340
22.990,-0.936,0.205,-0.342
23.000,-0.936,0.199,-0.344
23.010,-0.932,0.199,-0.344
23.020,-0.938,0.201,-0.342
23.030,-0.936,0.199,-0.342
23.040,-0.936,0.199,-0.342
23.050,-0.936,0.203,-0.340
23.060,-0.934,0.203,-0.342
23.070,-0.938,0.201,-0.342
23.080,-0.938,0.203,-0.342
23.090,-0.936,0.201,-0.340
23.099,-0.936,0.203,-0.344
23.109,-0.938,0.201,-0.342
23.119,-0.936,0.199,-0.344
23.129,-0.934,0.201,-0.344
23.139,-0.936,0.205,-0.346
23.149,-0.936,0.201,-0.346
23.159,-0.936,0.203,-0.342
23.169,-0.934,0.203,-0.340
23.179,-0.936,0.205,-0.344
23.189,-0.934,0.203,-0.344
23.199,-0.932,0.201,-0.338
23.209,-0.934,0.201,-0.340
23.218,-0.932,0.203,-0.342
23.228,-0.932,0.201,-0.342
23.238,-0.932,0.199,-0.340
23.248,-0.928,0.203,-0.340
23.258,-0.930,0.205,-0.346
23.268,-0.930,0.205,-0.344
23.278,-0.932,0.201,-0.346
23.288,-0.938,0.201,-0.346
23.298,-0.941,0.203,-0.348
23.308,-0.941,0.209,-0.346
23.318,-0.941,0.211,-0.346
23.328,-0.939,0.211,-0.346
23.337,-0.939,0.209,-0.342
23.347,-0.934,0.207,-0.344
23.357,-0.930,0.203,-0.344
23.367,-0.934,0.201,-0.342
23.377,-0.930,0.203,-0.344
23.387,-0.930,0.207,-0.344
23.397,-0.934,0.203,-0.340
23.407,-0.930,0.205,-0.342
23.417,-0.932,0.205,-0.344
23.427,-0.928,0.205,-0.342
23.437,-0.934,0.205,-0.340
23.447,-0.932,0.205,-0.342
23.457,-0.932,0.205,-0.338
23.466,-0.930,0.205,-0.340
23.476,-0.932,0.205,-0.344
23.486,-0.932,0.207,-0.342
23.496,-0.932,0.209,-0.338
23.506,-0.932,0.201,-0.338
23.516,-0.930,0.209,-0.344
23.526,-0.930,0.205,-0.338
23.536,-0.932,0.203,-0.340
23.546,-0.930,0.201,-0.340
23.556,-0.930,0.201,-0.344
23.566,-0.936,0.197,-0.340
23.576,-0.936,0.207,-0.342
23.585,-0.938,0.207,-0.344
23.595,-0.936,0.209,-0.342
23.605,-0.938,0.207,-0.342
23.615,-0.939,0.203,-0.342
23.625,-0.938,0.205,-0.340
23.635,-0.936,0.201,-0.342
23.645,-0.932,0.199,-0.340
23.655,-0.934,0.199,-0.340
23.665,-0.936,0.199,-0.338
23.675,-0.934,0.197,-0.338
23.685,-0.932,0.201,-0.344
23.695,-0.936,0.199,-0.340
23.704,-0.938,0.201,-0.340
23.714,-0.936,0.201,-0.340
23.724,-0.936,0.201,-0.344
23.734,-0.936,0.201,-0.340
23.744,-0.936,0.205,-0.342
23.754,-0.938,0.205,-0.344
23.764,-0.934,0.205,-0.336
23.774,-0.932,0.203,-0.340
23.784,-0.934,0.203,-0.342
23.794,-0.932,0.203,-0.340
23.804,-0.934,0.207,-0.342
23.814,-0.932,0.207,-0.340
23.823,-0.932,0.205,-0.342
23.833,-0.934,0.201,-0.344
23.843,-0.932,0.201,-0.340
23.853,-0.936,0.201,-0.342
23.863,-0.936,0.201,-0.344
23.873,-0.936,0.201,-0.346
23.883,-0.939,0.203,-0.344
23.893,-0.941,0.205,-0.344
23.903,-0.943,0.203,-0.344
23.913,-0.939,0.205,-0.344
23.923,-0.939,0.203,-0.346
23.933,-0.936,0.205,-0.344
23.942,-0.934,0.205,-0.342
23.952,-0.934,0.205,-0.342
23.962,-0.928,0.203,-0.342
23.972,-0.928,0.203,-0.346
23.982,-0.926,0.201,-0.344
23.992,-0.926,0.205,-0.338
24.002,-0.924,0.203,-0.340
24.012,-0.924,0.201,-0.340
24.022,-0.926,0.203,-0.342
24.032,-0.930,0.205,-0.342
24.042,-0.932,0.203,-0.342
24.052,-0.936,0.201,-0.346
24.061,-0.943,0.207,-0.344
24.071,-0.945,0.209,-0.346
24.081,-0.943,0.207,-0.346
24.091,-0.941,0.205,-0.344
24.101,-0.939,0.201,-0.342
24.111,-0.936,0.197,-0.348
24.121,-0.936,0.195,-0.344
24.131,-0.936,0.195,-0.344
24.141,-0.936,0.195,-0.344
24.151,-0.932,0.197,-0.342
24.161,-0.932,0.199,-0.342
24.171,-0.936,0.199,-0.344
24.180,-0.936,0.201,-0.344
24.190,-0.936,0.201,-0.346
24.200,-0.936,0.203,-0.344
24.210,-0.936,0.203,-0.344
24.220,-0.934,0.203,-0.344
24.230,-0.934,0.201,-0.346
24.240,-0.932,0.199,-0.344
24.250,-0.932,0.201,-0.340
24.260,-0.930,0.203,-0.342
24.270,-0.930,0.203,-0.342
24.280,-0.932,0.203,-0.344
24.290,-0.932,0.201,-0.340
24.299,-0.932,0.203,-0.344
24.309,-0.934,0.199,-0.344
24.319,-0.930,0.201,-0.340
24.329,-0.934,0.201,-0.344
24.339,-0.936,0.203,-0.348
24.349,-0.938,0.205,-0.346
24.359,-0.938,0.207,-0.344
24.369,-0.938,0.207,-0.344
24.379,-0.936,0.205,-0.342
24.389,-0.938,0.205,-0.344
24.399,-0.934,0.201,-0.344
24.409,-0.934,0.203,-0.344
24.418,-0.934,0.205,-0.344
24.428,-0.934,0.205,-0.344
24.438,-0.930,0.207,-0.346
24.448,-0.934,0.205,-0.344
24.458,-0.932,0.205,-0.336
24.468,-0.932,0.205,-0.344
24.478,-0.930,0.207,-0.342
24.488,-0.932,0.203,-0.342
24.498,-0.932,0.205,-0.342
24.508,-0.936,0.205,-0.342
24.518,-0.934,0.203,-0.342
24.528,-0.930,0.205,-0.344
24.537,-0.934,0.205,-0.342
24.547,-0.928,0.203,-0.342
24.557,-0.932,0.201,-0.342
24.567,-0.932,0.199,-0.340
24.577,-0.934,0.199,-0.342
24.587,-0.934,0.201,-0.340
24.597,-0.936,0.199,-0.342
24.607,-0.936,0.199,-0.342
24.617,-0.936,0.201,-0.342
24.627,-0.941,0.199,-0.346
24.637,-0.939,0.203,-0.342
24.647,-0.941,0.201,-0.342
24.656,-0.938,0.201,-0.344
24.666,-0.939,0.203,-0.342
24.676,-0.934,0.203,-0.342
24.686,-0.932,0.205,-0.344
24.696,-0.928,0.203,-0.346
24.706,-0.932,0.201,-0.340
24.716,-0.928,0.203,-0.342
24.726,-0.930,0.201,-0.344
24.736,-0.930,0.203,-0.342
24.746,-0.932,0.205,-0.342
24.756,-0.932,0.201,-0.346
24.766,-0.934,0.197,-0.342
24.775,-0.936,0.197,-0.346
24.785,-0.939,0.203,-0.346
24.795,-0.939,0.205,-0.346
24.805,-0.943,0.213,-0.342
24.815,-0.938,0.211,-0.344
24.825,-0.938,0.205,-0.342
24.835,-0.934,0.203,-0.346
24.845,-0.936,0.203,-0.344
24.855,-0.930,0.201,-0.344
24.865,-0.934,0.197,-0.344
24.875,-0.932,0.203,-0.344
24.885,-0.934,0.203,-0.346
24.894,-0.934,0.203,-0.342
24.904,-0.932,0.203,-0.342
24.914,-0.934,0.203,-0.340
24.924,-0.932,0.201,-0.346
24.934,-0.934,0.199,-0.342
24.944,-0.932,0.203,-0.346
24.954,-0.932,0.203,-0.346
24.964,-0.932,0.201,-0.344
24.974,-0.930,0.203,-0.342
24.984,-0.932,0.203,-0.344
24.994,-0.934,0.205,-0.342
25.004,-0.932,0.209,-0.342
25.013,-0.932,0.209,-0.340
25.023,-0.934,0.201,-0.340
25.033,-0.930,0.199,-0.346
25.043,-0.932,0.197,-0.342
25.053,-0.932,0.197,-0.344
25.063,-0.938,0.203,-0.346
25.073,-0.938,0.205,-0.344
25.083,-0.938,0.207,-0.344
25.093,-0.938,0.211,-0.346
25.103,-0.938,0.209,-0.340
25.113,-0.934,0.207,-0.348
25.123,-0.934,0.203,-0.344
25.132,-0.932,0.201,-0.344
25.142,-0.932,0.203,-0.342
25.152,-0.934,0.201,-0.342
25.162,-0.934,0.201,-0.344
25.172,-0.932,0.205,-0.342
25.182,-0.934,0.203,-0.342
25.192,-0.932,0.205,-0.342
25.202,-0.932,0.201,-0.342
25.212,-0.934,0.207,-0.340
25.222,-0.934,0.203,-0.344
25.232,-0.932,0.201,-0.342
25.242,-0.932,0.199,-0.344
25.251,-0.932,0.203,-0.344
25.261,-0.936,0.201,-0.346
25.271,-0.934,0.203,-0.346
25.281,-0.932,0.203,-0.344
25.291,-0.932,0.203,-0.348
25.301,-0.934,0.201,-0.348
25.311,-0.934,0.201,-0.344
25.321,-0.932,0.201,-0.340
25.331,-0.934,0.203,-0.346
25.341,-0.934,0.199,-0.346
25.351,-0.938,0.199,-0.342
25.361,-0.936,0.199,-0.346
25.370,-0.934,0.199,-0.346
25.380,-0.934,0.203,-0.344
25.390,-0.936,0.199,-0.344
25.400,-0.936,0.199,-0.342
25.410,-0.936,0.201,-0.346
25.420,-0.936,0.201,-0.348
25.430,-0.936,0.203,-0.346
25.440,-0.934,0.201,-0.346
25.450,-0.932,0.207,-0.344
25.460,-0.932,0.205,-0.344
25.470,-0.930,0.205,-0.344
25.480,-0.928,0.201,-0.346
25.489,-0.924,0.199,-0.346
25.499,-0.926,0.203,-0.346
25.509,-0.928,0.201,-0.346
25.519,-0.932,0.201,-0.344
25.529,-0.932,0.199,-0.344
25.539,-0.938,0.197,-0.348
25.549,-0.939,0.199,-0.348
25.559,-0.941,0.203,-0.346
25.569,-0.938,0.205,-0.348
25.579,-0.941,0.209,-0.346
25.589,-0.936,0.205,-0.344
25.599,-0.934,0.201,-0.346
25.608,-0.936,0.199,-0.344
25.618,-0.934,0.199,-0.348
25.628,-0.932,0.199,-0.348
25.638,-0.932,0.197,-0.346
25.648,-0.932,0.199,-0.346
25.658,-0.930,0.201,-0.344
25.668,-0.932,0.203,-0.344
25.678,-0.932,0.205,-0.346
25.688,-0.936,0.203,-0.344
25.698,-0.928,0.201,-0.342
25.708,-0.928,0.201,-0.344
25.718,-0.930,0.201,-0.346
25.727,-0.930,0.199,-0.346
25.737,-0.934,0.203,-0.344
25.747,-0.934,0.203,-0.344
25.757,-0.932,0.201,-0.344
25.767,-0.932,0.205,-0.346
25.777,-0.936,0.203,-0.342
25.787,-0.934,0.195,-0.344
25.797,-0.930,0.193,-0.344
25.807,-0.932,0.193,-0.348
25.817,-0.936,0.197,-0.346
25.827,-0.936,0.199,-0.346
25.837,-0.939,0.203,-0.342
25.846,-0.939,0.205,-0.344
25.856,-0.941,0.203,-0.346
25.866,-0.941,0.207,-0.346
25.876,-0.939,0.203,-0.346
25.886,-0.936,0.203,-0.346
25.896,-0.932,0.201,-0.342
25.906,-0.928,0.201,-0.344
25.916,-0.930,0.201,-0.342
25.926,-0.930,0.197,-0.340
25.936,-0.926,0.199,-0.340
25.946,-0.928,0.199,-0.344
25.956,-0.930,0.201,-0.346
25.966,-0.934,0.203,-0.342
25.975,-0.932,0.201,-0.344
25.985,-0.932,0.203,-0.344
25.995,-0.932,0.201,-0.342
26.005,-0.934,0.203,-0.346
26.015,-0.932,0.207,-0.344
26.025,-0.934,0.199,-0.344
26.035,-0.936,0.201,-0.344
26.045,-0.934,0.197,-0.346
26.055,-0.934,0.201,-0.346
26.065,-0.934,0.199,-0.346
26.075,-0.934,0.203,-0.344
26.085,-0.934,0.201,-0.342
26.094,-0.938,0.199,-0.346
26.104,-0.939,0.201,-0.348
26.114,-0.936,0.201,-0.344
26.124,-0.936,0.201,-0.350
26.134,-0.934,0.199,-0.346
26.144,-0.930,0.201,-0.348
26.154,-0.934,0.199,-0.348
26.164,-0.936,0.199,-0.348
26.174,-0.932,0.199,-0.344
26.184,-0.936,0.199,-0.348
26.194,-0.936,0.197,-0.350
26.204,-0.936,0.201,-0.346
26.213,-0.936,0.203,-0.344
26.223,-0.934,0.201,-0.350
26.233,-0.934,0.201,-0.346
26.243,-0.932,0.203,-0.346
26.253,-0.932,0.197,-0.348
26.263,-0.930,0.201,-0.344
26.273,-0.930,0.199,-0.344
26.283,-0.928,0.199,-0.346
26.293,-0.926,0.197,-0.346
26.303,-0.928,0.199,-0.342
26.313,-0.928,0.205,-0.348
26.323,-0.926,0.201,-0.348
26.332,-0.932,0.197,-0.350
26.342,-0.938,0.197,-0.352
26.352,-0.939,0.203,-0.350
26.362,-0.943,0.207,-0.348
26.372,-0.941,0.209,-0.348
26.382,-0.938,0.207,-0.348
26.392,-0.938,0.201,-0.348
26.402,-0.934,0.201,-0.346
26.412,-0.934,0.197,-0.346
26.422,-0.930,0.193,-0.348
26.432,-0.930,0.195,-0.346
26.442,-0.928,0.195,-0.348
26.451,-0.928,0.199,-0.348
26.461,-0.930,0.201,-0.344
26.471,-0.934,0.205,-0.346
26.481,-0.932,0.203,-0.348
26.491,-0.934,0.197,-0.348
26.501,-0.932,0.201,-0.346
26.511,-0.934,0.201,-0.348
26.521,-0.932,0.205,-0.344
26.531,-0.930,0.201,-0.350
26.541,-0.934,0.201,-0.348
26.551,-0.932,0.199,-0.346
26.561,-0.928,0.203,-0.346
26.570,-0.930,0.205,-0.346
26.580,-0.930,0.201,-0.344
26.590,-0.930,0.197,-0.344
26.600,-0.930,0.193,-0.348
26.610,-0.934,0.195,-0.348
26.620,-0.934,0.197,-0.348
26.630,-0.936,0.201,-0.346
26.640,-0.939,0.207,-0.348
26.650,-0.939,0.205,-0.348
26.660,-0.939,0.209,-0.346
26.670,-0.938,0.205,-0.344
26.680,-0.934,0.203,-0.344
26.689,-0.934,0.201,-0.348
26.699,-0.928,0.197,-0.344
26.709,-0.930,0.199,-0.346
26.719,-0.930,0.201,-0.348
26.729,-0.930,0.197,-0.346
26.739,-0.928,0.199,-0.346
26.749,-0.930,0.199,-0.346
26.759,-0.928,0.201,-0.342
26.769,-0.932,0.203,-0.346
26.779,-0.930,0.203,-0.348
26.789,-0.930,0.201,-0.348
26.799,-0.934,0.201,-0.346
26.808,-0.934,0.203,-0.344
26.818,-0.930,0.203,-0.348
26.828,-0.932,0.201,-0.344
26.838,-0.932,0.203,-0.346
26.848,-0.936,0.199,-0.348
26.858,-0.930,0.199,-0.344
26.868,-0.932,0.197,-0.346
26.878,-0.936,0.197,-0.348
26.888,-0.934,0.195,-0.348
26.898,-0.936,0.197,-0.346
26.908,-0.938,0.197,-0.350
26.918,-0.936,0.195,-0.348
26.927,-0.941,0.199,-0.348
26.937,-0.941,0.201,-0.348
26.947,-0.939,0.199,-0.348
26.957,-0.938,0.199,-0.348
26.967,-0.936,0.201,-0.346
26.977,-0.930,0.199,-0.346
26.987,-0.932,0.201,-0.348
26.997,-0.928,0.201,-0.344
27.007,-0.926,0.203,-0.344
27.017,-0.924,0.199,-0.348
27.027,-0.924,0.199,-0.342
27.037,-0.924,0.199,-0.346
27.046,-0.928,0.205,-0.346
27.056,-0.930,0.203,-0.342
27.066,-0.932,0.199,-0.348
27.076,-0.938,0.197,-0.350
27.086,-0.938,0.199,-0.348
27.096,-0.939,0.203,-0.340
27.106,-0.939,0.207,-0.344
27.116,-0.938,0.205,-0.348
27.126,-0.938,0.201,-0.346
27.136,-0.934,0.197,-0.348
27.146,-0.938,0.197,-0.348
27.156,-0.936,0.195,-0.350
27.165,-0.932,0.195,-0.348
27.175,-0.936,0.197,-0.348
27.185,-0.934,0.201,-0.344
27.195,-0.934,0.201,-0.346
27.205,-0.934,0.199,-0.342
27.215,-0.934,0.201,-0.346
27.225,-0.934,0.201,-0.346
27.235,-0.934,0.201,-0.346
27.245,-0.934,0.201,-0.344
27.255,-0.932,0.199,-0.346
27.265,-0.932,0.201,-0.344
27.275,-0.932,0.201,-0.342
27.284,-0.934,0.201,-0.340
27.294,-0.932,0.201,-0.344
27.304,-0.930,0.203,-0.344
27.314,-0.932,0.195,-0.340
27.324,-0.932,0.195,-0.344
27.334,-0.932,0.197,-0.344
27.344,-0.932,0.195,-0.346
27.354,-0.936,0.199,-0.342
27.364,-0.934,0.199,-0.342
27.374,-0.939,0.205,-0.344
27.384,-0.938,0.203,-0.348
27.394,-0.939,0.203,-0.344
27.403,-0.938,0.199,-0.346
27.413,-0.936,0.199,-0.344
27.423,-0.938,0.197,-0.348
27.433,-0.938,0.203,-0.346
27.443,-0.934,0.201,-0.342
27.453,-0.932,0.201,-0.344
27.463,-0.932,0.201,-0.342
27.473,-0.934,0.203,-0.344
27.483,-0.932,0.201,-0.342
27.493,-0.934,0.201,-0.342
27.503,-0.932,0.201,-0.344
27.513,-0.932,0.201,-0.346
27.522,-0.934,0.197,-0.340
27.532,-0.934,0.199,-0.340
27.542,-0.930,0.197,-0.342
27.552,-0.934,0.201,-0.340
27.562,-0.934,0.199,-0.344
27.572,-0.934,0.203,-0.342
27.582,-0.934,0.201,-0.340
27.592,-0.932,0.201,-0.344
27.602,-0.930,0.199,-0.344
27.612,-0.934,0.197,-0.342
27.622,-0.932,0.199,-0.346
27.632,-0.934,0.199,-0.346
27.641,-0.936,0.197,-0.342
27.651,-0.936,0.197,-0.346
27.661,-0.938,0.195,-0.346
27.671,-0.938,0.197,-0.344
27.681,-0.939,0.197,-0.344
27.691,-0.938,0.197,-0.348
27.701,-0.938,0.201,-0.344
27.711,-0.938,0.203,-0.344
27.721,-0.939,0.199,-0.346
27.731,-0.934,0.203,-0.346
27.741,-0.932,0.201,-0.346
27.751,-0.930,0.199,-0.346
27.760,-0.932,0.195,-0.342
27.770,-0.928,0.199,-0.346
27.780,-0.926,0.197,-0.340
27.790,-0.924,0.199,-0.342
27.800,-0.926,0.203,-0.344
27.810,-0.930,0.199,-0.344
27.820,-0.932,0.197,-0.344
27.830,-0.936,0.195,-0.344
27.840,-0.939,0.197,-0.348
27.850,-0.943,0.201,-0.344
27.860,-0.943,0.207,-0.344
27.870,-0.941,0.203,-0.342
27.879,-0.941,0.201,-0.346
27.889,-0.938,0.199,-0.346
27.899,-0.934,0.199,-0.344
27.909,-0.934,0.197,-0.348
27.919,-0.934,0.197,-0.346
27.929,-0.932,0.197,-0.346
27.939,-0.934,0.197,-0.344
27.949,-0.932,0.197,-0.346
27.959,-0.932,0.199,-0.346
27.969,-0.932,0.197,-0.344
27.979,-0.936,0.201,-0.340
27.989,-0.934,0.197,-0.344
27.998,-0.934,0.199,-0.342
28.008,-0.934,0.199,-0.342
28.018,-0.934,0.199,-0.344
28.028,-0.932,0.201,-0.344
28.038,-0.930,0.201,-0.344
28.048,-0.930,0.199,-0.340
28.058,-0.928,0.203,-0.342
28.068,-0.932,0.207,-0.344
28.078,-0.932,0.201,-0.340
28.088,-0.928,0.197,-0.344
28.098,-0.930,0.195,-0.346
28.108,-0.936,0.197,-0.346
28.117,-0.934,0.203,-0.344
28.127,-0.936,0.207,-0.344
28.137,-0.939,0.205,-0.344
28.147,-0.941,0.203,-0.348
28.157,-0.941,0.203,-0.348
28.167,-0.943,0.201,-0.344
28.177,-0.939,0.197,-0.346
28.187,-0.936,0.199,-0.346
28.197,-0.930,0.195,-0.344
28.207,-0.934,0.199,-0.344
28.217,-0.932,0.197,-0.344
28.227,-0.932,0.195,-0.344
28.236,-0.930,0.199,-0.342
28.246,-0.930,0.197,-0.344
28.256,-0.932,0.197,-0.340
28.266,-0.934,0.199,-0.340
28.276,-0.936,0.199,-0.344
28.286,-0.938,0.203,-0.344
28.296,-0.936,0.203,-0.344
28.306,-0.936,0.201,-0.348
28.316,-0.936,0.203,-0.344
28.326,-0.936,0.201,-0.342
28.336,-0.936,0.199,-0.342
28.346,-0.936,0.197,-0.342
28.356,-0.936,0.195,-0.344
28.365,-0.939,0.197,-0.344
28.375,-0.936,0.195,-0.344
28.385,-0.938,0.193,-0.348
28.395,-0.939,0.195,-0.342
28.405,-0.939,0.195,-0.344
28.415,-0.938,0.195,-0.342
28.425,-0.938,0.197,-0.344
28.435,-0.936,0.197,-0.344
28.445,-0.934,0.197,-0.348
28.455,-0.936,0.199,-0.344
28.465,-0.936,0.197,-0.344
28.475,-0.932,0.201,-0.346
28.484,-0.939,0.199,-0.342
28.494,-0.938,0.199,-0.346
28.504,-0.934,0.203,-0.346
28.514,-0.934,0.201,-0.346
28.524,-0.932,0.203,-0.342
28.534,-0.934,0.199,-0.344
28.544,-0.934,0.201,-0.344
28.554,-0.932,0.199,-0.346
28.564,-0.928,0.197,-0.342
28.574,-0.924,0.197,-0.342
28.584,-0.928,0.201,-0.342
28.594,-0.928,0.201,-0.344
28.603,-0.932,0.199,-0.344
28.613,-0.939,0.195,-0.348
28.623,-0.941,0.199,-0.348
28.633,-0.945,0.203,-0.346
28.643,-0.949,0.209,-0.348
28.653,-0.945,0.209,-0.346
28.663,-0.939,0.207,-0.348
28.673,-0.938,0.201,-0.344
28.683,-0.936,0.199,-0.344
28.693,-0.934,0.191,-0.348
28.703,-0.928,0.195,-0.342
28.713,-0.928,0.195,-0.346
28.722,-0.928,0.201,-0.346
28.732,-0.930,0.203,-0.344
28.742,-0.928,0.199,-0.342
28.752,-0.930,0.205,-0.342
28.762,-0.930,0.201,-0.340
28.772,-0.928,0.201,-0.340
28.782,-0.932,0.199,-0.342
28.792,-0.932,0.197,-0.346
28.802,-0.932,0.197,-0.344
28.812,-0.930,0.199,-0.346
28.822,-0.934,0.201,-0.346
28.832,-0.932,0.197,-0.344
28.841,-0.932,0.203,-0.344
28.851,-0.934,0.201,-0.342
28.861,-0.934,0.197,-0.344
28.871,-0.932,0.193,-0.342
28.881,-0.932,0.193,-0.344
28.891,-0.932,0.195,-0.348
28.901,-0.938,0.197,-0.344
28.911,-0.941,0.201,-0.344
28.921,-0.943,0.201,-0.344
28.931,-0.943,0.201,-0.348
28.941,-0.938,0.201,-0.346
28.951,-0.941,0.201,-0.344
28.960,-0.938,0.195,-0.342
28.970,-0.936,0.195,-0.346
28.980,-0.932,0.195,-0.344
28.990,-0.932,0.195,-0.342
29.000,-0.934,0.197,-0.340
29.010,-0.936,0.197,-0.340
29.020,-0.936,0.197,-0.344
29.030,-0.936,0.197,-0.342
29.040,-0.932,0.197,-0.340
29.050,-0.936,0.195,-0.344
29.060,-0.934,0.199,-0.344
29.070,-0.934,0.201,-0.344
29.079,-0.932,0.201,-0.346
29.089,-0.936,0.201,-0.344
29.099,-0.934,0.201,-0.342
29.109,-0.934,0.201,-0.348
29.119,-0.932,0.201,-0.342
29.129,-0.932,0.199,-0.346
29.139,-0.934,0.197,-0.344
29.149,-0.938,0.197,-0.344
29.159,-0.936,0.197,-0.346
29.169,-0.939,0.197,-0.348
29.179,-0.939,0.197,-0.348
29.189,-0.939,0.197,-0.346
29.198,-0.939,0.199,-0.344
29.208,-0.939,0.199,-0.348
29.218,-0.936,0.201,-0.346
29.228,-0.936,0.199,-0.346
29.238,-0.932,0.199,-0.348
29.248,-0.932,0.203,-0.350
29.258,-0.932,0.195,-0.346
29.268,-0.928,0.197,-0.342
29.278,-0.926,0.197,-0.346
29.288,-0.926,0.195,-0.344
29.298,-0.926,0.199,-0.344
29.308,-0.928,0.205,-0.344
29.317,-0.932,0.201,-0.348
29.327,-0.936,0.195,-0.348
29.337,-0.941,0.197,-0.346
29.347,-0.943,0.199,-0.348
29.357,-0.941,0.203,-0.348
29.367,-0.939,0.203,-0.344
29.377,-0.939,0.201,-0.344
29.387,-0.936,0.199,-0.344
29.397,-0.932,0.195,-0.344
29.407,-0.936,0.193,-0.346
29.417,-0.938,0.193,-0.346
29.427,-0.932,0.193,-0.348
29.436,-0.934,0.199,-0.344
29.446,-0.934,0.199,-0.346
29.456,-0.936,0.201,-0.346
29.466,-0.936,0.199,-0.344
29.476,-0.938,0.197,-0.342
29.486,-0.934,0.197,-0.344
29.496,-0.934,0.197,-0.340
29.506,-0.934,0.199,-0.342
29.516,-0.934,0.195,-0.342
29.526,-0.936,0.205,-0.346
29.536,-0.932,0.197,-0.342
29.546,-0.936,0.197,-0.340
29.555,-0.934,0.203,-0.342
29.565,-0.934,0.201,-0.340
29.575,-0.932,0.199,-0.342
29.585,-0.934,0.195,-0.340
29.595,-0.934,0.195,-0.344
29.605,-0.934,0.195,-0.342
29.615,-0.932,0.197,-0.342
29.625,-0.936,0.199,-0.340
29.635,-0.938,0.201,-0.346
29.645,-0.941,0.201,-0.340
29.655,-0.941,0.201,-0.342
29.665,-0.939,0.199,-0.344
29.674,-0.938,0.197,-0.344
29.684,-0.936,0.197,-0.344
29.694,-0.936,0.199,-0.344
29.704,-0.936,0.201,-0.342
29.714,-0.936,0.199,-0.342
29.724,-0.936,0.197,-0.342
29.734,-0.934,0.197,-0.342
29.744,-0.936,0.201,-0.338
29.754,-0.934,0.199,-0.340
29.764,-0.938,0.197,-0.340
29.774,-0.934,0.201,-0.338
29.784,-0.932,0.201,-0.336
29.793,-0.932,0.201,-0.342
29.803,-0.938,0.199,-0.342
29.813,-0.932,0.201,-0.342
29.823,-0.936,0.203,-0.340
29.833,-0.934,0.199,-0.340
29.843,-0.936,0.197,-0.340
29.853,-0.934,0.197,-0.340
29.863,-0.938,0.197,-0.340
29.873,-0.936,0.197,-0.342
29.883,-0.938,0.191,-0.344
29.893,-0.939,0.193,-0.342
29.903,-0.936,0.195,-0.340
29.912,-0.936,0.199,-0.344
29.922,-0.939,0.201,-0.346
29.932,-0.938,0.203,-0.346
29.942,-0.938,0.201,-0.344
29.952,-0.936,0.199,-0.344
29.962,-0.936,0.201,-0.346
29.972,-0.936,0.199,-0.346
29.982,-0.934,0.201,-0.348
29.992,-0.930,0.201,-0.344
30.002,-0.932,0.197,-0.342
30.012,-0.930,0.193,-0.344
30.022,-0.926,0.201,-0.342
30.031,-0.928,0.203,-0.344
30.041,-0.932,0.195,-0.346
30.051,-0.934,0.191,-0.342
30.061,-0.938,0.195,-0.340
30.071,-0.938,0.201,-0.344
30.081,-0.943,0.207,-0.346
30.091,-0.941,0.207,-0.342
30.101,-0.939,0.203,-0.344
30.111,-0.939,0.197,-0.346
30.121,-0.936,0.195,-0.346
30.131,-0.936,0.195,-0.346
30.141,-0.934,0.193,-0.342
30.150,-0.938,0.197,-0.342
30.160,-0.932,0.197,-0.346
30.170,-0.938,0.199,-0.342
30.180,-0.936,0.201,-0.342
30.190,-0.938,0.195,-0.342
30.200,-0.934,0.191,-0.342
30.210,-0.934,0.197,-0.344
30.220,-0.938,0.197,-0.340
30.230,-0.934,0.199,-0.342
30.240,-0.936,0.197,-0.342
30.250,-0.930,0.195,-0.340
30.260,-0.932,0.197,-0.342
30.269,-0.936,0.201,-0.340
30.279,-0.934,0.201,-0.338
30.289,-0.932,0.205,-0.340
30.299,-0.932,0.205,-0.340
30.309,-0.930,0.197,-0.344
30.319,-0.932,0.195,-0.342
30.329,-0.936,0.191,-0.348
30.339,-0.938,0.193,-0.344
30.349,-0.941,0.201,-0.344
30.359,-0.939,0.203,-0.344
30.369,-0.943,0.203,-0.340
30.379,-0.939,0.203,-0.344
30.388,-0.941,0.201,-0.340
30.398,-0.939,0.199,-0.342
30.408,-0.938,0.197,-0.344
30.418,-0.936,0.199,-0.336
30.428,-0.930,0.197,-0.342
30.438,-0.930,0.193,-0.340
30.448,-0.932,0.195,-0.338
30.458,-0.932,0.195,-0.340
30.468,-0.934,0.195,-0.340
30.478,-0.936,0.201,-0.340
30.488,-0.938,0.195,-0.340
30.498,-0.938,0.195,-0.344
30.507,-0.938,0.197,-0.342
30.517,-0.938,0.199,-0.342
30.527,-0.939,0.201,-0.344
30.537,-0.939,0.199,-0.342
30.547,-0.938,0.199,-0.342
30.557,-0.936,0.199,-0.342
30.567,-0.936,0.195,-0.344
30.577,-0.938,0.195,-0.342
30.587,-0.936,0.197,-0.338
30.597,-0.934,0.199,-0.346
30.607,-0.936,0.195,-0.340
30.617,-0.936,0.197,-0.340
30.626,-0.936,0.195,-0.340
30.636,-0.936,0.193,-0.342
30.646,-0.939,0.195,-0.340
30.656,-0.941,0.197,-0.342
30.666,-0.941,0.197,-0.344
30.676,-0.939,0.199,-0.344
30.686,-0.938,0.201,-0.342
30.696,-0.936,0.201,-0.344
30.706,-0.932,0.203,-0.344
30.716,-0.930,0.205,-0.342
30.726,-0.930,0.201,-0.342
30.736,-0.932,0.201,-0.342
30.745,-0.930,0.199,-0.340
30.755,-0.932,0.195,-0.340
30.765,-0.930,0.191,-0.338
30.775,-0.926,0.195,-0.342
30.785,-0.930,0.199,-0.340
30.795,-0.932,0.197,-0.342
30.805,-0.938,0.197,-0.344
30.815,-0.943,0.199,-0.344
30.825,-0.947,0.197,-0.342
30.835,-0.947,0.199,-0.344
30.845,-0.951,0.203,-0.344
30.855,-0.945,0.203,-0.342
30.865,-0.939,0.199,-0.344
30.874,-0.938,0.197,-0.342
30.884,-0.934,0.193,-0.344
30.894,-0.936,0.191,-0.342
30.904,-0.934,0.191,-0.340
30.914,-0.932,0.193,-0.342
30.924,-0.936,0.197,-0.340
30.934,-0.936,0.197,-0.340
30.944,-0.938,0.195,-0.340
30.954,-0.936,0.195,-0.342
30.964,-0.936,0.197,-0.342
30.974,-0.936,0.197,-0.340
30.984,-0.938,0.193,-0.340
30.993,-0.934,0.193,-0.346
31.003,-0.934,0.193,-0.340
31.013,-0.936,0.197,-0.346
31.023,-0.934,0.199,-0.342
31.033,-0.930,0.203,-0.340
31.043,-0.932,0.199,-0.342
31.053,-0.934,0.197,-0.342
31.063,-0.930,0.195,-0.346
31.073,-0.928,0.193,-0.346
31.083,-0.932,0.193,-0.348
31.093,-0.939,0.199,-0.350
31.103,-0.939,0.205,-0.344
31.112,-0.938,0.203,-0.344
31.122,-0.938,0.203,-0.342
31.132,-0.941,0.203,-0.346
31.142,-0.938,0.199,-0.346
31.152,-0.938,0.201,-0.344
31.162,-0.936,0.199,-0.342
31.172,-0.934,0.199,-0.348
31.182,-0.930,0.199,-0.348
31.192,-0.932,0.195,-0.342
31.202,-0.936,0.201,-0.342
31.212,-0.930,0.201,-0.344
31.222,-0.932,0.199,-0.340
31.231,-0.932,0.199,-0.342
31.241,-0.936,0.199,-0.344
31.251,-0.936,0.199,-0.348
31.261,-0.936,0.199,-0.344
31.271,-0.934,0.199,-0.346
31.281,-0.936,0.201,-0.344
31.291,-0.930,0.199,-0.342
31.301,-0.932,0.199,-0.344
31.311,-0.932,0.195,-0.346
31.321,-0.932,0.195,-0.344
31.331,-0.936,0.195,-0.346
31.341,-0.938,0.191,-0.344
31.350,-0.941,0.195,-0.340
31.360,-0.943,0.197,-0.344
31.370,-0.943,0.197,-0.348
31.380,-0.941,0.197,-0.342
31.390,-0.941,0.195,-0.342
31.400,-0.939,0.195,-0.346
31.410,-0.936,0.197,-0.346
31.420,-0.936,0.197,-0.340
31.430,-0.936,0.195,-0.344
31.440,-0.932,0.195,-0.342
31.450,-0.928,0.195,-0.344
31.460,-0.928,0.197,-0.342
31.469,-0.924,0.195,-0.340
31.479,-0.926,0.199,-0.344
31.489,-0.928,0.201,-0.340
31.499,-0.930,0.201,-0.342
31.509,-0.934,0.201,-0.346
31.519,-0.939,0.201,-0.346
31.529,-0.943,0.203,-0.346
31.539,-0.945,0.203,-0.344
31.549,-0.939,0.205,-0.344
31.559,-0.939,0.197,-0.344
31.569,-0.936,0.191,-0.348
31.579,-0.932,0.193,-0.348
31.588,-0.934,0.191,-0.348
31.598,-0.932,0.193,-0.348
31.608,-0.936,0.195,-0.346
31.618,-0.936,0.195,-0.346
31.628,-0.938,0.197,-0.348
31.638,-0.936,0.201,-0.346
31.648,-0.938,0.197,-0.344
31.658,-0.936,0.201,-0.344
31.668,-0.936,0.203,-0.346
31.678,-0.934,0.201,-0.344
31.688,-0.932,0.199,-0.346
31.698,-0.932,0.199,-0.344
31.707,-0.934,0.199,-0.344
31.717,-0.934,0.195,-0.342
31.727,-0.932,0.201,-0.342
31.737,-0.932,0.201,-0.342
31.747,-0.932,0.203,-0.342
31.757,-0.930,0.197,-0.344
31.767,-0.932,0.199,-0.342
31.777,-0.930,0.195,-0.346
31.787,-0.930,0.197,-0.344
31.797,-0.934,0.199,-0.346
31.807,-0.938,0.201,-0.346
31.817,-0.939,0.199,-0.344
31.826,-0.938,0.201,-0.344
31.836,-0.941,0.197,-0.346
31.846,-0.943,0.197,-0.342
31.856,-0.938,0.195,-0.344
31.866,-0.939,0.197,-0.344
31.876,-0.939,0.199,-0.342
31.886,-0.939,0.201,-0.344
31.896,-0.934,0.201,-0.344
31.906,-0.936,0.197,-0.342
31.916,-0.936,0.197,-0.338
31.926,-0.934,0.201,-0.342
31.936,-0.936,0.199,-0.344
31.945,-0.936,0.199,-0.342
31.955,-0.934,0.199,-0.342
31.965,-0.934,0.201,-0.338
31.975,-0.932,0.203,-0.338
31.985,-0.932,0.201,-0.344
31.995,-0.936,0.199,-0.344
32.005,-0.934,0.201,-0.340
32.015,-0.934,0.199,-0.344
32.025,-0.936,0.195,-0.342
32.035,-0.939,0.197,-0.346
32.045,-0.947,0.199,-0.346
32.055,-0.951,0.197,-0.344
32.064,-0.953,0.197,-0.350
32.074,-0.951,0.195,-0.346
32.084,-0.949,0.195,-0.346
32.094,-0.949,0.199,-0.346
32.104,-0.947,0.201,-0.346
32.114,-0.947,0.203,-0.346
32.124,-0.945,0.201,-0.348
32.134,-0.941,0.199,-0.342
32.144,-0.939,0.199,-0.342
32.154,-0.934,0.197,-0.344
32.164,-0.926,0.195,-0.342
32.174,-0.922,0.203,-0.338
32.183,-0.922,0.203,-0.338
32.193,-0.920,0.201,-0.338
32.203,-0.920,0.197,-0.338
32.213,-0.920,0.197,-0.336
32.223,-0.920,0.203,-0.336
32.233,-0.918,0.211,-0.334
32.243,-0.922,0.211,-0.334
32.253,-0.918,0.217,-0.336
32.263,-0.916,0.213,-0.340
32.273,-0.920,0.211,-0.340
32.283,-0.916,0.213,-0.342
32.293,-0.924,0.209,-0.344
32.302,-0.928,0.211,-0.346
32.312,-0.930,0.217,-0.348
32.322,-0.934,0.219,-0.350
32.332,-0.939,0.215,-0.350
32.342,-0.936,0.217,-0.348
32.352,-0.936,0.211,-0.350
32.362,-0.939,0.207,-0.348
32.372,-0.939,0.209,-0.346
32.382,-0.943,0.209,-0.348
32.392,-0.939,0.213,-0.350
32.402,-0.939,0.211,-0.346
32.412,-0.939,0.209,-0.346
32.421,-0.943,0.209,-0.342
32.431,-0.934,0.213,-0.346
32.441,-0.934,0.211,-0.340
32.451,-0.930,0.205,-0.338
32.461,-0.920,0.201,-0.338
32.471,-0.922,0.201,-0.338
32.481,-0.922,0.201,-0.334
32.491,-0.922,0.209,-0.336
32.501,-0.918,0.209,-0.336
32.511,-0.922,0.209,-0.336
32.521,-0.926,0.213,-0.336
32.531,-0.930,0.215,-0.340
32.540,-0.928,0.217,-0.342
32.550,-0.934,0.211,-0.342
32.560,-0.936,0.209,-0.340
32.570,-0.934,0.205,-0.340
32.580,-0.939,0.207,-0.342
32.590,-0.938,0.207,-0.344
32.600,-0.938,0.209,-0.344
32.610,-0.939,0.211,-0.344
32.620,-0.938,0.207,-0.344
32.630,-0.938,0.205,-0.344
32.640,-0.938,0.207,-0.346
32.650,-0.939,0.207,-0.344
32.659,-0.938,0.209,-0.344
32.669,-0.938,0.209,-0.344
32.679,-0.932,0.207,-0.344
32.689,-0.932,0.207,-0.344
32.699,-0.932,0.207,-0.344
32.709,-0.930,0.205,-0.346
32.719,-0.928,0.213,-0.342
32.729,-0.928,0.211,-0.340
32.739,-0.924,0.209,-0.340
32.749,-0.926,0.207,-0.340
32.759,-0.928,0.207,-0.340
32.769,-0.928,0.203,-0.344
32.778,-0.928,0.203,-0.344
32.788,-0.932,0.207,-0.344
32.798,-0.936,0.209,-0.348
32.808,-0.934,0.211,-0.346
32.818,-0.934,0.211,-0.350
32.828,-0.936,0.211,-0.352
32.838,-0.938,0.213,-0.350
32.848,-0.934,0.211,-0.350
32.858,-0.934,0.209,-0.348
32.868,-0.932,0.207,-0.348
32.878,-0.932,0.205,-0.346
32.888,-0.930,0.203,-0.352
32.897,-0.928,0.205,-0.348
32.907,-0.926,0.205,-0.346
32.917,-0.928,0.213,-0.346
32.927,-0.924,0.209,-0.348
32.937,-0.924,0.207,-0.346
32.947,-0.928,0.211,-0.350
32.957,-0.930,0.209,-0.350
32.967,-0.932,0.213,-0.348
32.977,-0.934,0.215,-0.346
32.987,-0.936,0.213,-0.346
32.997,-0.930,0.213,-0.346
33.007,-0.932,0.209,-0.344
33.016,-0.930,0.205,-0.344
33.026,-0.930,0.203,-0.346
33.036,-0.932,0.203,-0.344
33.046,-0.932,0.205,-0.344
33.056,-0.932,0.203,-0.344
33.066,-0.934,0.203,-0.342
33.076,-0.936,0.205,-0.344
33.086,-0.936,0.207,-0.342
33.096,-0.936,0.205,-0.342
33.106,-0.936,0.209,-0.344
33.116,-0.936,0.207,-0.342
33.126,-0.932,0.207,-0.344
33.135,-0.932,0.209,-0.344
33.145,-0.932,0.213,-0.344
33.155,-0.928,0.211,-0.344
33.165,-0.930,0.209,-0.340
33.175,-0.926,0.211,-0.344
33.185,-0.928,0.213,-0.344
33.195,-0.928,0.205,-0.344
33.205,-0.926,0.201,-0.342
33.215,-0.930,0.201,-0.344
33.225,-0.930,0.201,-0.344
33.235,-0.932,0.211,-0.344
33.245,-0.936,0.213,-0.344
33.254,-0.938,0.209,-0.346
33.264,-0.941,0.213,-0.346
33.274,-0.938,0.211,-0.348
33.284,-0.938,0.207,-0.346
33.294,-0.936,0.207,-0.344
33.304,-0.934,0.207,-0.348
33.314,-0.934,0.207,-0.344
33.324,-0.936,0.207,-0.344
33.334,-0.932,0.207,-0.348
33.344,-0.936,0.207,-0.346
33.354,-0.930,0.209,-0.346
33.364,-0.932,0.207,-0.344
33.374,-0.930,0.209,-0.346
33.383,-0.932,0.211,-0.344
33.393,-0.932,0.209,-0.346
33.403,-0.932,0.209,-0.348
33.413,-0.934,0.211,-0.346
33.423,-0.930,0.207,-0.342
33.433,-0.926,0.209,-0.344
33.443,-0.924,0.211,-0.346
33.453,-0.924,0.207,-0.344
33.463,-0.928,0.205,-0.348
33.473,-0.930,0.209,-0.350
33.483,-0.928,0.207,-0.348
33.493,-0.932,0.205,-0.350
33.502,-0.934,0.209,-0.346
33.512,-0.934,0.205,-0.348
33.522,-0.934,0.199,-0.348
33.532,-0.936,0.199,-0.348
33.542,-0.938,0.203,-0.348
33.552,-0.941,0.205,-0.348
33.562,-0.939,0.207,-0.348
33.572,-0.938,0.211,-0.348
33.582,-0.936,0.207,-0.350
33.592,-0.936,0.207,-0.350
33.602,-0.932,0.205,-0.346
33.612,-0.928,0.205,-0.350
33.621,-0.928,0.205,-0.344
33.631,-0.928,0.207,-0.346
33.641,-0.926,0.205,-0.346
33.651,-0.924,0.205,-0.344
33.661,-0.924,0.207,-0.348
33.671,-0.924,0.209,-0.346
33.681,-0.926,0.205,-0.346
33.691,-0.932,0.201,-0.346
33.701,-0.941,0.203,-0.346
33.711,-0.941,0.209,-0.348
33.721,-0.941,0.213,-0.350
33.731,-0.938,0.211,-0.348
33.740,-0.938,0.213,-0.348
33.750,-0.934,0.207,-0.346
33.760,-0.930,0.205,-0.346
33.770,-0.930,0.201,-0.348
33.780,-0.930,0.199,-0.342
33.790,-0.928,0.201,-0.346
33.800,-0.932,0.199,-0.352
33.810,-0.934,0.207,-0.346
33.820,-0.934,0.207,-0.346
33.830,-0.934,0.205,-0.348
33.840,-0.930,0.207,-0.346
33.850,-0.932,0.207,-0.350
33.859,-0.934,0.209,-0.346
33.869,-0.932,0.209,-0.346
33.879,-0.928,0.203,-0.348
33.889,-0.930,0.203,-0.346
33.899,-0.932,0.205,-0.346
33.909,-0.928,0.207,-0.346
33.919,-0.930,0.207,-0.344
33.929,-0.930,0.205,-0.344
33.939,-0.930,0.199,-0.344
33.949,-0.928,0.203,-0.346
33.959,-0.926,0.197,-0.346
33.969,-0.930,0.199,-0.346
33.978,-0.936,0.203,-0.346
33.988,-0.939,0.211,-0.348
33.998,-0.939,0.213,-0.346
34.008,-0.938,0.211,-0.348
34.018,-0.938,0.209,-0.344
34.028,-0.936,0.203,-0.346
34.038,-0.936,0.203,-0.346
34.048,-0.930,0.201,-0.344
34.058,-0.930,0.201,-0.346
34.068,-0.930,0.203,-0.348
34.078,-0.932,0.205,-0.346
34.088,-0.932,0.209,-0.344
34.097,-0.936,0.205,-0.348
34.107,-0.934,0.205,-0.344
34.117,-0.932,0.203,-0.346
34.127,-0.930,0.203,-0.344
34.137,-0.928,0.203,-0.348
34.147,-0.932,0.207,-0.346
34.157,-0.930,0.207,-0.346
34.167,-0.934,0.207,-0.346
34.177,-0.934,0.207,-0.346
34.187,-0.934,0.205,-0.348
34.197,-0.936,0.203,-0.344
34.207,-0.936,0.201,-0.350
34.216,-0.938,0.201,-0.348
34.226,-0.938,0.203,-0.350
34.236,-0.938,0.207,-0.348
34.246,-0.938,0.207,-0.350
34.256,-0.941,0.207,-0.352
34.266,-0.936,0.207,-0.348
34.276,-0.936,0.205,-0.350
34.286,-0.932,0.199,-0.346
34.296,-0.928,0.201,-0.344
34.306,-0.922,0.201,-0.348
34.316,-0.924,0.197,-0.346
34.326,-0.924,0.203,-0.344
34.335,-0.926,0.209,-0.346
34.345,-0.932,0.209,-0.346
34.355,-0.936,0.211,-0.350
34.365,-0.943,0.215,-0.350
34.375,-0.943,0.217,-0.344
34.385,-0.939,0.215,-0.346
34.395,-0.934,0.211,-0.344
34.405,-0.932,0.203,-0.348
34.415,-0.932,0.205,-0.348
34.425,-0.930,0.209,-0.346
34.435,-0.938,0.207,-0.346
34.445,-0.939,0.211,-0.350
34.454,-0.945,0.211,-0.352
34.464,-0.947,0.209,-0.346
34.474,-0.949,0.207,-0.352
34.484,-0.951,0.207,-0.352
34.494,-0.957,0.215,-0.357
34.504,-0.959,0.223,-0.355
34.514,-0.959,0.225,-0.357
34.524,-0.957,0.219,-0.354
34.534,-0.959,0.219,-0.359
34.544,-0.965,0.217,-0.361
34.554,-0.967,0.225,-0.361
34.564,-0.963,0.227,-0.361
34.573,-0.959,0.230,-0.355
34.583,-0.957,0.238,-0.357
34.593,-0.959,0.242,-0.354
34.603,-0.959,0.234,-0.352
34.613,-0.953,0.234,-0.350
34.623,-0.941,0.234,-0.346
34.633,-0.936,0.236,-0.344
34.643,-0.938,0.232,-0.344
34.653,-0.943,0.246,-0.340
34.663,-0.949,0.254,-0.336
34.673,-0.947,0.262,-0.342
34.683,-0.953,0.266,-0.340
34.692,-0.959,0.270,-0.338
34.702,-0.955,0.271,-0.334
34.712,-0.951,0.271,-0.330
34.722,-0.949,0.275,-0.330
34.732,-0.945,0.283,-0.328
34.742,-0.941,0.289,-0.328
34.752,-0.934,0.301,-0.326
34.762,-0.928,0.305,-0.326
34.772,-0.922,0.305,-0.320
34.782,-0.914,0.305,-0.314
34.792,-0.914,0.309,-0.314
34.802,-0.916,0.316,-0.311
34.811,-0.912,0.324,-0.312
34.821,-0.908,0.320,-0.309
34.831,-0.904,0.332,-0.305
34.841,-0.895,0.338,-0.301
34.851,-0.895,0.342,-0.299
34.861,-0.893,0.346,-0.297
34.871,-0.900,0.359,-0.293
34.881,-0.893,0.371,-0.297
34.891,-0.900,0.375,-0.293
34.901,-0.889,0.381,-0.293
34.911,-0.881,0.385,-0.285
34.921,-0.869,0.383,-0.285
34.930,-0.863,0.383,-0.283
34.940,-0.857,0.393,-0.279
34.950,-0.865,0.402,-0.277
34.960,-0.861,0.416,-0.271
34.970,-0.855,0.412,-0.271
34.980,-0.857,0.410,-0.270
34.990,-0.854,0.420,-0.268
35.000,-0.859,0.430,-0.268
35.010,-0.857,0.439,-0.266
35.020,-0.855,0.445,-0.268
35.030,-0.857,0.445,-0.266
35.040,-0.861,0.447,-0.264
35.049,-0.861,0.449,-0.258
35.059,-0.861,0.457,-0.256
35.069,-0.857,0.463,-0.258
35.079,-0.855,0.465,-0.254
35.089,-0.846,0.471,-0.254
35.099,-0.842,0.471,-0.258
35.109,-0.832,0.473,-0.256
35.119,-0.832,0.473,-0.250
35.129,-0.828,0.480,-0.246
35.139,-0.830,0.496,-0.242
35.149,-0.824,0.500,-0.246
35.159,-0.824,0.506,-0.242
35.168,-0.822,0.504,-0.244
35.178,-0.830,0.516,-0.240
35.188,-0.811,0.510,-0.244
35.198,-0.809,0.514,-0.250
35.208,-0.811,0.520,-0.248
35.218,-0.803,0.520,-0.248
35.228,-0.805,0.523,-0.244
35.238,-0.807,0.525,-0.244
35.248,-0.801,0.531,-0.240
35.258,-0.799,0.537,-0.242
35.268,-0.793,0.537,-0.242
35.278,-0.791,0.541,-0.240
35.287,-0.789,0.543,-0.238
35.297,-0.789,0.543,-0.238
35.307,-0.791,0.555,-0.236
35.317,-0.793,0.555,-0.234
35.327,-0.791,0.559,-0.236
35.337,-0.791,0.555,-0.234
35.347,-0.789,0.557,-0.234
35.357,-0.783,0.559,-0.236
35.367,-0.783,0.561,-0.238
35.377,-0.779,0.564,-0.236
35.387,-0.777,0.568,-0.234
35.397,-0.777,0.576,-0.234
35.406,-0.779,0.572,-0.232
35.416,-0.777,0.574,-0.234
35.426,-0.781,0.578,-0.232
35.436,-0.781,0.588,-0.232
35.446,-0.779,0.586,-0.232
35.456,-0.775,0.588,-0.232
35.466,-0.773,0.590,-0.234
35.476,-0.766,0.594,-0.234
35.486,-0.760,0.600,-0.234
35.496,-0.750,0.600,-0.230
35.506,-0.750,0.598,-0.230
35.516,-0.750,0.604,-0.227
35.525,-0.746,0.605,-0.227
35.535,-0.746,0.607,-0.229
35.545,-0.746,0.604,-0.227
35.555,-0.748,0.602,-0.229
35.565,-0.750,0.604,-0.230
35.575,-0.750,0.605,-0.229
35.585,-0.752,0.605,-0.229
35.595,-0.752,0.609,-0.230
35.605,-0.752,0.607,-0.229
35.615,-0.752,0.613,-0.227
35.625,-0.750,0.609,-0.227
35.635,-0.748,0.605,-0.227
35.644,-0.746,0.604,-0.227
35.654,-0.742,0.607,-0.225
35.664,-0.742,0.607,-0.225
35.674,-0.742,0.613,-0.225
35.684,-0.738,0.615,-0.229
35.694,-0.738,0.621,-0.225
35.704,-0.742,0.611,-0.232
35.714,-0.742,0.609,-0.230
35.724,-0.744,0.613,-0.230
35.734,-0.744,0.619,-0.232
35.744,-0.748,0.619,-0.230
35.754,-0.752,0.621,-0.227
35.763,-0.756,0.619,-0.230
35.773,-0.758,0.619,-0.227
35.783,-0.760,0.613,-0.229
35.793,-0.758,0.615,-0.230
35.803,-0.762,0.615,-0.232
35.813,-0.762,0.607,-0.230
35.823,-0.762,0.607,-0.230
35.833,-0.764,0.604,-0.229
35.843,-0.760,0.604,-0.230
35.853,-0.760,0.605,-0.229
35.863,-0.760,0.607,-0.229
35.873,-0.762,0.607,-0.225
35.883,-0.758,0.607,-0.230
35.892,-0.758,0.607,-0.225
35.902,-0.758,0.609,-0.229
35.912,-0.762,0.611,-0.229
35.922,-0.760,0.609,-0.229
35.932,-0.762,0.605,-0.221
35.942,-0.760,0.605,-0.223
35.952,-0.762,0.602,-0.221
35.962,-0.764,0.598,-0.221
35.972,-0.771,0.592,-0.223
35.982,-0.781,0.594,-0.223
35.992,-0.779,0.596,-0.221
36.002,-0.777,0.598,-0.219
36.011,-0.785,0.594,-0.219
36.021,-0.789,0.588,-0.219
36.031,-0.783,0.590,-0.221
36.041,-0.783,0.586,-0.225
36.051,-0.779,0.590,-0.223
36.061,-0.775,0.590,-0.219
36.071,-0.773,0.588,-0.219
36.081,-0.773,0.588,-0.219
36.091,-0.779,0.592,-0.221
36.101,-0.775,0.594,-0.215
36.111,-0.781,0.598,-0.219
36.121,-0.781,0.594,-0.217
36.130,-0.779,0.592,-0.219
36.140,-0.783,0.586,-0.221
36.150,-0.787,0.590,-0.225
36.160,-0.787,0.590,-0.221
36.170,-0.787,0.590,-0.219
36.180,-0.791,0.584,-0.223
36.190,-0.783,0.584,-0.225
36.200,-0.785,0.584,-0.221
36.210,-0.783,0.584,-0.227
36.220,-0.779,0.584,-0.225
36.230,-0.777,0.584,-0.223
36.240,-0.781,0.586,-0.225
36.249,-0.783,0.586,-0.227
36.259,-0.785,0.590,-0.227
36.269,-0.781,0.590,-0.227
36.279,-0.781,0.590,-0.227
36.289,-0.781,0.588,-0.230
36.299,-0.783,0.586,-0.230
36.309,-0.781,0.586,-0.229
36.319,-0.783,0.586,-0.227
36.329,-0.785,0.582,-0.223
36.339,-0.787,0.580,-0.227
36.349,-0.785,0.574,-0.229
36.359,-0.783,0.580,-0.229
36.368,-0.783,0.584,-0.230
36.378,-0.783,0.582,-0.227
36.388,-0.789,0.580,-0.229
36.398,-0.791,0.576,-0.234
36.408,-0.797,0.584,-0.232
36.418,-0.793,0.586,-0.230
36.428,-0.791,0.586,-0.232
36.438,-0.789,0.580,-0.229
36.448,-0.787,0.580,-0.227
36.458,-0.785,0.578,-0.229
36.468,-0.787,0.576,-0.227
36.478,-0.787,0.576,-0.232
36.487,-0.789,0.572,-0.227
36.497,-0.791,0.572,-0.227
36.507,-0.797,0.574,-0.229
36.517,-0.797,0.576,-0.227
36.527,-0.799,0.576,-0.227
36.537,-0.799,0.576,-0.229
36.547,-0.795,0.574,-0.230
36.557,-0.793,0.574,-0.227
36.567,-0.793,0.572,-0.232
36.577,-0.789,0.570,-0.230
36.587,-0.793,0.574,-0.232
36.597,-0.791,0.568,-0.229
36.606,-0.791,0.574,-0.227
36.616,-0.787,0.582,-0.221
36.626,-0.791,0.578,-0.225
36.636,-0.789,0.572,-0.227
36.646,-0.791,0.568,-0.223
36.656,-0.789,0.566,-0.227
36.666,-0.791,0.566,-0.229
36.676,-0.793,0.570,-0.223
36.686,-0.797,0.574,-0.225
36.696,-0.799,0.578,-0.225
36.706,-0.795,0.580,-0.227
36.716,-0.799,0.578,-0.225
36.725,-0.791,0.574,-0.223
36.735,-0.795,0.572,-0.227
36.745,-0.795,0.570,-0.225
36.755,-0.795,0.572,-0.227
36.765,-0.795,0.574,-0.225
36.775,-0.797,0.574,-0.223
36.785,-0.803,0.574,-0.221
36.795,-0.801,0.570,-0.225
36.805,-0.805,0.570,-0.219
36.815,-0.801,0.564,-0.219
36.825,-0.803,0.564,-0.223
36.835,-0.803,0.561,-0.225
36.844,-0.797,0.561,-0.221
36.854,-0.795,0.566,-0.225
36.864,-0.793,0.566,-0.225
36.874,-0.793,0.568,-0.227
36.884,-0.791,0.572,-0.230
36.894,-0.791,0.572,-0.229
36.904,-0.789,0.574,-0.227
36.914,-0.791,0.574,-0.229
36.924,-0.793,0.576,-0.230
36.934,-0.797,0.572,-0.234
36.944,-0.797,0.574,-0.234
36.954,-0.795,0.574,-0.230
36.963,-0.797,0.576,-0.232
36.973,-0.799,0.574,-0.227
36.983,-0.799,0.572,-0.230
36.993,-0.797,0.568,-0.227
37.003,-0.799,0.570,-0.225
37.013,-0.793,0.566,-0.225
37.023,-0.791,0.566,-0.227
37.033,-0.787,0.564,-0.225
37.043,-0.789,0.564,-0.223
37.053,-0.789,0.570,-0.225
37.063,-0.787,0.568,-0.229
37.073,-0.789,0.564,-0.227
37.082,-0.795,0.564,-0.234
37.092,-0.799,0.566,-0.230
37.102,-0.799,0.576,-0.230
37.112,-0.803,0.580,-0.236
37.122,-0.801,0.580,-0.230
37.132,-0.797,0.576,-0.230
37.142,-0.799,0.568,-0.232
37.152,-0.797,0.570,-0.230
37.162,-0.793,0.572,-0.230
37.172,-0.793,0.568,-0.230
37.182,-0.793,0.570,-0.227
37.192,-0.793,0.572,-0.225
37.201,-0.789,0.568,-0.227
37.211,-0.793,0.570,-0.223
37.221,-0.795,0.568,-0.223
37.231,-0.795,0.572,-0.221
37.241,-0.797,0.562,-0.221
37.251,-0.797,0.564,-0.221
37.261,-0.799,0.561,-0.223
37.271,-0.797,0.564,-0.221
37.281,-0.801,0.562,-0.221
37.291,-0.799,0.561,-0.213
37.301,-0.799,0.559,-0.213
37.311,-0.799,0.564,-0.213
37.320,-0.797,0.566,-0.205
37.330,-0.791,0.559,-0.211
37.340,-0.793,0.555,-0.213
37.350,-0.799,0.551,-0.215
37.360,-0.801,0.551,-0.211
37.370,-0.807,0.549,-0.207
37.380,-0.807,0.549,-0.205
37.390,-0.816,0.551,-0.207
37.400,-0.812,0.551,-0.205
37.410,-0.820,0.543,-0.203
37.420,-0.820,0.539,-0.201
37.430,-0.824,0.535,-0.197
37.439,-0.822,0.523,-0.197
37.449,-0.826,0.521,-0.201
37.459,-0.830,0.518,-0.199
37.469,-0.830,0.521,-0.197
37.479,-0.828,0.521,-0.195
37.489,-0.826,0.520,-0.193
37.499,-0.824,0.514,-0.191
37.509,-0.820,0.510,-0.189
37.519,-0.818,0.520,-0.193
37.529,-0.818,0.516,-0.195
37.539,-0.822,0.516,-0.197
37.549,-0.830,0.514,-0.195
37.558,-0.834,0.520,-0.199
37.568,-0.838,0.521,-0.195
37.578,-0.846,0.523,-0.195
37.588,-0.846,0.514,-0.193
37.598,-0.855,0.508,-0.188
37.608,-0.859,0.506,-0.184
37.618,-0.859,0.504,-0.182
37.628,-0.863,0.498,-0.178
37.638,-0.857,0.498,-0.174
37.648,-0.861,0.500,-0.172
37.658,-0.881,0.492,-0.166
37.668,-0.895,0.490,-0.170
37.677,-0.902,0.480,-0.170
37.687,-0.912,0.467,-0.174
37.697,-0.918,0.461,-0.170
37.707,-0.930,0.461,-0.174
37.717,-0.930,0.463,-0.172
37.727,-0.932,0.463,-0.172
37.737,-0.930,0.455,-0.172
37.747,-0.926,0.455,-0.176
37.757,-0.920,0.451,-0.176
37.767,-0.912,0.445,-0.180
37.777,-0.904,0.443,-0.180
37.787,-0.895,0.447,-0.182
37.796,-0.893,0.451,-0.180
37.806,-0.887,0.447,-0.178
37.816,-0.889,0.449,-0.180
37.826,-0.889,0.455,-0.178
37.836,-0.887,0.449,-0.184
37.846,-0.893,0.447,-0.182
37.856,-0.896,0.447,-0.184
37.866,-0.902,0.449,-0.180
37.876,-0.910,0.455,-0.176
37.886,-0.906,0.451,-0.178
37.896,-0.906,0.453,-0.182
37.906,-0.900,0.447,-0.186
37.915,-0.898,0.445,-0.191
37.925,-0.896,0.441,-0.193
37.935,-0.898,0.434,-0.191
37.945,-0.910,0.434,-0.189
37.955,-0.916,0.441,-0.191
37.965,-0.914,0.449,-0.188
37.975,-0.908,0.459,-0.182
37.985,-0.902,0.467,-0.184
37.995,-0.900,0.467,-0.184
38.005,-0.896,0.471,-0.184
38.015,-0.891,0.471,-0.184
38.025,-0.881,0.471,-0.188
38.034,-0.873,0.473,-0.189
38.044,-0.869,0.469,-0.195
38.054,-0.867,0.465,-0.195
38.064,-0.871,0.469,-0.193
38.074,-0.875,0.473,-0.191
38.084,-0.877,0.479,-0.193
38.094,-0.871,0.477,-0.195
38.104,-0.873,0.477,-0.193
38.114,-0.883,0.477,-0.191
38.124,-0.889,0.471,-0.191
38.134,-0.887,0.477,-0.191
38.144,-0.883,0.477,-0.188
38.153,-0.881,0.480,-0.188
38.163,-0.873,0.484,-0.188
38.173,-0.863,0.490,-0.188
38.183,-0.854,0.496,-0.180
38.193,-0.855,0.500,-0.182
38.203,-0.855,0.498,-0.184
38.213,-0.859,0.492,-0.188
38.223,-0.861,0.490,-0.188
38.233,-0.857,0.490,-0.188
38.243,-0.852,0.490,-0.189
38.253,-0.846,0.496,-0.195
38.263,-0.844,0.502,-0.195
38.272,-0.836,0.512,-0.201
38.282,-0.834,0.508,-0.201
38.292,-0.830,0.500,-0.203
38.302,-0.826,0.502,-0.205
38.312,-0.836,0.504,-0.209
38.322,-0.844,0.512,-0.205
38.332,-0.842,0.512,-0.199
38.342,-0.842,0.518,-0.199
38.352,-0.846,0.518,-0.195
38.362,-0.850,0.523,-0.189
38.372,-0.852,0.523,-0.188
38.382,-0.850,0.516,-0.193
38.392,-0.844,0.506,-0.197
38.401,-0.842,0.500,-0.195
38.411,-0.834,0.508,-0.193
38.421,-0.824,0.512,-0.195
38.431,-0.826,0.512,-0.191
38.441,-0.820,0.510,-0.191
38.451,-0.824,0.512,-0.191
38.461,-0.828,0.510,-0.195
38.471,-0.830,0.502,-0.195
38.481,-0.830,0.508,-0.195
38.491,-0.832,0.512,-0.193
38.501,-0.832,0.516,-0.193
38.511,-0.834,0.514,-0.195
38.520,-0.842,0.510,-0.193
38.530,-0.852,0.504,-0.195
38.540,-0.855,0.504,-0.195
38.550,-0.861,0.506,-0.193
38.560,-0.861,0.502,-0.189
38.570,-0.861,0.504,-0.188
38.580,-0.867,0.506,-0.189
38.590,-0.877,0.508,-0.189
38.600,-0.889,0.500,-0.191
38.610,-0.902,0.494,-0.188
38.620,-0.906,0.498,-0.191
38.630,-0.902,0.498,-0.186
38.639,-0.900,0.502,-0.186
38.649,-0.895,0.502,-0.184
38.659,-0.891,0.498,-0.184
38.669,-0.879,0.498,-0.184
38.679,-0.873,0.494,-0.182
38.689,-0.859,0.490,-0.184
38.699,-0.854,0.490,-0.186
38.709,-0.852,0.492,-0.186
38.719,-0.850,0.498,-0.182
38.729,-0.852,0.500,-0.182
38.739,-0.854,0.504,-0.178
38.749,-0.855,0.500,-0.180
38.758,-0.852,0.502,-0.184
38.768,-0.854,0.504,-0.182
38.778,-0.848,0.494,-0.191
38.788,-0.848,0.496,-0.193
38.798,-0.846,0.506,-0.191
38.808,-0.844,0.512,-0.193
38.818,-0.834,0.510,-0.201
38.828,-0.836,0.520,-0.201
38.838,-0.814,0.529,-0.209
38.848,-0.807,0.539,-0.217
38.858,-0.793,0.537,-0.221
38.868,-0.795,0.541,-0.223
38.877,-0.816,0.555,-0.217
38.887,-0.820,0.547,-0.225
38.897,-0.828,0.543,-0.221
38.907,-0.834,0.553,-0.225
38.917,-0.834,0.553,-0.221
38.927,-0.830,0.547,-0.221
38.937,-0.830,0.547,-0.219
38.947,-0.832,0.539,-0.221
38.957,-0.822,0.533,-0.221
38.967,-0.812,0.529,-0.223
38.977,-0.807,0.531,-0.225
38.987,-0.805,0.535,-0.221
38.996,-0.803,0.535,-0.223
39.006,-0.799,0.533,-0.223
39.016,-0.795,0.537,-0.221
39.026,-0.791,0.543,-0.221
39.036,-0.791,0.549,-0.219
39.046,-0.789,0.549,-0.219
39.056,-0.783,0.543,-0.225
39.066,-0.779,0.539,-0.223
39.076,-0.779,0.539,-0.223
39.086,-0.781,0.537,-0.221
39.096,-0.779,0.531,-0.221
39.106,-0.783,0.523,-0.217
39.115,-0.789,0.514,-0.223
39.125,-0.797,0.508,-0.223
39.135,-0.799,0.518,-0.225
39.145,-0.805,0.510,-0.230
39.155,-0.809,0.516,-0.227
39.165,-0.812,0.520,-0.229
39.175,-0.811,0.520,-0.230
39.185,-0.812,0.525,-0.232
39.195,-0.811,0.527,-0.236
39.205,-0.818,0.520,-0.238
39.215,-0.824,0.523,-0.238
39.225,-0.830,0.525,-0.232
39.234,-0.834,0.520,-0.240
39.244,-0.838,0.520,-0.238
39.254,-0.846,0.516,-0.236
39.264,-0.844,0.510,-0.238
39.274,-0.840,0.496,-0.240
39.284,-0.848,0.494,-0.242
39.294,-0.854,0.504,-0.246
39.304,-0.854,0.498,-0.248
39.314,-0.855,0.494,-0.246
39.324,-0.846,0.484,-0.250
39.334,-0.848,0.471,-0.248
39.344,-0.855,0.471,-0.252
39.353,-0.867,0.480,-0.244
39.363,-0.865,0.473,-0.248
39.373,-0.867,0.465,-0.244
39.383,-0.871,0.443,-0.242
39.393,-0.881,0.439,-0.246
39.403,-0.887,0.447,-0.242
39.413,-0.875,0.455,-0.244
39.423,-0.861,0.457,-0.246
39.433,-0.852,0.451,-0.248
39.443,-0.852,0.447,-0.244
39.453,-0.852,0.443,-0.246
39.463,-0.855,0.430,-0.242
39.472,-0.863,0.434,-0.246
39.482,-0.871,0.426,-0.246
39.492,-0.881,0.404,-0.244
39.502,-0.902,0.402,-0.240
39.512,-0.918,0.418,-0.238
39.522,-0.932,0.428,-0.238
39.532,-0.938,0.428,-0.242
39.542,-0.939,0.418,-0.238
39.552,-0.936,0.408,-0.236
39.562,-0.928,0.402,-0.234
39.572,-0.920,0.395,-0.230
39.582,-0.912,0.393,-0.227
39.591,-0.902,0.379,-0.230
39.601,-0.893,0.375,-0.230
39.611,-0.881,0.357,-0.234
39.621,-0.881,0.342,-0.238
39.631,-0.896,0.371,-0.236
39.641,-0.908,0.393,-0.240
39.651,-0.916,0.402,-0.246
39.661,-0.922,0.402,-0.248
39.671,-0.916,0.395,-0.250
39.681,-0.912,0.375,-0.252
39.691,-0.916,0.367,-0.252
39.701,-0.918,0.357,-0.246
39.710,-0.930,0.340,-0.252
39.720,-0.949,0.352,-0.260
39.730,-0.969,0.375,-0.268
39.740,-0.982,0.387,-0.270
39.750,-0.982,0.389,-0.277
39.760,-0.980,0.381,-0.277
39.770,-0.973,0.373,-0.275
39.780,-0.971,0.365,-0.270
39.790,-0.967,0.363,-0.270
39.800,-0.961,0.375,-0.270
39.810,-0.959,0.387,-0.268
39.820,-0.955,0.383,-0.270
39.829,-0.955,0.377,-0.273
39.839,-0.949,0.365,-0.270
39.849,-0.943,0.361,-0.268
39.859,-0.939,0.363,-0.270
39.869,-0.938,0.363,-0.264
39.879,-0.939,0.371,-0.260
39.889,-0.945,0.391,-0.260
39.899,-0.951,0.393,-0.262
39.909,-0.953,0.385,-0.262
39.919,-0.953,0.381,-0.260
39.929,-0.947,0.385,-0.262
39.939,-0.939,0.389,-0.256
39.948,-0.928,0.389,-0.254
39.958,-0.918,0.395,-0.250
39.968,-0.912,0.400,-0.252
39.978,-0.916,0.395,-0.248
39.988,-0.924,0.387,-0.248
39.998,-0.926,0.395,-0.240
40.008,-0.926,0.402,-0.240
40.018,-0.916,0.402,-0.234
40.028,-0.916,0.410,-0.229
40.038,-0.912,0.416,-0.229
40.048,-0.906,0.418,-0.225
40.058,-0.896,0.414,-0.221
40.067,-0.893,0.412,-0.219
40.077,-0.889,0.416,-0.215
40.087,-0.881,0.424,-0.215
40.097,-0.879,0.443,-0.211
40.107,-0.885,0.449,-0.207
40.117,-0.883,0.447,-0.201
40.127,-0.881,0.455,-0.197
40.137,-0.881,0.463,-0.195
40.147,-0.883,0.473,-0.191
40.157,-0.877,0.479,-0.188
40.167,-0.879,0.480,-0.188
40.177,-0.865,0.480,-0.189
40.186,-0.871,0.490,-0.182
40.196,-0.869,0.482,-0.176
40.206,-0.869,0.482,-0.170
40.216,-0.861,0.484,-0.162
40.226,-0.857,0.498,-0.158
40.236,-0.850,0.510,-0.152
40.246,-0.838,0.512,-0.156
40.256,-0.830,0.502,-0.156
40.266,-0.830,0.500,-0.156
40.276,-0.828,0.504,-0.156
40.286,-0.830,0.518,-0.150
40.296,-0.826,0.523,-0.143
40.305,-0.822,0.533,-0.141
40.315,-0.816,0.537,-0.137
40.325,-0.809,0.523,-0.137
40.335,-0.807,0.520,-0.129
40.345,-0.805,0.539,-0.123
40.355,-0.805,0.566,-0.115
40.365,-0.816,0.578,-0.109
40.375,-0.826,0.582,-0.096
40.385,-0.840,0.586,-0.090
40.395,-0.838,0.582,-0.092
40.405,-0.836,0.578,-0.096
40.415,-0.828,0.576,-0.098
40.424,-0.818,0.582,-0.107
40.434,-0.809,0.586,-0.111
40.444,-0.812,0.588,-0.121
40.454,-0.816,0.582,-0.123
40.464,-0.818,0.564,-0.121
40.474,-0.812,0.568,-0.111
40.484,-0.807,0.576,-0.109
40.494,-0.805,0.586,-0.113
40.504,-0.811,0.588,-0.113
40.514,-0.812,0.582,-0.123
40.524,-0.793,0.582,-0.123
40.534,-0.779,0.590,-0.121
40.543,-0.771,0.598,-0.117
40.553,-0.781,0.604,-0.111
40.563,-0.789,0.609,-0.107
40.573,-0.799,0.607,-0.102
40.583,-0.793,0.613,-0.100
40.593,-0.791,0.605,-0.094
40.603,-0.787,0.602,-0.092
40.613,-0.777,0.604,-0.090
40.623,-0.779,0.602,-0.088
40.633,-0.777,0.604,-0.078
40.643,-0.775,0.611,-0.078
40.653,-0.779,0.611,-0.080
40.662,-0.781,0.613,-0.078
40.672,-0.783,0.609,-0.074
40.682,-0.785,0.605,-0.086
40.692,-0.793,0.607,-0.084
40.702,-0.795,0.613,-0.084
40.712,-0.795,0.611,-0.086
40.722,-0.797,0.617,-0.082
40.732,-0.797,0.615,-0.078
40.742,-0.797,0.609,-0.080
40.752,-0.791,0.605,-0.080
40.762,-0.785,0.602,-0.080
40.772,-0.783,0.598,-0.080
40.781,-0.779,0.604,-0.084
40.791,-0.781,0.602,-0.086
40.801,-0.785,0.605,-0.084
40.811,-0.789,0.613,-0.082
40.821,-0.785,0.617,-0.078
40.831,-0.781,0.623,-0.076
40.841,-0.781,0.621,-0.082
40.851,-0.777,0.621,-0.084
40.861,-0.777,0.615,-0.086
40.871,-0.781,0.607,-0.086
40.881,-0.785,0.615,-0.084
40.891,-0.789,0.619,-0.080
40.901,-0.793,0.619,-0.080
40.910,-0.795,0.617,-0.082
40.920,-0.795,0.613,-0.086
40.930,-0.793,0.613,-0.086
40.940,-0.795,0.615,-0.094
40.950,-0.799,0.613,-0.094
40.960,-0.803,0.609,-0.094
40.970,-0.801,0.607,-0.092
40.980,-0.801,0.615,-0.090
40.990,-0.795,0.617,-0.092
41.000,-0.801,0.621,-0.090
41.010,-0.805,0.621,-0.094
41.020,-0.803,0.613,-0.092
41.029,-0.805,0.611,-0.094
41.039,-0.799,0.613,-0.098
41.049,-0.801,0.611,-0.094
41.059,-0.803,0.609,-0.090
41.069,-0.803,0.611,-0.094
41.079,-0.801,0.607,-0.088
41.089,-0.805,0.602,-0.090
41.099,-0.803,0.607,-0.092
41.109,-0.805,0.609,-0.090
41.119,-0.807,0.602,-0.092
41.129,-0.807,0.604,-0.092
41.139,-0.809,0.604,-0.094
41.148,-0.807,0.609,-0.086
41.158,-0.809,0.611,-0.088
41.168,-0.811,0.611,-0.084
41.178,-0.809,0.605,-0.088
41.188,-0.812,0.604,-0.090
41.198,-0.809,0.604,-0.090
41.208,-0.803,0.602,-0.090
41.218,-0.801,0.600,-0.092
41.228,-0.801,0.600,-0.090
41.238,-0.803,0.604,-0.094
41.248,-0.803,0.605,-0.092
41.258,-0.811,0.607,-0.092
41.267,-0.811,0.607,-0.092
41.277,-0.812,0.605,-0.092
41.287,-0.811,0.605,-0.092
41.297,-0.814,0.605,-0.098
41.307,-0.807,0.600,-0.096
41.317,-0.812,0.604,-0.100
41.327,-0.812,0.602,-0.098
41.337,-0.807,0.600,-0.092
41.347,-0.801,0.602,-0.094
41.357,-0.801,0.607,-0.092
41.367,-0.799,0.604,-0.094
41.377,-0.799,0.602,-0.096
41.386,-0.803,0.602,-0.098
41.396,-0.805,0.604,-0.098
41.406,-0.807,0.605,-0.096
41.416,-0.807,0.607,-0.096
41.426,-0.809,0.605,-0.094
41.436,-0.807,0.604,-0.100
41.446,-0.809,0.602,-0.098
41.456,-0.803,0.604,-0.096
41.466,-0.807,0.604,-0.094
41.476,-0.805,0.602,-0.098
41.486,-0.803,0.600,-0.100
41.496,-0.805,0.596,-0.102
41.505,-0.809,0.602,-0.102
41.515,-0.809,0.604,-0.100
41.525,-0.812,0.605,-0.100
41.535,-0.812,0.609,-0.098
41.545,-0.811,0.609,-0.100
41.555,-0.807,0.611,-0.102
41.565,-0.807,0.607,-0.098
41.575,-0.803,0.604,-0.102
41.585,-0.801,0.605,-0.102
41.595,-0.803,0.605,-0.098
41.605,-0.803,0.607,-0.098
41.615,-0.809,0.609,-0.098
41.624,-0.805,0.607,-0.100
41.634,-0.803,0.602,-0.100
41.644,-0.799,0.600,-0.096
41.654,-0.799,0.602,-0.098
41.664,-0.801,0.607,-0.094
41.674,-0.805,0.607,-0.092
41.684,-0.807,0.604,-0.090
41.694,-0.807,0.598,-0.092
41.704,-0.809,0.594,-0.092
41.714,-0.805,0.594,-0.092
41.724,-0.803,0.596,-0.090
41.734,-0.803,0.592,-0.086
41.743,-0.799,0.598,-0.090
41.753,-0.801,0.605,-0.086
41.763,-0.807,0.611,-0.090
41.773,-0.809,0.607,-0.094
41.783,-0.816,0.605,-0.090
41.793,-0.820,0.607,-0.092
41.803,-0.818,0.613,-0.090
41.813,-0.814,0.613,-0.090
41.823,-0.811,0.609,-0.094
41.833,-0.805,0.604,-0.094
41.843,-0.801,0.600,-0.088
41.853,-0.801,0.596,-0.090
41.862,-0.803,0.598,-0.088
41.872,-0.803,0.604,-0.086
41.882,-0.807,0.605,-0.090
41.892,-0.809,0.604,-0.088
41.902,-0.807,0.605,-0.090
41.912,-0.807,0.602,-0.088
41.922,-0.797,0.600,-0.090
41.932,-0.799,0.598,-0.094
41.942,-0.799,0.600,-0.092
41.952,-0.801,0.602,-0.086
41.962,-0.801,0.602,-0.088
41.972,-0.801,0.605,-0.092
41.981,-0.803,0.600,-0.084
41.991,-0.805,0.605,-0.090
42.001,-0.803,0.607,-0.090
42.011,-0.811,0.602,-0.094
42.021,-0.809,0.598,-0.096
42.031,-0.809,0.594,-0.096
42.041,-0.812,0.598,-0.094
42.051,-0.814,0.602,-0.092
42.061,-0.816,0.607,-0.090
42.071,-0.820,0.611,-0.088
42.081,-0.816,0.605,-0.090
42.091,-0.816,0.602,-0.092
42.100,-0.812,0.594,-0.092
42.110,-0.807,0.594,-0.088
42.120,-0.805,0.594,-0.092
42.130,-0.805,0.594,-0.092
42.140,-0.809,0.602,-0.092
42.150,-0.814,0.602,-0.094
42.160,-0.814,0.600,-0.092
42.170,-0.814,0.594,-0.094
42.180,-0.816,0.598,-0.094
42.190,-0.811,0.600,-0.098
42.200,-0.812,0.598,-0.094
42.210,-0.814,0.604,-0.094
42.219,-0.812,0.602,-0.092
42.229,-0.811,0.598,-0.088
42.239,-0.811,0.600,-0.088
42.249,-0.809,0.598,-0.088
42.259,-0.814,0.600,-0.086
42.269,-0.812,0.598,-0.088
42.279,-0.809,0.600,-0.086
42.289,-0.812,0.598,-0.086
42.299,-0.809,0.596,-0.086
42.309,-0.807,0.598,-0.088
42.319,-0.811,0.594,-0.088
42.329,-0.816,0.598,-0.086
42.338,-0.814,0.594,-0.086
42.348,-0.816,0.596,-0.088
42.358,-0.814,0.596,-0.086
42.368,-0.812,0.596,-0.088
42.378,-0.816,0.604,-0.084
42.388,-0.811,0.600,-0.086
42.398,-0.814,0.596,-0.092
42.408,-0.816,0.598,-0.088
42.418,-0.816,0.605,-0.086
42.428,-0.820,0.607,-0.078
42.438,-0.822,0.607,-0.078
42.448,-0.822,0.604,-0.076
42.457,-0.824,0.596,-0.080
42.467,-0.818,0.586,-0.082
42.477,-0.814,0.586,-0.082
42.487,-0.812,0.584,-0.078
42.497,-0.812,0.588,-0.080
42.507,-0.816,0.590,-0.080
42.517,-0.816,0.592,-0.082
42.527,-0.820,0.590,-0.084
42.537,-0.818,0.590,-0.078
42.547,-0.818,0.592,-0.084
42.557,-0.820,0.592,-0.082
42.567,-0.814,0.590,-0.080
42.576,-0.818,0.590,-0.084
42.586,-0.822,0.592,-0.082
42.596,-0.818,0.588,-0.080
42.606,-0.820,0.590,-0.080
42.616,-0.816,0.596,-0.084
42.626,-0.820,0.588,-0.086
42.636,-0.812,0.588,-0.084
42.646,-0.811,0.580,-0.092
42.656,-0.809,0.582,-0.090
42.666,-0.811,0.588,-0.094
42.676,-0.816,0.598,-0.092
42.686,-0.816,0.609,-0.090
42.695,-0.820,0.617,-0.086
42.705,-0.811,0.611,-0.086
42.715,-0.809,0.607,-0.084
42.725,-0.801,0.600,-0.084
42.735,-0.795,0.594,-0.078
42.745,-0.795,0.592,-0.080
42.755,-0.793,0.590,-0.078
42.765,-0.801,0.596,-0.080
42.775,-0.803,0.596,-0.078
42.785,-0.807,0.602,-0.078
42.795,-0.807,0.598,-0.084
42.805,-0.811,0.594,-0.086
42.814,-0.811,0.596,-0.092
42.824,-0.811,0.596,-0.094
42.834,-0.811,0.598,-0.098
42.844,-0.811,0.604,-0.096
42.854,-0.811,0.611,-0.094
42.864,-0.811,0.611,-0.094
42.874,-0.807,0.611,-0.096
42.884,-0.809,0.611,-0.100
42.894,-0.803,0.605,-0.098
42.904,-0.799,0.600,-0.098
42.914,-0.795,0.604,-0.096
42.924,-0.801,0.602,-0.100
42.933,-0.807,0.604,-0.098
42.943,-0.811,0.609,-0.096
42.953,-0.811,0.605,-0.094
42.963,-0.811,0.604,-0.094
42.973,-0.809,0.604,-0.092
42.983,-0.805,0.600,-0.094
42.993,-0.803,0.600,-0.098
43.003,-0.803,0.598,-0.096
43.013,-0.809,0.598,-0.098
43.023,-0.805,0.598,-0.096
43.033,-0.801,0.596,-0.092
43.043,-0.803,0.600,-0.092
43.052,-0.803,0.604,-0.090
43.062,-0.803,0.598,-0.098
43.072,-0.812,0.594,-0.096
43.082,-0.811,0.592,-0.098
43.092,-0.812,0.596,-0.098
43.102,-0.812,0.604,-0.096
43.112,-0.814,0.604,-0.098
43.122,-0.816,0.607,-0.092
43.132,-0.814,0.602,-0.092
43.142,-0.816,0.596,-0.094
43.152,-0.816,0.594,-0.094
43.162,-0.812,0.594,-0.092
43.171,-0.814,0.594,-0.092
43.181,-0.812,0.594,-0.092
43.191,-0.816,0.594,-0.092
43.201,-0.818,0.596,-0.086
43.211,-0.818,0.600,-0.088
43.221,-0.822,0.598,-0.092
43.231,-0.822,0.594,-0.090
43.241,-0.822,0.592,-0.092
43.251,-0.820,0.590,-0.090
43.261,-0.820,0.590,-0.088
43.271,-0.820,0.594,-0.086
43.281,-0.812,0.588,-0.084
43.291,-0.814,0.596,-0.088
43.300,-0.812,0.598,-0.088
43.310,-0.811,0.594,-0.090
43.320,-0.805,0.586,-0.096
43.330,-0.809,0.584,-0.094
43.340,-0.809,0.588,-0.094
43.350,-0.807,0.594,-0.096
43.360,-0.805,0.600,-0.098
43.370,-0.805,0.604,-0.092
43.380,-0.805,0.605,-0.094
43.390,-0.805,0.605,-0.092
43.400,-0.807,0.605,-0.092
43.410,-0.805,0.605,-0.092
43.419,-0.809,0.609,-0.094
43.429,-0.811,0.605,-0.098
43.439,-0.809,0.605,-0.100
43.449,-0.809,0.604,-0.100
43.459,-0.811,0.600,-0.098
43.469,-0.809,0.602,-0.100
43.479,-0.807,0.602,-0.094
43.489,-0.807,0.604,-0.094
43.499,-0.799,0.604,-0.094
43.509,-0.801,0.602,-0.098
43.519,-0.801,0.604,-0.094
43.529,-0.801,0.605,-0.094
43.538,-0.803,0.604,-0.088
43.548,-0.799,0.602,-0.084
43.558,-0.799,0.602,-0.082
43.568,-0.797,0.596,-0.076
43.578,-0.799,0.596,-0.074
43.588,-0.803,0.590,-0.074
43.598,-0.799,0.588,-0.080
43.608,-0.801,0.588,-0.078
43.618,-0.797,0.588,-0.074
43.628,-0.795,0.590,-0.072
43.638,-0.797,0.594,-0.070
43.648,-0.789,0.598,-0.068
43.657,-0.791,0.600,-0.070
43.667,-0.797,0.592,-0.072
43.677,-0.797,0.586,-0.080
43.687,-0.797,0.588,-0.080
43.697,-0.803,0.590,-0.080
43.707,-0.803,0.592,-0.082
43.717,-0.807,0.594,-0.082
43.727,-0.807,0.596,-0.086
43.737,-0.807,0.592,-0.090
43.747,-0.801,0.582,-0.100
43.757,-0.793,0.582,-0.102
43.767,-0.789,0.580,-0.104
43.776,-0.785,0.586,-0.109
43.786,-0.781,0.588,-0.115
43.796,-0.783,0.604,-0.115
43.806,-0.785,0.609,-0.115
43.816,-0.789,0.607,-0.121
43.826,-0.789,0.602,-0.123
43.836,-0.793,0.605,-0.127
43.846,-0.803,0.602,-0.129
43.856,-0.807,0.604,-0.131
43.866,-0.809,0.598,-0.137
43.876,-0.803,0.592,-0.137
43.886,-0.795,0.584,-0.135
43.895,-0.791,0.576,-0.135
43.905,-0.797,0.572,-0.143
43.915,-0.801,0.568,-0.148
43.925,-0.807,0.574,-0.150
43.935,-0.807,0.580,-0.156
43.945,-0.812,0.578,-0.158
43.955,-0.818,0.578,-0.156
43.965,-0.824,0.576,-0.162
43.975,-0.826,0.566,-0.160
43.985,-0.814,0.557,-0.160
43.995,-0.799,0.559,-0.164
44.005,-0.787,0.566,-0.162
44.014,-0.785,0.574,-0.166
44.024,-0.783,0.582,-0.166
44.034,-0.779,0.578,-0.164
44.044,-0.777,0.572,-0.164
44.054,-0.777,0.572,-0.168
44.064,-0.783,0.564,-0.170
44.074,-0.791,0.561,-0.182
44.084,-0.803,0.561,-0.184
44.094,-0.818,0.562,-0.178
44.104,-0.820,0.564,-0.182
44.114,-0.822,0.555,-0.189
44.124,-0.820,0.549,-0.189
44.133,-0.822,0.547,-0.195
44.143,-0.830,0.545,-0.197
44.153,-0.836,0.549,-0.199
44.163,-0.842,0.541,-0.195
44.173,-0.848,0.543,-0.199
44.183,-0.855,0.535,-0.203
44.193,-0.867,0.531,-0.203
44.203,-0.869,0.525,-0.213
44.213,-0.869,0.516,-0.209
44.223,-0.861,0.502,-0.215
44.233,-0.861,0.500,-0.221
44.243,-0.859,0.496,-0.219
44.252,-0.859,0.496,-0.223
44.262,-0.861,0.484,-0.219
44.272,-0.857,0.477,-0.221
44.282,-0.855,0.473,-0.223
44.292,-0.857,0.467,-0.227
44.302,-0.869,0.463,-0.232
44.312,-0.873,0.463,-0.240
44.322,-0.877,0.457,-0.240
44.332,-0.879,0.457,-0.246
44.342,-0.869,0.459,-0.250
44.352,-0.863,0.461,-0.254
44.362,-0.854,0.469,-0.250
44.371,-0.840,0.473,-0.244
44.381,-0.836,0.467,-0.242
44.391,-0.826,0.467,-0.246
44.401,-0.822,0.463,-0.248
44.411,-0.820,0.469,-0.250
44.421,-0.818,0.465,-0.252
44.431,-0.822,0.451,-0.256
44.441,-0.824,0.441,-0.260
44.451,-0.832,0.447,-0.264
44.461,-0.836,0.443,-0.262
44.471,-0.836,0.443,-0.268
44.481,-0.840,0.445,-0.271
44.490,-0.852,0.443,-0.275
44.500,-0.865,0.439,-0.277
44.510,-0.873,0.439,-0.285
44.520,-0.873,0.447,-0.289
44.530,-0.873,0.447,-0.289
44.540,-0.859,0.449,-0.297
44.550,-0.855,0.451,-0.301
44.560,-0.855,0.441,-0.322
44.570,-0.871,0.443,-0.348
44.580,-0.895,0.447,-0.365
44.590,-0.910,0.439,-0.375
44.600,-0.910,0.432,-0.385
44.609,-0.926,0.426,-0.385
44.619,-0.945,0.430,-0.385
44.629,-0.963,0.432,-0.379
44.639,-0.977,0.428,-0.373
44.649,-0.982,0.430,-0.365
44.659,-0.984,0.426,-0.361
44.669,-0.969,0.418,-0.363
44.679,-0.959,0.414,-0.361
44.689,-0.939,0.398,-0.355
44.699,-0.924,0.395,-0.348
44.709,-0.906,0.395,-0.340
44.719,-0.891,0.400,-0.328
44.728,-0.877,0.400,-0.318
44.738,-0.867,0.402,-0.307
44.748,-0.857,0.402,-0.305
44.758,-0.846,0.404,-0.297
44.768,-0.830,0.396,-0.295
44.778,-0.828,0.395,-0.289
44.788,-0.822,0.400,-0.283
44.798,-0.830,0.406,-0.279
44.808,-0.832,0.410,-0.277
44.818,-0.836,0.412,-0.275
44.828,-0.838,0.412,-0.264
44.838,-0.842,0.412,-0.262
44.847,-0.850,0.412,-0.260
44.857,-0.854,0.416,-0.260
44.867,-0.859,0.420,-0.262
44.877,-0.855,0.424,-0.266
44.887,-0.859,0.424,-0.264
44.897,-0.861,0.426,-0.268
44.907,-0.867,0.418,-0.270
44.917,-0.869,0.426,-0.271
44.927,-0.867,0.430,-0.270
44.937,-0.867,0.436,-0.271
44.947,-0.871,0.430,-0.270
44.957,-0.871,0.428,-0.270
44.966,-0.877,0.410,-0.273
44.976,-0.891,0.402,-0.270
44.986,-0.900,0.416,-0.273
44.996,-0.902,0.436,-0.273
45.006,-0.896,0.445,-0.271
45.016,-0.898,0.438,-0.275
45.026,-0.891,0.426,-0.271
45.036,-0.879,0.422,-0.271
45.046,-0.869,0.426,-0.266
45.056,-0.854,0.422,-0.266
45.066,-0.838,0.418,-0.266
45.076,-0.836,0.410,-0.266
45.085,-0.834,0.416,-0.264
45.095,-0.836,0.412,-0.266
45.105,-0.844,0.408,-0.270
45.115,-0.852,0.393,-0.275
45.125,-0.865,0.375,-0.285
45.135,-0.887,0.365,-0.287
45.145,-0.910,0.375,-0.287
45.155,-0.920,0.381,-0.283
45.165,-0.932,0.400,-0.281
45.175,-0.936,0.406,-0.271
45.185,-0.939,0.414,-0.268
45.195,-0.938,0.420,-0.270
45.204,-0.932,0.422,-0.271
45.214,-0.918,0.428,-0.271
45.224,-0.898,0.436,-0.268
45.234,-0.887,0.436,-0.270
45.244,-0.881,0.426,-0.271
45.254,-0.865,0.418,-0.277
45.264,-0.859,0.408,-0.279
45.274,-0.857,0.393,-0.281
45.284,-0.854,0.389,-0.279
45.294,-0.861,0.393,-0.279
45.304,-0.873,0.396,-0.275
45.314,-0.873,0.400,-0.273
45.323,-0.881,0.396,-0.273
45.333,-0.887,0.398,-0.271
45.343,-0.885,0.395,-0.271
45.353,-0.891,0.404,-0.266
45.363,-0.896,0.406,-0.268
45.373,-0.889,0.412,-0.268
45.383,-0.885,0.422,-0.270
45.393,-0.875,0.422,-0.270
45.403,-0.869,0.422,-0.273
45.413,-0.869,0.418,-0.277
45.423,-0.871,0.408,-0.277
45.433,-0.873,0.404,-0.279
45.442,-0.883,0.410,-0.281
45.452,-0.891,0.410,-0.283
45.462,-0.895,0.410,-0.281
45.472,-0.904,0.406,-0.281
45.482,-0.898,0.412,-0.279
45.492,-0.898,0.414,-0.275
45.502,-0.895,0.408,-0.275
45.512,-0.889,0.406,-0.273
45.522,-0.887,0.404,-0.270
45.532,-0.883,0.408,-0.268
45.542,-0.875,0.408,-0.266
45.552,-0.873,0.410,-0.266
45.561,-0.867,0.410,-0.270
45.571,-0.861,0.416,-0.271
45.581,-0.859,0.416,-0.268
45.591,-0.859,0.414,-0.273
45.601,-0.855,0.408,-0.275
45.611,-0.865,0.402,-0.275
45.621,-0.873,0.406,-0.283
45.631,-0.879,0.410,-0.281
45.641,-0.885,0.416,-0.285
45.651,-0.883,0.418,-0.281
45.661,-0.889,0.418,-0.279
45.671,-0.889,0.416,-0.279
45.680,-0.885,0.412,-0.279
45.690,-0.883,0.412,-0.279
45.700,-0.879,0.410,-0.283
45.710,-0.877,0.410,-0.281
45.720,-0.873,0.406,-0.277
45.730,-0.873,0.408,-0.277
45.740,-0.873,0.408,-0.273
45.750,-0.875,0.402,-0.279
45.760,-0.881,0.402,-0.279
45.770,-0.887,0.404,-0.281
45.780,-0.885,0.410,-0.281
45.790,-0.889,0.418,-0.279
45.800,-0.887,0.414,-0.275
45.809,-0.887,0.418,-0.275
45.819,-0.885,0.414,-0.275
45.829,-0.885,0.408,-0.273
45.839,-0.881,0.404,-0.277
45.849,-0.877,0.404,-0.275
45.859,-0.877,0.408,-0.277
45.869,-0.875,0.404,-0.281
45.879,-0.875,0.402,-0.275
45.889,-0.879,0.402,-0.271
45.899,-0.879,0.406,-0.277
45.909,-0.879,0.408,-0.279
45.919,-0.883,0.408,-0.281
45.928,-0.885,0.406,-0.283
45.938,-0.889,0.404,-0.285
45.948,-0.891,0.406,-0.281
45.958,-0.889,0.408,-0.281
45.968,-0.889,0.408,-0.281
45.978,-0.887,0.410,-0.277
45.988,-0.883,0.414,-0.279
45.998,-0.887,0.420,-0.277
46.008,-0.883,0.416,-0.277
46.018,-0.879,0.414,-0.281
46.028,-0.873,0.412,-0.279
46.038,-0.875,0.420,-0.281
46.047,-0.873,0.418,-0.275
46.057,-0.873,0.418,-0.281
46.067,-0.873,0.416,-0.277
46.077,-0.875,0.416,-0.281
46.087,-0.871,0.412,-0.277
46.097,-0.871,0.416,-0.279
46.107,-0.871,0.408,-0.277
46.117,-0.875,0.410,-0.279
46.127,-0.879,0.412,-0.275
46.137,-0.881,0.412,-0.277
46.147,-0.883,0.408,-0.277
46.157,-0.883,0.408,-0.277
46.166,-0.879,0.410,-0.277
46.176,-0.881,0.410,-0.275
46.186,-0.881,0.410,-0.277
46.196,-0.881,0.410,-0.275
46.206,-0.883,0.410,-0.273
46.216,-0.887,0.410,-0.277
46.226,-0.883,0.408,-0.275
46.236,-0.883,0.410,-0.277
46.246,-0.883,0.410,-0.277
46.256,-0.881,0.410,-0.277
46.266,-0.881,0.412,-0.273
46.276,-0.879,0.408,-0.279
46.285,-0.881,0.410,-0.277
46.295,-0.879,0.410,-0.277
46.305,-0.877,0.408,-0.277
46.315,-0.875,0.410,-0.277
46.325,-0.877,0.410,-0.273
46.335,-0.875,0.406,-0.271
46.345,-0.871,0.402,-0.275
46.355,-0.871,0.404,-0.277
46.365,-0.873,0.410,-0.277
46.375,-0.877,0.408,-0.277
46.385,-0.875,0.410,-0.279
46.395,-0.881,0.410,-0.283
46.404,-0.889,0.408,-0.281
46.414,-0.893,0.410,-0.281
46.424,-0.891,0.408,-0.281
46.434,-0.891,0.406,-0.281
46.444,-0.891,0.408,-0.281
46.454,-0.885,0.404,-0.279
46.464,-0.881,0.402,-0.283
46.474,-0.887,0.398,-0.281
46.484,-0.881,0.400,-0.283
46.494,-0.883,0.406,-0.281
46.504,-0.879,0.408,-0.285
46.514,-0.879,0.412,-0.279
46.523,-0.879,0.408,-0.281
46.533,-0.877,0.404,-0.275
46.543,-0.873,0.406,-0.277
46.553,-0.875,0.406,-0.279
46.563,-0.875,0.410,-0.279
46.573,-0.875,0.410,-0.283
46.583,-0.879,0.408,-0.277
46.593,-0.879,0.412,-0.279
46.603,-0.875,0.414,-0.279
46.613,-0.877,0.414,-0.277
46.623,-0.875,0.410,-0.281
46.633,-0.877,0.400,-0.283
46.642,-0.875,0.406,-0.287
46.652,-0.879,0.404,-0.287
46.662,-0.879,0.410,-0.285
46.672,-0.881,0.418,-0.285
46.682,-0.887,0.414,-0.283
46.692,-0.885,0.408,-0.287
46.702,-0.885,0.410,-0.283
46.712,-0.887,0.406,-0.281
46.722,-0.881,0.404,-0.285
46.732,-0.883,0.404,-0.281
46.742,-0.881,0.404,-0.285
46.752,-0.881,0.406,-0.283
46.761,-0.879,0.408,-0.283
46.771,-0.877,0.406,-0.281
46.781,-0.879,0.404,-0.287
46.791,-0.879,0.408,-0.289
46.801,-0.875,0.412,-0.287
46.811,-0.879,0.418,-0.287
46.821,-0.877,0.418,-0.285
46.831,-0.875,0.416,-0.287
46.841,-0.873,0.416,-0.285
46.851,-0.873,0.416,-0.283
46.861,-0.875,0.414,-0.283
46.871,-0.873,0.414,-0.281
46.880,-0.869,0.412,-0.281
46.890,-0.869,0.412,-0.283
46.900,-0.871,0.408,-0.285
46.910,-0.873,0.406,-0.283
46.920,-0.877,0.400,-0.279
46.930,-0.875,0.400,-0.283
46.940,-0.875,0.400,-0.285
46.950,-0.881,0.402,-0.285
46.960,-0.879,0.406,-0.287
46.970,-0.883,0.402,-0.289
46.980,-0.889,0.406,-0.287
46.990,-0.895,0.410,-0.283
46.999,-0.895,0.414,-0.285
47.009,-0.893,0.416,-0.285
47.019,-0.887,0.412,-0.281
47.029,-0.885,0.408,-0.283
47.039,-0.881,0.406,-0.279
47.049,-0.877,0.406,-0.283
47.059,-0.875,0.402,-0.281
47.069,-0.875,0.402,-0.283
47.079,-0.875,0.406,-0.281
47.089,-0.873,0.406,-0.281
47.099,-0.875,0.410,-0.281
47.109,-0.879,0.406,-0.277
47.118,-0.875,0.406,-0.279
47.128,-0.879,0.408,-0.281
47.138,-0.879,0.406,-0.277
47.148,-0.885,0.408,-0.279
47.158,-0.883,0.408,-0.285
47.168,-0.881,0.410,-0.283
47.178,-0.881,0.412,-0.279
47.188,-0.875,0.412,-0.281
47.198,-0.877,0.410,-0.283
47.208,-0.877,0.406,-0.283
47.218,-0.875,0.402,-0.285
47.228,-0.875,0.402,-0.283
47.237,-0.881,0.400,-0.285
47.247,-0.881,0.406,-0.283
47.257,-0.883,0.416,-0.283
47.267,-0.883,0.416,-0.283
47.277,-0.879,0.414,-0.281
47.287,-0.879,0.410,-0.285
47.297,-0.881,0.408,-0.283
47.307,-0.877,0.408,-0.283
47.317,-0.873,0.408,-0.279
47.327,-0.873,0.406,-0.283
47.337,-0.877,0.406,-0.283
47.347,-0.873,0.408,-0.285
47.356,-0.873,0.410,-0.287
47.366,-0.879,0.412,-0.285
47.376,-0.879,0.408,-0.285
47.386,-0.879,0.410,-0.285
47.396,-0.881,0.414,-0.285
47.406,-0.879,0.412,-0.285
47.416,-0.883,0.412,-0.283
47.426,-0.879,0.410,-0.285
47.436,-0.877,0.406,-0.285
47.446,-0.879,0.406,-0.283
47.456,-0.877,0.410,-0.283
47.466,-0.879,0.410,-0.285
47.475,-0.877,0.412,-0.283
47.485,-0.875,0.410,-0.281
47.495,-0.877,0.408,-0.279
47.505,-0.879,0.402,-0.281
47.515,-0.879,0.400,-0.283
47.525,-0.877,0.406,-0.281
47.535,-0.877,0.412,-0.283
47.545,-0.879,0.406,-0.283
47.555,-0.881,0.400,-0.281
47.565,-0.887,0.402,-0.285
47.575,-0.889,0.408,-0.287
47.585,-0.885,0.410,-0.281
47.594,-0.887,0.416,-0.281
47.604,-0.883,0.410,-0.287
47.614,-0.881,0.408,-0.285
47.624,-0.881,0.406,-0.285
47.634,-0.877,0.404,-0.287
47.644,-0.877,0.408,-0.287
47.654,-0.877,0.406,-0.283
47.664,-0.881,0.408,-0.287
47.674,-0.877,0.404,-0.285
47.684,-0.877,0.406,-0.285
47.694,-0.877,0.404,-0.281
47.704,-0.873,0.410,-0.281
47.713,-0.875,0.406,-0.281
47.723,-0.877,0.406,-0.285
47.733,-0.877,0.410,-0.285
47.743,-0.879,0.408,-0.285
47.753,-0.881,0.408,-0.285
47.763,-0.881,0.408,-0.287
47.773,-0.877,0.416,-0.285
47.783,-0.879,0.418,-0.285
47.793,-0.873,0.408,-0.287
47.803,-0.873,0.408,-0.283
47.813,-0.875,0.406,-0.285
47.823,-0.875,0.406,-0.287
47.832,-0.883,0.412,-0.283
47.842,-0.881,0.414,-0.283
47.852,-0.881,0.416,-0.283
47.862,-0.883,0.412,-0.287
47.872,-0.881,0.412,-0.285
47.882,-0.879,0.412,-0.285
47.892,-0.881,0.410,-0.287
47.902,-0.879,0.410,-0.281
47.912,-0.877,0.408,-0.283
47.922,-0.877,0.410,-0.285
47.932,-0.875,0.412,-0.285
47.942,-0.877,0.414,-0.283
47.951,-0.879,0.410,-0.283
47.961,-0.875,0.416,-0.281
47.971,-0.873,0.410,-0.281
47.981,-0.875,0.412,-0.279
47.991,-0.875,0.412,-0.283
48.001,-0.875,0.410,-0.281
48.011,-0.877,0.408,-0.285
48.021,-0.877,0.408,-0.287
48.031,-0.879,0.406,-0.283
48.041,-0.881,0.408,-0.283
48.051,-0.883,0.408,-0.283
48.061,-0.881,0.414,-0.281
48.070,-0.879,0.412,-0.285
48.080,-0.873,0.412,-0.279
48.090,-0.877,0.410,-0.283
48.100,-0.873,0.410,-0.285
48.110,-0.875,0.408,-0.281
48.120,-0.881,0.408,-0.281
48.130,-0.875,0.404,-0.279
48.140,-0.877,0.406,-0.283
48.150,-0.873,0.410,-0.281
48.160,-0.879,0.412,-0.285
48.170,-0.877,0.406,-0.285
48.180,-0.883,0.404,-0.283
48.189,-0.885,0.402,-0.285
48.199,-0.887,0.410,-0.283
48.209,-0.887,0.414,-0.283
48.219,-0.883,0.414,-0.283
48.229,-0.883,0.412,-0.281
48.239,-0.883,0.410,-0.281
48.249,-0.879,0.406,-0.283
48.259,-0.879,0.406,-0.283
48.269,-0.875,0.410,-0.285
48.279,-0.879,0.406,-0.283
48.289,-0.877,0.406,-0.283
48.299,-0.875,0.406,-0.281
48.309,-0.877,0.404,-0.283
48.318,-0.875,0.404,-0.283
48.328,-0.875,0.406,-0.283
48.338,-0.877,0.412,-0.279
48.348,-0.875,0.412,-0.281
48.358,-0.875,0.412,-0.283
48.368,-0.877,0.412,-0.285
48.378,-0.883,0.412,-0.287
48.388,-0.881,0.410,-0.281
48.398,-0.879,0.412,-0.281
48.408,-0.883,0.412,-0.283
48.418,-0.877,0.410,-0.281
48.428,-0.877,0.404,-0.285
48.437,-0.879,0.400,-0.285
48.447,-0.881,0.406,-0.285
48.457,-0.881,0.410,-0.283
48.467,-0.877,0.414,-0.287
48.477,-0.883,0.412,-0.283
48.487,-0.885,0.416,-0.283
48.497,-0.879,0.414,-0.283
48.507,-0.877,0.412,-0.281
48.517,-0.879,0.412,-0.281
48.527,-0.877,0.408,-0.279
48.537,-0.877,0.406,-0.283
48.547,-0.875,0.404,-0.281
48.556,-0.875,0.404,-0.281
48.566,-0.877,0.410,-0.279
