df_hash,22ZHK4.DZ2M1F
device,HZ2X61
project_hash,29R7
project_name,istanbul_aydin_university
person_hash,29R7.ZTS5
person_label,V94
date_time_start,2025-11-04_17-52-19.908000_+03
date_time_start_unix,1762264339.908
date_time_end,2025-11-04_18-01-06.541000_+03
length_difference_noticed,no

time,acc_x,acc_y,acc_z
5.663,-0.561,0.859,0.080
5.673,-0.559,0.859,0.078
5.683,-0.557,0.859,0.080
5.693,-0.557,0.857,0.080
5.703,-0.557,0.857,0.080
5.713,-0.557,0.855,0.078
5.723,-0.553,0.852,0.078
5.732,-0.557,0.855,0.080
5.742,-0.555,0.854,0.078
5.752,-0.553,0.854,0.082
5.762,-0.557,0.854,0.080
5.772,-0.555,0.857,0.080
5.782,-0.557,0.854,0.080
5.792,-0.561,0.854,0.080
5.802,-0.561,0.855,0.078
5.812,-0.561,0.855,0.076
5.822,-0.561,0.857,0.076
5.832,-0.561,0.855,0.080
5.842,-0.561,0.854,0.080
5.852,-0.559,0.854,0.082
5.862,-0.559,0.855,0.080
5.871,-0.561,0.855,0.080
5.881,-0.559,0.855,0.080
5.891,-0.559,0.855,0.078
5.901,-0.561,0.855,0.080
5.911,-0.561,0.857,0.078
5.921,-0.561,0.854,0.080
5.931,-0.559,0.854,0.082
5.941,-0.561,0.855,0.080
5.951,-0.561,0.855,0.080
5.961,-0.559,0.855,0.082
5.971,-0.557,0.857,0.082
5.981,-0.559,0.854,0.082
5.991,-0.561,0.855,0.082
6.001,-0.562,0.855,0.084
6.010,-0.561,0.855,0.082
6.020,-0.562,0.855,0.082
6.030,-0.561,0.855,0.082
6.040,-0.564,0.857,0.080
6.050,-0.559,0.854,0.082
6.060,-0.559,0.854,0.080
6.070,-0.562,0.855,0.080
6.080,-0.555,0.854,0.084
6.090,-0.557,0.854,0.084
6.100,-0.557,0.854,0.084
6.110,-0.553,0.852,0.080
6.120,-0.553,0.852,0.080
6.130,-0.559,0.855,0.076
6.140,-0.562,0.855,0.082
6.149,-0.564,0.855,0.084
6.159,-0.564,0.861,0.082
6.169,-0.564,0.859,0.084
6.179,-0.562,0.857,0.080
6.189,-0.564,0.857,0.080
6.199,-0.562,0.852,0.078
6.209,-0.562,0.854,0.076
6.219,-0.561,0.854,0.078
6.229,-0.559,0.852,0.076
6.239,-0.559,0.854,0.080
6.249,-0.559,0.855,0.082
6.259,-0.559,0.855,0.078
6.269,-0.561,0.855,0.080
6.279,-0.557,0.855,0.082
6.288,-0.557,0.857,0.082
6.298,-0.561,0.854,0.080
6.308,-0.559,0.852,0.078
6.318,-0.557,0.854,0.082
6.328,-0.561,0.854,0.084
6.338,-0.561,0.855,0.076
6.348,-0.562,0.854,0.080
6.358,-0.564,0.855,0.082
6.368,-0.562,0.855,0.082
6.378,-0.557,0.857,0.082
6.388,-0.559,0.854,0.082
6.398,-0.559,0.854,0.078
6.408,-0.557,0.854,0.080
6.417,-0.559,0.854,0.080
6.427,-0.561,0.861,0.080
6.437,-0.555,0.859,0.080
6.447,-0.555,0.857,0.080
6.457,-0.555,0.861,0.080
6.467,-0.553,0.857,0.084
6.477,-0.557,0.857,0.080
6.487,-0.555,0.857,0.078
6.497,-0.555,0.854,0.082
6.507,-0.555,0.857,0.080
6.517,-0.555,0.855,0.078
6.527,-0.555,0.854,0.076
6.537,-0.557,0.859,0.082
6.547,-0.559,0.857,0.078
6.556,-0.561,0.859,0.080
6.566,-0.561,0.859,0.080
6.576,-0.561,0.857,0.080
6.586,-0.561,0.855,0.080
6.596,-0.564,0.855,0.078
6.606,-0.561,0.855,0.074
6.616,-0.561,0.854,0.078
6.626,-0.559,0.857,0.076
6.636,-0.561,0.855,0.080
6.646,-0.557,0.857,0.076
6.656,-0.559,0.859,0.082
6.666,-0.559,0.855,0.082
6.676,-0.559,0.854,0.080
6.686,-0.559,0.855,0.082
6.695,-0.559,0.855,0.082
6.705,-0.559,0.855,0.080
6.715,-0.561,0.855,0.082
6.725,-0.559,0.855,0.082
6.735,-0.559,0.855,0.082
6.745,-0.561,0.854,0.082
6.755,-0.559,0.852,0.082
6.765,-0.561,0.854,0.082
6.775,-0.561,0.854,0.084
6.785,-0.559,0.855,0.080
6.795,-0.561,0.855,0.082
6.805,-0.561,0.855,0.078
6.815,-0.561,0.852,0.080
6.825,-0.559,0.854,0.078
6.834,-0.559,0.852,0.082
6.844,-0.555,0.852,0.084
6.854,-0.557,0.857,0.084
6.864,-0.557,0.855,0.086
6.874,-0.557,0.855,0.082
6.884,-0.561,0.855,0.082
6.894,-0.561,0.854,0.080
6.904,-0.564,0.857,0.076
6.914,-0.564,0.855,0.084
6.924,-0.564,0.855,0.080
6.934,-0.561,0.855,0.080
6.944,-0.561,0.855,0.084
6.954,-0.561,0.855,0.080
6.964,-0.559,0.854,0.080
6.973,-0.561,0.854,0.082
6.983,-0.561,0.852,0.082
6.993,-0.561,0.854,0.084
7.003,-0.559,0.854,0.082
7.013,-0.562,0.857,0.082
7.023,-0.562,0.855,0.084
7.033,-0.555,0.857,0.082
7.043,-0.555,0.857,0.084
7.053,-0.555,0.855,0.084
7.063,-0.557,0.855,0.082
7.073,-0.555,0.855,0.084
7.083,-0.555,0.855,0.084
7.093,-0.557,0.854,0.082
7.103,-0.557,0.855,0.082
7.112,-0.555,0.855,0.084
7.122,-0.561,0.863,0.084
7.132,-0.557,0.859,0.082
7.142,-0.557,0.859,0.082
7.152,-0.549,0.855,0.082
7.162,-0.551,0.855,0.084
7.172,-0.551,0.857,0.082
7.182,-0.557,0.863,0.082
7.192,-0.553,0.861,0.084
7.202,-0.553,0.861,0.084
7.212,-0.555,0.865,0.082
7.222,-0.553,0.861,0.082
7.232,-0.551,0.859,0.082
7.242,-0.553,0.857,0.078
7.251,-0.555,0.859,0.084
7.261,-0.551,0.859,0.080
7.271,-0.551,0.855,0.082
7.281,-0.551,0.861,0.084
7.291,-0.553,0.857,0.084
7.301,-0.551,0.855,0.080
7.311,-0.551,0.859,0.084
7.321,-0.557,0.861,0.086
7.331,-0.557,0.857,0.086
7.341,-0.555,0.855,0.086
7.351,-0.559,0.857,0.088
7.361,-0.557,0.855,0.086
7.371,-0.559,0.855,0.084
7.381,-0.559,0.855,0.084
7.390,-0.559,0.855,0.088
7.400,-0.559,0.854,0.088
7.410,-0.557,0.852,0.086
7.420,-0.557,0.855,0.086
7.430,-0.559,0.855,0.090
7.440,-0.561,0.855,0.086
7.450,-0.562,0.855,0.086
7.460,-0.561,0.852,0.086
7.470,-0.562,0.854,0.080
7.480,-0.564,0.857,0.084
7.490,-0.562,0.854,0.088
7.500,-0.561,0.857,0.088
7.510,-0.561,0.857,0.088
7.519,-0.559,0.855,0.084
7.529,-0.559,0.855,0.088
7.539,-0.553,0.852,0.090
7.549,-0.555,0.854,0.090
7.559,-0.555,0.857,0.088
7.569,-0.555,0.855,0.088
7.579,-0.555,0.855,0.086
7.589,-0.557,0.854,0.088
7.599,-0.557,0.854,0.086
7.609,-0.561,0.857,0.086
7.619,-0.561,0.859,0.088
7.629,-0.564,0.861,0.088
7.639,-0.561,0.857,0.084
7.649,-0.557,0.855,0.084
7.658,-0.559,0.854,0.084
7.668,-0.559,0.852,0.084
7.678,-0.561,0.854,0.084
7.688,-0.561,0.854,0.082
7.698,-0.561,0.854,0.084
7.708,-0.561,0.854,0.084
7.718,-0.561,0.859,0.084
7.728,-0.561,0.857,0.088
7.738,-0.562,0.857,0.086
7.748,-0.559,0.855,0.086
7.758,-0.555,0.857,0.084
7.768,-0.555,0.857,0.086
7.778,-0.555,0.857,0.086
7.788,-0.555,0.855,0.086
7.797,-0.553,0.857,0.086
7.807,-0.555,0.855,0.082
7.817,-0.555,0.855,0.088
7.827,-0.559,0.859,0.086
7.837,-0.557,0.857,0.086
7.847,-0.557,0.857,0.086
7.857,-0.557,0.854,0.084
7.867,-0.555,0.854,0.082
7.877,-0.557,0.857,0.086
7.887,-0.559,0.857,0.086
7.897,-0.557,0.859,0.086
7.907,-0.557,0.859,0.082
7.917,-0.557,0.857,0.086
7.927,-0.557,0.857,0.082
7.936,-0.553,0.854,0.086
7.946,-0.555,0.854,0.084
7.956,-0.555,0.855,0.082
7.966,-0.555,0.854,0.084
7.976,-0.553,0.854,0.082
7.986,-0.555,0.854,0.084
7.996,-0.557,0.854,0.084
8.006,-0.555,0.857,0.086
8.016,-0.555,0.859,0.084
8.026,-0.559,0.861,0.084
8.036,-0.557,0.859,0.084
8.046,-0.557,0.857,0.080
8.056,-0.557,0.857,0.082
8.066,-0.557,0.857,0.082
8.075,-0.559,0.854,0.078
8.085,-0.561,0.859,0.082
8.095,-0.559,0.857,0.082
8.105,-0.559,0.854,0.082
8.115,-0.561,0.857,0.084
8.125,-0.559,0.857,0.086
8.135,-0.559,0.857,0.086
8.145,-0.561,0.857,0.082
8.155,-0.561,0.855,0.084
8.165,-0.561,0.855,0.084
8.175,-0.559,0.855,0.084
8.185,-0.561,0.854,0.080
8.195,-0.557,0.854,0.082
8.205,-0.559,0.854,0.086
8.214,-0.562,0.855,0.084
8.224,-0.562,0.855,0.084
8.234,-0.564,0.854,0.086
8.244,-0.564,0.854,0.086
8.254,-0.564,0.855,0.084
8.264,-0.561,0.857,0.080
8.274,-0.562,0.854,0.082
8.284,-0.561,0.854,0.086
8.294,-0.561,0.854,0.084
8.304,-0.559,0.854,0.082
8.314,-0.557,0.855,0.082
8.324,-0.555,0.857,0.088
8.334,-0.557,0.859,0.086
8.344,-0.557,0.855,0.082
8.353,-0.559,0.854,0.084
8.363,-0.559,0.855,0.084
8.373,-0.561,0.859,0.084
8.383,-0.564,0.857,0.082
8.393,-0.561,0.859,0.084
8.403,-0.562,0.855,0.080
8.413,-0.562,0.857,0.080
8.423,-0.562,0.854,0.086
8.433,-0.561,0.852,0.080
8.443,-0.561,0.854,0.082
8.453,-0.561,0.855,0.084
8.463,-0.562,0.855,0.080
8.473,-0.561,0.854,0.082
8.483,-0.559,0.854,0.086
8.492,-0.557,0.854,0.084
8.502,-0.561,0.855,0.084
8.512,-0.559,0.857,0.084
8.522,-0.559,0.855,0.086
8.532,-0.557,0.859,0.086
8.542,-0.557,0.855,0.082
8.552,-0.557,0.855,0.084
8.562,-0.557,0.852,0.086
8.572,-0.559,0.855,0.084
8.582,-0.559,0.852,0.084
8.592,-0.561,0.857,0.086
8.602,-0.557,0.857,0.086
8.612,-0.557,0.855,0.086
8.622,-0.557,0.855,0.086
8.631,-0.557,0.855,0.084
8.641,-0.557,0.857,0.080
8.651,-0.561,0.857,0.082
8.661,-0.559,0.857,0.080
8.671,-0.559,0.859,0.082
8.681,-0.562,0.857,0.082
8.691,-0.562,0.857,0.084
8.701,-0.561,0.857,0.086
8.711,-0.559,0.855,0.082
8.721,-0.557,0.852,0.084
8.731,-0.557,0.855,0.082
8.741,-0.559,0.854,0.082
8.751,-0.557,0.854,0.080
8.760,-0.559,0.857,0.084
8.770,-0.561,0.855,0.082
8.780,-0.562,0.855,0.086
8.790,-0.562,0.854,0.082
8.800,-0.561,0.859,0.084
8.810,-0.561,0.854,0.080
8.820,-0.562,0.854,0.082
8.830,-0.562,0.852,0.080
8.840,-0.564,0.855,0.080
8.850,-0.562,0.852,0.082
8.860,-0.564,0.852,0.084
8.870,-0.562,0.852,0.078
8.880,-0.564,0.854,0.084
8.890,-0.564,0.854,0.082
8.899,-0.564,0.852,0.082
8.909,-0.564,0.854,0.082
8.919,-0.562,0.855,0.084
8.929,-0.564,0.854,0.082
8.939,-0.562,0.854,0.082
8.949,-0.564,0.855,0.082
8.959,-0.564,0.854,0.086
8.969,-0.562,0.852,0.084
8.979,-0.564,0.854,0.084
8.989,-0.564,0.854,0.082
8.999,-0.562,0.854,0.084
9.009,-0.564,0.852,0.082
9.019,-0.564,0.852,0.082
9.029,-0.564,0.855,0.082
9.038,-0.561,0.855,0.080
9.048,-0.561,0.855,0.080
9.058,-0.564,0.855,0.082
9.068,-0.559,0.855,0.080
9.078,-0.561,0.855,0.080
9.088,-0.561,0.861,0.082
9.098,-0.561,0.854,0.080
9.108,-0.557,0.855,0.080
9.118,-0.557,0.857,0.082
9.128,-0.555,0.857,0.084
9.138,-0.555,0.852,0.080
9.148,-0.557,0.854,0.076
9.158,-0.561,0.857,0.078
9.168,-0.562,0.861,0.082
9.177,-0.564,0.863,0.084
9.187,-0.562,0.863,0.086
9.197,-0.559,0.859,0.084
9.207,-0.557,0.857,0.086
9.217,-0.555,0.855,0.084
9.227,-0.561,0.854,0.078
9.237,-0.559,0.854,0.082
9.247,-0.559,0.850,0.082
9.257,-0.566,0.850,0.084
9.267,-0.564,0.850,0.084
9.277,-0.568,0.852,0.082
9.287,-0.566,0.852,0.084
9.297,-0.568,0.854,0.086
9.307,-0.568,0.854,0.084
9.316,-0.566,0.852,0.084
9.326,-0.566,0.850,0.082
9.336,-0.564,0.850,0.084
9.346,-0.562,0.852,0.084
9.356,-0.568,0.854,0.084
9.366,-0.566,0.852,0.082
9.376,-0.562,0.850,0.082
9.386,-0.564,0.857,0.084
9.396,-0.562,0.855,0.084
9.406,-0.562,0.855,0.084
9.416,-0.562,0.854,0.082
9.426,-0.559,0.854,0.084
9.436,-0.562,0.854,0.084
9.446,-0.561,0.854,0.082
9.455,-0.561,0.859,0.080
9.465,-0.559,0.857,0.082
9.475,-0.557,0.857,0.084
9.485,-0.561,0.857,0.084
9.495,-0.561,0.855,0.082
9.505,-0.561,0.854,0.078
9.515,-0.559,0.855,0.084
9.525,-0.561,0.854,0.084
9.535,-0.559,0.854,0.078
9.545,-0.561,0.855,0.084
9.555,-0.559,0.855,0.088
9.565,-0.561,0.855,0.086
9.575,-0.561,0.854,0.082
9.585,-0.561,0.855,0.086
9.594,-0.566,0.854,0.080
9.604,-0.564,0.852,0.084
9.614,-0.566,0.854,0.082
9.624,-0.562,0.852,0.082
9.634,-0.564,0.852,0.082
9.644,-0.566,0.850,0.086
9.654,-0.561,0.854,0.088
9.664,-0.562,0.854,0.086
9.674,-0.562,0.855,0.084
9.684,-0.562,0.855,0.082
9.694,-0.561,0.852,0.088
9.704,-0.561,0.855,0.086
9.714,-0.562,0.855,0.086
9.724,-0.562,0.854,0.084
9.733,-0.561,0.854,0.086
9.743,-0.562,0.852,0.086
9.753,-0.562,0.855,0.084
9.763,-0.562,0.850,0.082
9.773,-0.564,0.855,0.082
9.783,-0.564,0.852,0.082
9.793,-0.568,0.854,0.082
9.803,-0.564,0.852,0.080
9.813,-0.566,0.854,0.082
9.823,-0.566,0.854,0.082
9.833,-0.562,0.850,0.084
9.843,-0.559,0.852,0.080
9.853,-0.562,0.855,0.082
9.862,-0.557,0.852,0.082
9.872,-0.553,0.852,0.084
9.882,-0.559,0.857,0.084
9.892,-0.555,0.857,0.084
9.902,-0.553,0.859,0.082
9.912,-0.557,0.859,0.082
9.922,-0.564,0.859,0.080
9.932,-0.564,0.857,0.082
9.942,-0.564,0.859,0.084
9.952,-0.562,0.859,0.082
9.962,-0.561,0.859,0.080
9.972,-0.561,0.855,0.080
9.982,-0.561,0.854,0.082
9.992,-0.562,0.854,0.082
10.001,-0.561,0.852,0.078
10.011,-0.559,0.852,0.080
10.021,-0.561,0.850,0.080
10.031,-0.564,0.852,0.084
10.041,-0.562,0.854,0.082
10.051,-0.561,0.857,0.082
10.061,-0.562,0.855,0.084
10.071,-0.561,0.859,0.084
10.081,-0.561,0.855,0.086
10.091,-0.561,0.854,0.084
10.101,-0.561,0.854,0.082
10.111,-0.564,0.854,0.084
10.121,-0.562,0.852,0.084
10.131,-0.566,0.852,0.082
10.140,-0.564,0.850,0.082
10.150,-0.566,0.854,0.084
10.160,-0.564,0.855,0.080
10.170,-0.561,0.854,0.082
10.180,-0.561,0.854,0.082
10.190,-0.562,0.854,0.080
10.200,-0.562,0.854,0.084
10.210,-0.564,0.855,0.084
10.220,-0.562,0.855,0.082
10.230,-0.559,0.854,0.084
10.240,-0.557,0.855,0.084
10.250,-0.555,0.855,0.082
10.260,-0.559,0.855,0.082
10.270,-0.557,0.854,0.082
10.279,-0.555,0.855,0.084
10.289,-0.559,0.854,0.082
10.299,-0.559,0.854,0.080
10.309,-0.557,0.854,0.080
10.319,-0.559,0.855,0.082
10.329,-0.561,0.855,0.082
10.339,-0.559,0.854,0.086
10.349,-0.561,0.857,0.084
10.359,-0.564,0.855,0.084
10.369,-0.561,0.855,0.082
10.379,-0.562,0.855,0.080
10.389,-0.561,0.854,0.086
10.399,-0.561,0.855,0.082
10.409,-0.562,0.854,0.082
10.418,-0.564,0.855,0.082
10.428,-0.562,0.854,0.082
10.438,-0.562,0.855,0.082
10.448,-0.562,0.855,0.084
10.458,-0.561,0.855,0.084
10.468,-0.559,0.855,0.086
10.478,-0.561,0.854,0.084
10.488,-0.562,0.854,0.084
10.498,-0.561,0.855,0.082
10.508,-0.562,0.852,0.086
10.518,-0.562,0.854,0.080
10.528,-0.562,0.855,0.086
10.538,-0.564,0.852,0.084
10.548,-0.564,0.852,0.082
10.557,-0.564,0.854,0.082
10.567,-0.562,0.855,0.082
10.577,-0.566,0.857,0.084
10.587,-0.561,0.857,0.084
10.597,-0.562,0.852,0.082
10.607,-0.564,0.852,0.084
10.617,-0.559,0.850,0.086
10.627,-0.557,0.850,0.084
10.637,-0.561,0.848,0.086
10.647,-0.561,0.861,0.084
10.657,-0.555,0.854,0.084
10.667,-0.559,0.854,0.078
10.677,-0.561,0.852,0.080
10.687,-0.564,0.854,0.080
10.696,-0.564,0.854,0.082
10.706,-0.566,0.855,0.080
10.716,-0.566,0.854,0.082
10.726,-0.562,0.855,0.080
10.736,-0.564,0.852,0.076
10.746,-0.564,0.855,0.076
10.756,-0.564,0.855,0.080
10.766,-0.562,0.854,0.078
10.776,-0.564,0.854,0.080
10.786,-0.562,0.852,0.078
10.796,-0.564,0.855,0.080
10.806,-0.564,0.854,0.082
10.816,-0.562,0.854,0.082
10.826,-0.564,0.855,0.082
10.835,-0.561,0.855,0.082
10.845,-0.559,0.855,0.080
10.855,-0.561,0.850,0.078
10.865,-0.561,0.854,0.080
10.875,-0.562,0.852,0.078
10.885,-0.564,0.852,0.080
10.895,-0.564,0.852,0.078
10.905,-0.564,0.857,0.080
10.915,-0.564,0.857,0.084
10.925,-0.561,0.857,0.084
10.935,-0.562,0.854,0.082
10.945,-0.562,0.854,0.082
10.955,-0.564,0.855,0.082
10.965,-0.564,0.855,0.082
10.974,-0.566,0.857,0.084
10.984,-0.564,0.855,0.084
10.994,-0.561,0.854,0.082
11.004,-0.561,0.854,0.080
11.014,-0.561,0.850,0.082
11.024,-0.561,0.854,0.084
11.034,-0.561,0.854,0.082
11.044,-0.561,0.854,0.082
11.054,-0.561,0.850,0.080
11.064,-0.562,0.852,0.082
11.074,-0.561,0.857,0.082
11.084,-0.561,0.854,0.084
11.094,-0.561,0.855,0.082
11.103,-0.562,0.852,0.080
11.113,-0.562,0.857,0.084
11.123,-0.564,0.854,0.082
11.133,-0.564,0.852,0.080
11.143,-0.568,0.852,0.080
11.153,-0.568,0.852,0.080
11.163,-0.564,0.852,0.080
11.173,-0.566,0.852,0.080
11.183,-0.570,0.854,0.082
11.193,-0.566,0.852,0.084
11.203,-0.564,0.852,0.082
11.213,-0.566,0.852,0.082
11.223,-0.564,0.855,0.086
11.233,-0.566,0.854,0.084
11.242,-0.564,0.854,0.082
11.252,-0.564,0.852,0.086
11.262,-0.566,0.852,0.084
11.272,-0.562,0.854,0.080
11.282,-0.562,0.852,0.084
11.292,-0.566,0.850,0.078
11.302,-0.566,0.850,0.084
11.312,-0.564,0.854,0.084
11.322,-0.566,0.852,0.086
11.332,-0.564,0.855,0.084
11.342,-0.566,0.852,0.082
11.352,-0.562,0.852,0.082
11.362,-0.564,0.854,0.082
11.372,-0.562,0.852,0.084
11.381,-0.566,0.854,0.084
11.391,-0.564,0.855,0.082
11.401,-0.564,0.854,0.084
11.411,-0.562,0.855,0.080
11.421,-0.564,0.852,0.080
11.431,-0.561,0.852,0.082
11.441,-0.562,0.852,0.082
11.451,-0.562,0.854,0.082
11.461,-0.562,0.855,0.084
11.471,-0.561,0.854,0.082
11.481,-0.559,0.852,0.078
11.491,-0.562,0.850,0.080
11.501,-0.566,0.854,0.078
11.511,-0.566,0.855,0.082
11.520,-0.568,0.857,0.082
11.530,-0.566,0.857,0.078
11.540,-0.566,0.857,0.082
11.550,-0.564,0.852,0.076
11.560,-0.568,0.854,0.078
11.570,-0.568,0.852,0.078
11.580,-0.568,0.850,0.080
11.590,-0.564,0.854,0.078
11.600,-0.566,0.848,0.078
11.610,-0.566,0.850,0.082
11.620,-0.566,0.852,0.082
11.630,-0.564,0.854,0.080
11.640,-0.562,0.854,0.082
11.650,-0.564,0.855,0.080
11.659,-0.566,0.854,0.084
11.669,-0.562,0.854,0.080
11.679,-0.562,0.854,0.082
11.689,-0.564,0.850,0.080
11.699,-0.564,0.852,0.082
11.709,-0.570,0.852,0.082
11.719,-0.562,0.850,0.082
11.729,-0.564,0.854,0.080
11.739,-0.566,0.852,0.082
11.749,-0.566,0.855,0.082
11.759,-0.564,0.850,0.080
11.769,-0.561,0.850,0.078
11.779,-0.562,0.857,0.082
11.789,-0.561,0.854,0.080
11.798,-0.562,0.857,0.082
11.808,-0.561,0.857,0.082
11.818,-0.562,0.859,0.082
11.828,-0.559,0.857,0.082
11.838,-0.559,0.855,0.082
11.848,-0.561,0.855,0.082
11.858,-0.561,0.852,0.084
11.868,-0.561,0.852,0.082
11.878,-0.561,0.850,0.082
11.888,-0.564,0.852,0.082
11.898,-0.566,0.854,0.084
11.908,-0.564,0.855,0.080
11.918,-0.564,0.850,0.080
11.928,-0.566,0.854,0.080
11.937,-0.566,0.854,0.078
11.947,-0.566,0.850,0.080
11.957,-0.564,0.850,0.082
11.967,-0.570,0.850,0.082
11.977,-0.568,0.852,0.082
11.987,-0.568,0.852,0.082
11.997,-0.564,0.850,0.082
12.007,-0.566,0.850,0.080
12.017,-0.562,0.850,0.086
12.027,-0.562,0.852,0.080
12.037,-0.566,0.850,0.082
12.047,-0.564,0.852,0.082
12.057,-0.564,0.852,0.080
12.067,-0.566,0.854,0.080
12.076,-0.566,0.852,0.082
12.086,-0.566,0.854,0.080
12.096,-0.568,0.854,0.080
12.106,-0.568,0.855,0.082
12.116,-0.566,0.852,0.082
12.126,-0.566,0.852,0.084
12.136,-0.564,0.852,0.084
12.146,-0.562,0.852,0.082
12.156,-0.562,0.850,0.084
12.166,-0.562,0.852,0.082
12.176,-0.564,0.850,0.084
12.186,-0.566,0.852,0.082
12.196,-0.570,0.848,0.086
12.206,-0.570,0.854,0.080
12.215,-0.570,0.852,0.082
12.225,-0.572,0.854,0.080
12.235,-0.572,0.855,0.080
12.245,-0.568,0.850,0.082
12.255,-0.570,0.852,0.082
12.265,-0.566,0.852,0.080
12.275,-0.562,0.850,0.080
12.285,-0.564,0.852,0.084
12.295,-0.562,0.854,0.084
12.305,-0.561,0.854,0.082
12.315,-0.561,0.850,0.080
12.325,-0.564,0.855,0.080
12.335,-0.564,0.854,0.082
12.344,-0.566,0.857,0.082
12.354,-0.566,0.855,0.082
12.364,-0.562,0.857,0.084
12.374,-0.566,0.852,0.078
12.384,-0.564,0.852,0.076
12.394,-0.564,0.854,0.080
12.404,-0.564,0.852,0.080
12.414,-0.562,0.850,0.080
12.424,-0.566,0.850,0.076
12.434,-0.564,0.852,0.080
12.444,-0.566,0.850,0.080
12.454,-0.568,0.852,0.082
12.464,-0.564,0.852,0.078
12.474,-0.566,0.852,0.082
12.483,-0.564,0.852,0.082
12.493,-0.566,0.850,0.082
12.503,-0.562,0.850,0.086
12.513,-0.564,0.850,0.080
12.523,-0.562,0.850,0.082
12.533,-0.566,0.850,0.080
12.543,-0.564,0.850,0.080
12.553,-0.566,0.854,0.086
12.563,-0.562,0.854,0.084
12.573,-0.562,0.855,0.080
12.583,-0.562,0.854,0.082
12.593,-0.562,0.852,0.080
12.603,-0.561,0.852,0.084
12.613,-0.564,0.855,0.082
12.622,-0.566,0.854,0.084
12.632,-0.562,0.855,0.084
12.642,-0.562,0.857,0.084
12.652,-0.562,0.854,0.084
12.662,-0.561,0.857,0.086
12.672,-0.561,0.852,0.078
12.682,-0.559,0.854,0.082
12.692,-0.559,0.854,0.082
12.702,-0.559,0.855,0.084
12.712,-0.559,0.852,0.082
12.722,-0.557,0.848,0.080
12.732,-0.559,0.852,0.082
12.742,-0.561,0.854,0.084
12.752,-0.562,0.855,0.084
12.761,-0.562,0.855,0.082
12.771,-0.564,0.855,0.082
12.781,-0.566,0.854,0.080
12.791,-0.566,0.854,0.084
12.801,-0.564,0.852,0.080
12.811,-0.566,0.854,0.084
12.821,-0.564,0.852,0.082
12.831,-0.564,0.852,0.084
12.841,-0.564,0.855,0.082
12.851,-0.566,0.855,0.082
12.861,-0.564,0.852,0.084
12.871,-0.562,0.850,0.082
12.881,-0.562,0.852,0.086
12.891,-0.564,0.850,0.082
12.900,-0.564,0.850,0.086
12.910,-0.564,0.852,0.086
12.920,-0.566,0.850,0.082
12.930,-0.570,0.855,0.084
12.940,-0.566,0.854,0.082
12.950,-0.566,0.854,0.086
12.960,-0.570,0.854,0.084
12.970,-0.568,0.855,0.082
12.980,-0.566,0.848,0.080
12.990,-0.566,0.854,0.084
13.000,-0.564,0.850,0.084
13.010,-0.562,0.850,0.084
13.020,-0.564,0.854,0.086
13.030,-0.561,0.854,0.086
13.039,-0.561,0.854,0.082
13.049,-0.562,0.854,0.086
13.059,-0.564,0.852,0.086
13.069,-0.568,0.852,0.082
13.079,-0.568,0.854,0.082
13.089,-0.570,0.854,0.084
13.099,-0.568,0.855,0.082
13.109,-0.568,0.854,0.080
13.119,-0.564,0.850,0.082
13.129,-0.564,0.852,0.082
13.139,-0.566,0.850,0.078
13.149,-0.564,0.854,0.080
13.159,-0.564,0.852,0.080
13.169,-0.566,0.854,0.082
13.178,-0.562,0.854,0.082
13.188,-0.562,0.855,0.082
13.198,-0.564,0.859,0.084
13.208,-0.562,0.855,0.080
13.218,-0.562,0.854,0.078
13.228,-0.564,0.857,0.080
13.238,-0.564,0.854,0.084
13.248,-0.561,0.854,0.086
13.258,-0.561,0.852,0.084
13.268,-0.562,0.852,0.080
13.278,-0.562,0.850,0.078
13.288,-0.564,0.852,0.080
13.298,-0.564,0.855,0.084
13.308,-0.564,0.852,0.084
13.317,-0.562,0.854,0.080
13.327,-0.562,0.854,0.080
13.337,-0.564,0.852,0.080
13.347,-0.562,0.854,0.082
13.357,-0.564,0.852,0.082
13.367,-0.564,0.854,0.082
13.377,-0.562,0.854,0.084
13.387,-0.559,0.855,0.080
13.397,-0.562,0.855,0.082
13.407,-0.561,0.854,0.084
13.417,-0.561,0.855,0.082
13.427,-0.559,0.854,0.082
13.437,-0.561,0.852,0.082
13.446,-0.562,0.854,0.084
13.456,-0.562,0.852,0.082
13.466,-0.561,0.854,0.084
13.476,-0.561,0.854,0.082
13.486,-0.562,0.854,0.080
13.496,-0.562,0.859,0.084
13.506,-0.564,0.852,0.080
13.516,-0.564,0.854,0.082
13.526,-0.564,0.852,0.080
13.536,-0.566,0.854,0.080
13.546,-0.568,0.852,0.080
13.556,-0.564,0.854,0.078
13.566,-0.566,0.854,0.080
13.576,-0.566,0.854,0.080
13.585,-0.566,0.854,0.080
13.595,-0.566,0.857,0.082
13.605,-0.564,0.857,0.082
13.615,-0.562,0.854,0.082
13.625,-0.568,0.852,0.082
13.635,-0.566,0.852,0.084
13.645,-0.564,0.852,0.082
13.655,-0.564,0.854,0.084
13.665,-0.566,0.852,0.082
13.675,-0.564,0.852,0.084
13.685,-0.566,0.852,0.080
13.695,-0.566,0.850,0.084
13.705,-0.568,0.852,0.082
13.715,-0.568,0.854,0.082
13.724,-0.566,0.854,0.082
13.734,-0.568,0.852,0.082
13.744,-0.562,0.852,0.080
13.754,-0.568,0.852,0.082
13.764,-0.562,0.848,0.080
13.774,-0.566,0.852,0.082
13.784,-0.566,0.854,0.084
13.794,-0.562,0.850,0.080
13.804,-0.561,0.850,0.078
13.814,-0.564,0.850,0.080
13.824,-0.568,0.854,0.086
13.834,-0.568,0.854,0.082
13.844,-0.566,0.855,0.080
13.854,-0.566,0.855,0.080
13.863,-0.564,0.854,0.080
13.873,-0.568,0.852,0.080
13.883,-0.566,0.852,0.082
13.893,-0.568,0.850,0.080
13.903,-0.568,0.850,0.078
13.913,-0.568,0.852,0.080
13.923,-0.568,0.852,0.082
13.933,-0.564,0.852,0.082
13.943,-0.564,0.852,0.080
13.953,-0.566,0.854,0.080
13.963,-0.564,0.854,0.080
13.973,-0.566,0.854,0.078
13.983,-0.568,0.854,0.082
13.993,-0.564,0.852,0.080
14.002,-0.562,0.852,0.080
14.012,-0.564,0.852,0.078
14.022,-0.568,0.854,0.078
14.032,-0.568,0.850,0.080
14.042,-0.564,0.852,0.078
14.052,-0.570,0.852,0.080
14.062,-0.566,0.854,0.080
14.072,-0.566,0.854,0.078
14.082,-0.566,0.852,0.082
14.092,-0.564,0.850,0.078
14.102,-0.564,0.852,0.080
14.112,-0.568,0.854,0.076
14.122,-0.564,0.854,0.080
14.132,-0.566,0.854,0.078
14.141,-0.562,0.855,0.080
14.151,-0.564,0.854,0.080
14.161,-0.562,0.852,0.080
14.171,-0.562,0.854,0.082
14.181,-0.562,0.852,0.084
14.191,-0.562,0.854,0.080
14.201,-0.562,0.854,0.082
14.211,-0.562,0.854,0.080
14.221,-0.566,0.855,0.080
14.231,-0.566,0.854,0.080
14.241,-0.564,0.854,0.080
14.251,-0.566,0.854,0.076
14.261,-0.568,0.852,0.078
14.271,-0.570,0.850,0.078
14.280,-0.568,0.852,0.080
14.290,-0.570,0.852,0.080
14.300,-0.570,0.852,0.078
14.310,-0.566,0.852,0.078
14.320,-0.566,0.852,0.078
14.330,-0.568,0.850,0.082
14.340,-0.564,0.852,0.080
14.350,-0.564,0.850,0.084
14.360,-0.564,0.852,0.084
14.370,-0.564,0.852,0.080
14.380,-0.566,0.852,0.080
14.390,-0.564,0.854,0.082
14.400,-0.566,0.850,0.080
14.410,-0.566,0.850,0.082
14.419,-0.568,0.854,0.080
14.429,-0.566,0.852,0.082
14.439,-0.566,0.848,0.080
14.449,-0.566,0.850,0.078
14.459,-0.568,0.850,0.082
14.469,-0.570,0.852,0.078
14.479,-0.568,0.848,0.082
14.489,-0.570,0.852,0.080
14.499,-0.568,0.850,0.080
14.509,-0.570,0.854,0.080
14.519,-0.566,0.854,0.082
14.529,-0.566,0.852,0.080
14.539,-0.568,0.852,0.080
14.549,-0.562,0.850,0.080
14.558,-0.562,0.850,0.082
14.568,-0.562,0.855,0.084
14.578,-0.559,0.854,0.082
14.588,-0.561,0.850,0.076
14.598,-0.564,0.854,0.080
14.608,-0.568,0.854,0.078
14.618,-0.570,0.855,0.080
14.628,-0.572,0.855,0.078
14.638,-0.568,0.854,0.078
14.648,-0.566,0.855,0.080
14.658,-0.564,0.854,0.080
14.668,-0.570,0.850,0.078
14.678,-0.566,0.850,0.076
14.687,-0.568,0.852,0.080
14.697,-0.568,0.850,0.076
14.707,-0.566,0.850,0.080
14.717,-0.564,0.852,0.076
14.727,-0.564,0.854,0.082
14.737,-0.568,0.854,0.074
14.747,-0.566,0.852,0.078
14.757,-0.568,0.854,0.082
14.767,-0.566,0.854,0.080
14.777,-0.566,0.850,0.080
14.787,-0.568,0.850,0.076
14.797,-0.568,0.850,0.076
14.807,-0.570,0.848,0.076
14.817,-0.564,0.848,0.078
14.826,-0.566,0.854,0.080
14.836,-0.570,0.852,0.086
14.846,-0.566,0.852,0.080
14.856,-0.564,0.855,0.076
14.866,-0.562,0.852,0.082
14.876,-0.562,0.855,0.078
14.886,-0.564,0.854,0.082
14.896,-0.562,0.855,0.078
14.906,-0.564,0.855,0.078
14.916,-0.562,0.857,0.078
14.926,-0.562,0.857,0.080
14.936,-0.561,0.857,0.084
14.946,-0.561,0.855,0.080
14.956,-0.561,0.852,0.080
14.965,-0.562,0.852,0.080
14.975,-0.562,0.850,0.080
14.985,-0.562,0.850,0.080
14.995,-0.566,0.850,0.078
15.005,-0.568,0.852,0.080
15.015,-0.566,0.854,0.074
15.025,-0.568,0.855,0.076
15.035,-0.566,0.852,0.080
15.045,-0.568,0.854,0.080
15.055,-0.566,0.854,0.076
15.065,-0.570,0.852,0.080
15.075,-0.568,0.852,0.082
15.085,-0.566,0.852,0.078
15.095,-0.568,0.852,0.080
15.104,-0.568,0.852,0.080
15.114,-0.566,0.852,0.082
15.124,-0.564,0.850,0.080
15.134,-0.564,0.854,0.084
15.144,-0.564,0.854,0.080
15.154,-0.561,0.852,0.084
15.164,-0.562,0.854,0.080
15.174,-0.562,0.854,0.078
15.184,-0.562,0.850,0.078
15.194,-0.564,0.852,0.084
15.204,-0.562,0.855,0.086
15.214,-0.561,0.852,0.080
15.224,-0.561,0.850,0.082
15.234,-0.568,0.855,0.082
15.243,-0.566,0.859,0.084
15.253,-0.568,0.852,0.080
15.263,-0.566,0.854,0.080
15.273,-0.566,0.855,0.078
15.283,-0.561,0.855,0.078
15.293,-0.557,0.852,0.080
15.303,-0.557,0.857,0.082
15.313,-0.559,0.857,0.078
15.323,-0.555,0.855,0.080
15.333,-0.555,0.857,0.080
15.343,-0.555,0.859,0.078
15.353,-0.559,0.859,0.080
15.363,-0.561,0.859,0.080
15.373,-0.564,0.861,0.078
15.382,-0.561,0.855,0.076
15.392,-0.561,0.857,0.078
15.402,-0.557,0.854,0.076
15.412,-0.553,0.854,0.080
15.422,-0.557,0.855,0.080
15.432,-0.555,0.857,0.078
15.442,-0.551,0.855,0.076
15.452,-0.545,0.854,0.078
15.462,-0.549,0.859,0.076
15.472,-0.553,0.861,0.080
15.482,-0.553,0.863,0.076
15.492,-0.557,0.861,0.078
15.502,-0.555,0.863,0.080
15.512,-0.557,0.863,0.080
15.521,-0.557,0.861,0.078
15.531,-0.555,0.861,0.080
15.541,-0.555,0.861,0.078
15.551,-0.557,0.857,0.076
15.561,-0.555,0.854,0.078
15.571,-0.553,0.859,0.080
15.581,-0.555,0.857,0.082
15.591,-0.553,0.859,0.080
15.601,-0.551,0.857,0.080
15.611,-0.551,0.859,0.076
15.621,-0.551,0.861,0.080
15.631,-0.553,0.863,0.078
15.641,-0.555,0.863,0.086
15.651,-0.549,0.861,0.080
15.660,-0.553,0.859,0.082
15.670,-0.551,0.859,0.082
15.680,-0.547,0.857,0.078
15.690,-0.547,0.859,0.080
15.700,-0.553,0.859,0.082
15.710,-0.547,0.861,0.078
15.720,-0.549,0.859,0.082
15.730,-0.553,0.859,0.076
15.740,-0.551,0.861,0.080
15.750,-0.553,0.859,0.078
15.760,-0.555,0.865,0.078
15.770,-0.557,0.863,0.080
15.780,-0.553,0.861,0.078
15.789,-0.555,0.861,0.080
15.799,-0.555,0.863,0.078
15.809,-0.557,0.861,0.082
15.819,-0.553,0.857,0.078
15.829,-0.557,0.857,0.084
15.839,-0.555,0.857,0.080
15.849,-0.555,0.855,0.076
15.859,-0.555,0.855,0.082
15.869,-0.555,0.859,0.080
15.879,-0.559,0.861,0.082
15.889,-0.559,0.859,0.080
15.899,-0.559,0.857,0.082
15.909,-0.557,0.855,0.080
15.919,-0.557,0.855,0.084
15.928,-0.557,0.857,0.080
15.938,-0.557,0.857,0.084
15.948,-0.559,0.859,0.082
15.958,-0.557,0.859,0.078
15.968,-0.557,0.857,0.080
15.978,-0.559,0.857,0.082
15.988,-0.557,0.859,0.082
15.998,-0.561,0.855,0.082
16.008,-0.559,0.859,0.080
16.018,-0.557,0.855,0.082
16.028,-0.557,0.859,0.080
16.038,-0.555,0.855,0.082
16.048,-0.557,0.859,0.082
16.058,-0.557,0.855,0.078
16.067,-0.551,0.852,0.082
16.077,-0.555,0.857,0.082
16.087,-0.555,0.859,0.082
16.097,-0.553,0.857,0.080
16.107,-0.549,0.855,0.080
16.117,-0.553,0.855,0.078
16.127,-0.557,0.855,0.080
16.137,-0.561,0.857,0.080
16.147,-0.564,0.861,0.080
16.157,-0.561,0.861,0.080
16.167,-0.561,0.861,0.080
16.177,-0.559,0.859,0.084
16.187,-0.557,0.857,0.078
16.197,-0.561,0.861,0.078
16.206,-0.559,0.857,0.078
16.216,-0.557,0.854,0.080
16.226,-0.557,0.854,0.078
16.236,-0.557,0.855,0.080
16.246,-0.557,0.859,0.080
16.256,-0.553,0.859,0.084
16.266,-0.553,0.859,0.082
16.276,-0.557,0.863,0.082
16.286,-0.555,0.859,0.082
16.296,-0.555,0.861,0.082
16.306,-0.557,0.861,0.084
16.316,-0.553,0.861,0.084
16.326,-0.553,0.857,0.082
16.336,-0.555,0.855,0.080
16.345,-0.557,0.855,0.078
16.355,-0.559,0.859,0.082
16.365,-0.555,0.855,0.084
16.375,-0.557,0.859,0.082
16.385,-0.555,0.855,0.084
16.395,-0.557,0.859,0.078
16.405,-0.555,0.857,0.082
16.415,-0.561,0.857,0.084
16.425,-0.559,0.855,0.086
16.435,-0.555,0.857,0.082
16.445,-0.559,0.859,0.082
16.455,-0.555,0.861,0.082
16.465,-0.557,0.855,0.084
16.475,-0.555,0.854,0.086
16.484,-0.555,0.861,0.080
16.494,-0.555,0.855,0.084
16.504,-0.555,0.857,0.080
16.514,-0.553,0.861,0.084
16.524,-0.553,0.857,0.084
16.534,-0.557,0.857,0.084
16.544,-0.555,0.857,0.080
16.554,-0.557,0.857,0.084
16.564,-0.557,0.859,0.082
16.574,-0.555,0.859,0.084
16.584,-0.557,0.859,0.080
16.594,-0.557,0.861,0.080
16.604,-0.557,0.857,0.084
16.614,-0.553,0.859,0.080
16.623,-0.555,0.857,0.082
16.633,-0.557,0.855,0.078
16.643,-0.553,0.859,0.080
16.653,-0.557,0.855,0.078
16.663,-0.557,0.859,0.082
16.673,-0.561,0.859,0.082
16.683,-0.557,0.857,0.082
16.693,-0.557,0.857,0.082
16.703,-0.559,0.859,0.078
16.713,-0.557,0.855,0.084
16.723,-0.559,0.859,0.080
16.733,-0.557,0.855,0.082
16.743,-0.557,0.859,0.080
16.753,-0.555,0.855,0.080
16.762,-0.559,0.857,0.082
16.772,-0.557,0.859,0.078
16.782,-0.555,0.855,0.080
16.792,-0.557,0.859,0.082
16.802,-0.561,0.855,0.080
16.812,-0.561,0.857,0.080
16.822,-0.557,0.857,0.080
16.832,-0.557,0.861,0.080
16.842,-0.555,0.859,0.078
16.852,-0.555,0.857,0.080
16.862,-0.553,0.861,0.080
16.872,-0.553,0.861,0.080
16.882,-0.547,0.857,0.080
16.892,-0.551,0.861,0.082
16.901,-0.549,0.865,0.084
16.911,-0.549,0.859,0.080
16.921,-0.549,0.855,0.076
16.931,-0.557,0.854,0.078
16.941,-0.557,0.857,0.080
16.951,-0.562,0.857,0.078
16.961,-0.562,0.859,0.072
16.971,-0.566,0.859,0.078
16.981,-0.562,0.857,0.080
16.991,-0.562,0.854,0.074
17.001,-0.561,0.854,0.078
17.011,-0.559,0.854,0.074
17.021,-0.562,0.855,0.078
17.030,-0.561,0.854,0.076
17.040,-0.562,0.854,0.078
17.050,-0.561,0.855,0.078
17.060,-0.559,0.857,0.080
17.070,-0.561,0.855,0.080
17.080,-0.559,0.855,0.078
17.090,-0.557,0.859,0.078
17.100,-0.559,0.859,0.082
17.110,-0.559,0.857,0.080
17.120,-0.557,0.857,0.080
17.130,-0.559,0.857,0.080
17.140,-0.562,0.855,0.076
17.150,-0.561,0.854,0.080
17.160,-0.559,0.854,0.080
17.169,-0.562,0.859,0.084
17.179,-0.559,0.857,0.078
17.189,-0.561,0.855,0.080
17.199,-0.561,0.854,0.080
17.209,-0.562,0.852,0.076
17.219,-0.561,0.854,0.078
17.229,-0.561,0.857,0.082
17.239,-0.559,0.857,0.078
17.249,-0.562,0.861,0.080
17.259,-0.564,0.859,0.080
17.269,-0.561,0.855,0.080
17.279,-0.561,0.857,0.082
17.289,-0.561,0.854,0.080
17.299,-0.561,0.857,0.080
17.308,-0.562,0.854,0.080
17.318,-0.561,0.850,0.080
17.328,-0.562,0.854,0.078
17.338,-0.562,0.854,0.080
17.348,-0.557,0.854,0.076
17.358,-0.561,0.855,0.076
17.368,-0.559,0.857,0.078
17.378,-0.562,0.854,0.076
17.388,-0.564,0.854,0.078
17.398,-0.562,0.854,0.078
17.408,-0.559,0.852,0.078
17.418,-0.562,0.854,0.080
17.428,-0.561,0.854,0.082
17.438,-0.559,0.854,0.082
17.447,-0.559,0.854,0.082
17.457,-0.561,0.854,0.082
17.467,-0.559,0.855,0.078
17.477,-0.559,0.857,0.082
17.487,-0.559,0.859,0.082
17.497,-0.559,0.861,0.078
17.507,-0.559,0.855,0.080
17.517,-0.561,0.855,0.082
17.527,-0.562,0.857,0.082
17.537,-0.559,0.857,0.078
17.547,-0.561,0.857,0.080
17.557,-0.559,0.857,0.080
17.567,-0.559,0.859,0.076
17.577,-0.561,0.857,0.076
17.586,-0.559,0.859,0.080
17.596,-0.557,0.861,0.078
17.606,-0.559,0.861,0.078
17.616,-0.557,0.859,0.078
17.626,-0.551,0.857,0.080
17.636,-0.553,0.859,0.078
17.646,-0.551,0.857,0.078
17.656,-0.547,0.857,0.082
17.666,-0.553,0.859,0.082
17.676,-0.549,0.863,0.084
17.686,-0.553,0.859,0.078
17.696,-0.553,0.857,0.080
17.706,-0.557,0.859,0.080
17.716,-0.559,0.859,0.078
17.725,-0.561,0.857,0.078
17.735,-0.555,0.861,0.074
17.745,-0.557,0.859,0.080
17.755,-0.555,0.859,0.078
17.765,-0.553,0.857,0.076
17.775,-0.557,0.855,0.080
17.785,-0.557,0.857,0.074
17.795,-0.559,0.855,0.074
17.805,-0.557,0.855,0.078
17.815,-0.555,0.855,0.076
17.825,-0.557,0.855,0.080
17.835,-0.553,0.859,0.076
17.845,-0.557,0.855,0.078
17.855,-0.557,0.857,0.080
17.864,-0.555,0.857,0.078
17.874,-0.555,0.855,0.080
17.884,-0.557,0.855,0.082
17.894,-0.557,0.859,0.076
17.904,-0.553,0.857,0.076
17.914,-0.557,0.857,0.076
17.924,-0.557,0.859,0.078
17.934,-0.559,0.861,0.082
17.944,-0.555,0.863,0.076
17.954,-0.555,0.859,0.082
17.964,-0.553,0.857,0.078
17.974,-0.555,0.855,0.076
17.984,-0.555,0.857,0.080
17.994,-0.551,0.857,0.078
18.003,-0.559,0.861,0.080
18.013,-0.557,0.863,0.082
18.023,-0.561,0.861,0.080
18.033,-0.557,0.859,0.080
18.043,-0.555,0.855,0.078
18.053,-0.555,0.857,0.078
18.063,-0.557,0.855,0.078
18.073,-0.555,0.855,0.080
18.083,-0.557,0.859,0.076
18.093,-0.555,0.859,0.080
18.103,-0.553,0.857,0.076
18.113,-0.553,0.861,0.074
18.123,-0.555,0.861,0.080
18.132,-0.555,0.857,0.080
18.142,-0.557,0.859,0.084
18.152,-0.557,0.859,0.078
18.162,-0.559,0.857,0.076
18.172,-0.557,0.855,0.078
18.182,-0.555,0.855,0.076
18.192,-0.559,0.857,0.078
18.202,-0.557,0.854,0.078
18.212,-0.559,0.855,0.078
18.222,-0.561,0.854,0.078
18.232,-0.561,0.859,0.078
18.242,-0.561,0.855,0.080
18.252,-0.562,0.855,0.078
18.262,-0.562,0.857,0.080
18.271,-0.561,0.855,0.080
18.281,-0.562,0.857,0.078
18.291,-0.561,0.857,0.076
18.301,-0.561,0.857,0.078
18.311,-0.561,0.855,0.078
18.321,-0.561,0.854,0.076
18.331,-0.561,0.857,0.076
18.341,-0.559,0.855,0.076
18.351,-0.555,0.852,0.076
18.361,-0.557,0.861,0.084
18.371,-0.553,0.857,0.082
18.381,-0.551,0.854,0.076
18.391,-0.553,0.859,0.078
18.401,-0.555,0.855,0.076
18.410,-0.557,0.854,0.076
18.420,-0.557,0.855,0.078
18.430,-0.559,0.857,0.078
18.440,-0.561,0.859,0.082
18.450,-0.559,0.861,0.078
18.460,-0.559,0.859,0.078
18.470,-0.557,0.859,0.078
18.480,-0.559,0.855,0.078
18.490,-0.559,0.857,0.080
18.500,-0.559,0.857,0.074
18.510,-0.557,0.855,0.078
18.520,-0.561,0.859,0.076
18.530,-0.559,0.857,0.078
18.540,-0.561,0.859,0.076
18.549,-0.559,0.859,0.076
18.559,-0.561,0.857,0.080
18.569,-0.561,0.855,0.078
18.579,-0.559,0.857,0.078
18.589,-0.561,0.857,0.078
18.599,-0.562,0.854,0.076
18.609,-0.559,0.855,0.076
18.619,-0.557,0.857,0.074
18.629,-0.561,0.855,0.080
18.639,-0.561,0.857,0.078
18.649,-0.553,0.859,0.078
18.659,-0.555,0.855,0.080
18.669,-0.553,0.855,0.074
18.679,-0.555,0.857,0.078
18.688,-0.559,0.859,0.076
18.698,-0.555,0.859,0.078
18.708,-0.555,0.861,0.080
18.718,-0.555,0.861,0.080
18.728,-0.557,0.859,0.076
18.738,-0.553,0.859,0.078
18.748,-0.557,0.857,0.078
18.758,-0.553,0.855,0.074
18.768,-0.555,0.859,0.078
18.778,-0.553,0.859,0.078
18.788,-0.555,0.855,0.076
18.798,-0.553,0.857,0.074
18.808,-0.557,0.857,0.076
18.818,-0.559,0.857,0.078
18.827,-0.557,0.855,0.078
18.837,-0.561,0.857,0.080
18.847,-0.559,0.857,0.076
18.857,-0.561,0.857,0.076
18.867,-0.561,0.859,0.074
18.877,-0.561,0.857,0.074
18.887,-0.561,0.859,0.076
18.897,-0.559,0.855,0.076
18.907,-0.559,0.854,0.074
18.917,-0.559,0.855,0.076
18.927,-0.557,0.855,0.076
18.937,-0.559,0.857,0.080
18.947,-0.561,0.857,0.080
18.957,-0.561,0.857,0.076
18.966,-0.561,0.857,0.076
18.976,-0.561,0.855,0.080
18.986,-0.562,0.854,0.076
18.996,-0.564,0.855,0.074
19.006,-0.562,0.854,0.076
19.016,-0.562,0.854,0.074
19.026,-0.564,0.854,0.074
19.036,-0.562,0.857,0.072
19.046,-0.564,0.854,0.072
19.056,-0.564,0.859,0.074
19.066,-0.566,0.855,0.078
19.076,-0.562,0.857,0.076
19.086,-0.561,0.857,0.074
19.096,-0.561,0.854,0.076
19.105,-0.559,0.857,0.072
19.115,-0.564,0.859,0.076
19.125,-0.557,0.852,0.074
19.135,-0.555,0.857,0.076
19.145,-0.559,0.859,0.074
19.155,-0.557,0.855,0.074
19.165,-0.555,0.854,0.078
19.175,-0.559,0.852,0.072
19.185,-0.564,0.852,0.070
19.195,-0.566,0.857,0.070
19.205,-0.566,0.857,0.074
19.215,-0.564,0.855,0.076
19.225,-0.564,0.859,0.076
19.235,-0.564,0.854,0.074
19.244,-0.562,0.854,0.072
19.254,-0.564,0.855,0.074
19.264,-0.564,0.855,0.076
19.274,-0.561,0.855,0.072
19.284,-0.561,0.854,0.076
19.294,-0.562,0.852,0.074
19.304,-0.562,0.854,0.074
19.314,-0.562,0.855,0.076
19.324,-0.562,0.857,0.076
19.334,-0.562,0.857,0.078
19.344,-0.562,0.857,0.076
19.354,-0.559,0.855,0.076
19.364,-0.561,0.854,0.074
19.373,-0.562,0.855,0.076
19.383,-0.561,0.854,0.072
19.393,-0.562,0.857,0.074
19.403,-0.561,0.852,0.074
19.413,-0.562,0.857,0.076
19.423,-0.561,0.859,0.076
19.433,-0.561,0.859,0.076
19.443,-0.559,0.855,0.076
19.453,-0.557,0.855,0.072
19.463,-0.559,0.857,0.076
19.473,-0.557,0.859,0.076
19.483,-0.559,0.861,0.076
19.493,-0.557,0.859,0.074
19.503,-0.555,0.861,0.072
19.512,-0.557,0.859,0.074
19.522,-0.555,0.859,0.078
19.532,-0.553,0.857,0.078
19.542,-0.555,0.855,0.078
19.552,-0.549,0.857,0.078
19.562,-0.557,0.857,0.076
19.572,-0.555,0.857,0.074
19.582,-0.559,0.855,0.074
19.592,-0.557,0.857,0.074
19.602,-0.559,0.857,0.078
19.612,-0.561,0.855,0.076
19.622,-0.561,0.857,0.074
19.632,-0.564,0.855,0.072
19.642,-0.562,0.857,0.074
19.651,-0.564,0.854,0.074
19.661,-0.564,0.855,0.072
19.671,-0.562,0.854,0.076
19.681,-0.562,0.854,0.076
19.691,-0.562,0.855,0.070
19.701,-0.564,0.854,0.076
19.711,-0.564,0.855,0.078
19.721,-0.562,0.855,0.074
19.731,-0.562,0.854,0.076
19.741,-0.562,0.854,0.074
19.751,-0.562,0.855,0.074
19.761,-0.561,0.854,0.074
19.771,-0.564,0.855,0.072
19.781,-0.564,0.855,0.076
19.790,-0.564,0.855,0.074
19.800,-0.562,0.854,0.076
19.810,-0.564,0.857,0.074
19.820,-0.564,0.855,0.078
19.830,-0.564,0.854,0.074
19.840,-0.564,0.852,0.076
19.850,-0.562,0.854,0.074
19.860,-0.564,0.848,0.076
19.870,-0.564,0.852,0.076
19.880,-0.566,0.854,0.074
19.890,-0.564,0.854,0.076
19.900,-0.564,0.852,0.078
19.910,-0.566,0.855,0.074
19.920,-0.564,0.852,0.078
19.929,-0.562,0.854,0.076
19.939,-0.564,0.857,0.076
19.949,-0.557,0.852,0.076
19.959,-0.559,0.854,0.076
19.969,-0.561,0.859,0.076
19.979,-0.557,0.855,0.076
19.989,-0.559,0.859,0.074
19.999,-0.559,0.857,0.070
20.009,-0.564,0.859,0.074
20.019,-0.564,0.859,0.076
20.029,-0.562,0.859,0.074
20.039,-0.564,0.859,0.070
20.049,-0.561,0.857,0.078
20.059,-0.561,0.857,0.072
20.068,-0.559,0.854,0.072
20.078,-0.557,0.857,0.074
20.088,-0.559,0.855,0.074
20.098,-0.555,0.855,0.074
20.108,-0.561,0.855,0.078
20.118,-0.557,0.855,0.070
20.128,-0.559,0.855,0.074
20.138,-0.559,0.859,0.072
20.148,-0.561,0.857,0.076
20.158,-0.557,0.859,0.076
20.168,-0.557,0.857,0.074
20.178,-0.557,0.857,0.074
20.188,-0.557,0.855,0.076
20.198,-0.557,0.855,0.074
20.207,-0.559,0.854,0.074
20.217,-0.559,0.854,0.076
20.227,-0.559,0.857,0.076
20.237,-0.561,0.859,0.078
20.247,-0.559,0.859,0.082
20.257,-0.559,0.859,0.078
20.267,-0.557,0.855,0.078
20.277,-0.557,0.857,0.076
20.287,-0.557,0.857,0.076
20.297,-0.559,0.859,0.076
20.307,-0.557,0.861,0.076
20.317,-0.555,0.859,0.078
20.327,-0.553,0.861,0.078
20.337,-0.559,0.857,0.076
20.346,-0.553,0.857,0.076
20.356,-0.555,0.857,0.078
20.366,-0.553,0.855,0.076
20.376,-0.553,0.854,0.078
20.386,-0.557,0.850,0.076
20.396,-0.557,0.854,0.076
20.406,-0.557,0.857,0.080
20.416,-0.555,0.859,0.082
20.426,-0.557,0.859,0.076
20.436,-0.559,0.859,0.080
20.446,-0.559,0.859,0.080
20.456,-0.559,0.859,0.078
20.466,-0.555,0.857,0.076
20.475,-0.559,0.857,0.078
20.485,-0.557,0.859,0.078
20.495,-0.557,0.859,0.076
20.505,-0.557,0.861,0.076
20.515,-0.559,0.865,0.072
20.525,-0.557,0.861,0.078
20.535,-0.557,0.859,0.078
20.545,-0.559,0.857,0.076
20.555,-0.561,0.859,0.076
20.565,-0.561,0.855,0.074
20.575,-0.559,0.857,0.078
20.585,-0.559,0.855,0.076
20.595,-0.561,0.855,0.076
20.605,-0.564,0.855,0.074
20.614,-0.562,0.855,0.072
20.624,-0.561,0.855,0.074
20.634,-0.561,0.859,0.076
20.644,-0.562,0.859,0.074
20.654,-0.559,0.854,0.074
20.664,-0.557,0.854,0.076
20.674,-0.555,0.855,0.074
20.684,-0.555,0.854,0.078
20.694,-0.555,0.857,0.078
20.704,-0.553,0.855,0.076
20.714,-0.555,0.857,0.074
20.724,-0.557,0.857,0.076
20.734,-0.559,0.857,0.074
20.744,-0.562,0.859,0.074
20.753,-0.562,0.859,0.070
20.763,-0.564,0.859,0.074
20.773,-0.564,0.859,0.072
20.783,-0.562,0.859,0.074
20.793,-0.561,0.857,0.074
20.803,-0.561,0.857,0.074
20.813,-0.557,0.854,0.074
20.823,-0.559,0.857,0.074
20.833,-0.559,0.854,0.074
20.843,-0.561,0.855,0.074
20.853,-0.557,0.857,0.074
20.863,-0.561,0.857,0.070
20.873,-0.562,0.859,0.068
20.883,-0.559,0.855,0.074
20.892,-0.559,0.859,0.076
20.902,-0.561,0.859,0.074
20.912,-0.559,0.859,0.070
20.922,-0.557,0.857,0.070
20.932,-0.559,0.855,0.072
20.942,-0.561,0.852,0.072
20.952,-0.561,0.855,0.076
20.962,-0.562,0.859,0.074
20.972,-0.561,0.859,0.076
20.982,-0.559,0.859,0.074
20.992,-0.559,0.861,0.072
21.002,-0.557,0.857,0.070
21.012,-0.559,0.855,0.074
21.022,-0.559,0.855,0.072
21.031,-0.561,0.857,0.072
21.041,-0.559,0.861,0.070
21.051,-0.561,0.859,0.074
21.061,-0.559,0.859,0.074
21.071,-0.557,0.855,0.070
21.081,-0.557,0.855,0.074
21.091,-0.557,0.855,0.074
21.101,-0.557,0.855,0.074
21.111,-0.553,0.855,0.072
21.121,-0.559,0.854,0.076
21.131,-0.557,0.857,0.074
21.141,-0.559,0.859,0.078
21.151,-0.561,0.857,0.076
21.161,-0.561,0.861,0.078
21.170,-0.559,0.859,0.074
21.180,-0.561,0.855,0.072
21.190,-0.559,0.854,0.072
21.200,-0.559,0.852,0.072
21.210,-0.561,0.855,0.076
21.220,-0.561,0.855,0.074
21.230,-0.561,0.859,0.074
21.240,-0.561,0.855,0.078
21.250,-0.559,0.855,0.076
21.260,-0.562,0.855,0.076
21.270,-0.564,0.857,0.076
21.280,-0.561,0.855,0.074
21.290,-0.561,0.855,0.072
21.300,-0.559,0.854,0.076
21.309,-0.562,0.855,0.076
21.319,-0.561,0.855,0.074
21.329,-0.559,0.855,0.074
21.339,-0.561,0.855,0.076
21.349,-0.561,0.857,0.074
21.359,-0.564,0.855,0.076
21.369,-0.562,0.857,0.074
21.379,-0.564,0.855,0.072
21.389,-0.562,0.859,0.076
21.399,-0.561,0.859,0.072
21.409,-0.561,0.857,0.078
21.419,-0.561,0.855,0.076
21.429,-0.559,0.854,0.076
21.439,-0.564,0.857,0.076
21.448,-0.561,0.854,0.074
21.458,-0.557,0.854,0.076
21.468,-0.559,0.857,0.076
21.478,-0.559,0.857,0.076
21.488,-0.555,0.852,0.078
21.498,-0.559,0.854,0.072
21.508,-0.564,0.857,0.072
21.518,-0.566,0.857,0.070
21.528,-0.566,0.857,0.076
21.538,-0.562,0.859,0.074
21.548,-0.564,0.861,0.074
21.558,-0.561,0.855,0.072
21.568,-0.562,0.854,0.072
21.578,-0.562,0.855,0.066
21.587,-0.564,0.854,0.068
21.597,-0.562,0.854,0.068
21.607,-0.564,0.854,0.070
21.617,-0.564,0.854,0.070
21.627,-0.561,0.857,0.072
21.637,-0.564,0.855,0.076
21.647,-0.564,0.855,0.070
21.657,-0.561,0.854,0.074
21.667,-0.562,0.855,0.074
21.677,-0.561,0.854,0.070
21.687,-0.559,0.854,0.070
21.697,-0.561,0.854,0.072
21.707,-0.562,0.854,0.070
21.716,-0.561,0.854,0.072
21.726,-0.562,0.852,0.072
21.736,-0.564,0.854,0.074
21.746,-0.564,0.859,0.072
21.756,-0.564,0.855,0.070
21.766,-0.561,0.854,0.066
21.776,-0.561,0.855,0.074
21.786,-0.559,0.854,0.076
21.796,-0.562,0.854,0.072
21.806,-0.562,0.855,0.072
21.816,-0.564,0.855,0.074
21.826,-0.559,0.857,0.076
21.836,-0.559,0.857,0.072
21.846,-0.559,0.857,0.072
21.855,-0.559,0.854,0.076
21.865,-0.561,0.854,0.074
21.875,-0.559,0.852,0.072
21.885,-0.559,0.859,0.074
21.895,-0.559,0.854,0.074
21.905,-0.557,0.855,0.072
21.915,-0.561,0.857,0.074
21.925,-0.562,0.859,0.076
21.935,-0.561,0.854,0.070
21.945,-0.562,0.857,0.074
21.955,-0.564,0.854,0.076
21.965,-0.566,0.855,0.068
21.975,-0.566,0.854,0.072
21.985,-0.562,0.854,0.070
21.994,-0.566,0.855,0.076
22.004,-0.568,0.855,0.072
22.014,-0.562,0.854,0.074
22.024,-0.562,0.855,0.074
22.034,-0.561,0.855,0.072
22.044,-0.562,0.855,0.072
22.054,-0.562,0.857,0.074
22.064,-0.564,0.857,0.074
22.074,-0.562,0.855,0.074
22.084,-0.561,0.857,0.076
22.094,-0.561,0.854,0.070
22.104,-0.562,0.857,0.074
22.114,-0.562,0.855,0.074
22.124,-0.559,0.855,0.072
22.133,-0.562,0.859,0.078
22.143,-0.562,0.855,0.070
22.153,-0.559,0.855,0.074
22.163,-0.559,0.854,0.074
22.173,-0.561,0.855,0.072
22.183,-0.561,0.854,0.074
22.193,-0.562,0.854,0.072
22.203,-0.562,0.855,0.072
22.213,-0.564,0.854,0.072
22.223,-0.562,0.855,0.074
22.233,-0.562,0.861,0.072
22.243,-0.564,0.854,0.070
22.253,-0.561,0.855,0.072
22.263,-0.562,0.857,0.076
22.272,-0.559,0.854,0.076
22.282,-0.557,0.854,0.072
22.292,-0.559,0.859,0.076
22.302,-0.559,0.857,0.076
22.312,-0.557,0.854,0.074
22.322,-0.559,0.855,0.072
22.332,-0.561,0.859,0.074
22.342,-0.566,0.857,0.074
22.352,-0.566,0.857,0.072
22.362,-0.564,0.857,0.068
22.372,-0.564,0.859,0.076
22.382,-0.562,0.855,0.072
22.392,-0.562,0.855,0.070
22.402,-0.562,0.855,0.072
22.411,-0.564,0.854,0.070
22.421,-0.564,0.850,0.070
22.431,-0.564,0.852,0.070
22.441,-0.564,0.854,0.072
22.451,-0.561,0.852,0.074
22.461,-0.561,0.855,0.074
22.471,-0.562,0.857,0.072
22.481,-0.562,0.855,0.072
22.491,-0.562,0.857,0.072
22.501,-0.561,0.859,0.076
22.511,-0.564,0.854,0.074
22.521,-0.561,0.854,0.074
22.531,-0.562,0.852,0.072
22.541,-0.564,0.855,0.070
22.550,-0.562,0.852,0.074
22.560,-0.562,0.859,0.070
22.570,-0.562,0.861,0.078
22.580,-0.559,0.857,0.074
22.590,-0.562,0.857,0.072
22.600,-0.561,0.857,0.072
22.610,-0.557,0.857,0.076
22.620,-0.561,0.857,0.070
22.630,-0.564,0.857,0.076
22.640,-0.561,0.855,0.076
22.650,-0.557,0.861,0.074
22.660,-0.555,0.861,0.078
22.670,-0.557,0.857,0.076
22.680,-0.555,0.861,0.076
22.689,-0.553,0.857,0.074
22.699,-0.555,0.854,0.076
22.709,-0.555,0.857,0.074
22.719,-0.555,0.855,0.074
22.729,-0.561,0.855,0.076
22.739,-0.559,0.854,0.074
22.749,-0.561,0.857,0.072
22.759,-0.564,0.857,0.074
22.769,-0.564,0.857,0.076
22.779,-0.562,0.857,0.072
22.789,-0.566,0.855,0.074
22.799,-0.562,0.852,0.074
22.809,-0.562,0.854,0.070
22.818,-0.559,0.850,0.072
22.828,-0.562,0.854,0.074
22.838,-0.561,0.855,0.070
22.848,-0.559,0.855,0.074
22.858,-0.561,0.854,0.074
22.868,-0.561,0.854,0.072
22.878,-0.559,0.855,0.074
22.888,-0.561,0.857,0.074
22.898,-0.562,0.854,0.074
22.908,-0.561,0.859,0.078
22.918,-0.562,0.859,0.074
22.928,-0.561,0.859,0.076
22.938,-0.561,0.861,0.076
22.948,-0.562,0.857,0.074
22.957,-0.562,0.855,0.072
22.967,-0.561,0.855,0.074
22.977,-0.561,0.855,0.074
22.987,-0.562,0.854,0.076
22.997,-0.561,0.854,0.070
23.007,-0.559,0.855,0.074
23.017,-0.559,0.854,0.072
23.027,-0.559,0.857,0.076
23.037,-0.557,0.855,0.076
23.047,-0.557,0.857,0.078
23.057,-0.553,0.859,0.076
23.067,-0.553,0.857,0.074
23.077,-0.551,0.857,0.076
23.087,-0.557,0.857,0.072
23.096,-0.559,0.857,0.074
23.106,-0.561,0.859,0.070
23.116,-0.564,0.859,0.074
23.126,-0.564,0.859,0.074
23.136,-0.559,0.863,0.072
23.146,-0.561,0.861,0.074
23.156,-0.561,0.857,0.072
23.166,-0.559,0.863,0.074
23.176,-0.557,0.855,0.072
23.186,-0.557,0.854,0.074
23.196,-0.557,0.854,0.072
23.206,-0.557,0.855,0.070
23.216,-0.557,0.855,0.072
23.226,-0.557,0.857,0.074
23.235,-0.553,0.859,0.076
23.245,-0.555,0.859,0.072
23.255,-0.559,0.859,0.074
23.265,-0.557,0.857,0.078
23.275,-0.557,0.859,0.074
23.285,-0.555,0.855,0.074
23.295,-0.561,0.854,0.074
23.305,-0.561,0.852,0.076
23.315,-0.562,0.855,0.074
23.325,-0.564,0.855,0.076
23.335,-0.562,0.855,0.074
23.345,-0.562,0.857,0.072
23.355,-0.561,0.859,0.074
23.365,-0.561,0.855,0.076
23.374,-0.559,0.855,0.078
23.384,-0.562,0.857,0.074
23.394,-0.559,0.857,0.078
23.404,-0.559,0.859,0.074
23.414,-0.561,0.855,0.078
23.424,-0.559,0.857,0.076
23.434,-0.559,0.857,0.076
23.444,-0.559,0.859,0.074
23.454,-0.559,0.855,0.072
23.464,-0.559,0.855,0.072
23.474,-0.559,0.855,0.074
23.484,-0.561,0.855,0.074
23.494,-0.561,0.855,0.074
23.504,-0.561,0.857,0.076
23.513,-0.559,0.855,0.076
23.523,-0.562,0.855,0.074
23.533,-0.562,0.855,0.072
23.543,-0.562,0.857,0.072
23.553,-0.564,0.857,0.072
23.563,-0.564,0.855,0.072
23.573,-0.562,0.855,0.074
23.583,-0.562,0.857,0.074
23.593,-0.559,0.854,0.072
23.603,-0.559,0.859,0.074
23.613,-0.559,0.857,0.072
23.623,-0.562,0.861,0.074
23.633,-0.559,0.859,0.074
23.643,-0.561,0.857,0.074
23.652,-0.561,0.855,0.072
23.662,-0.562,0.855,0.072
23.672,-0.561,0.855,0.070
23.682,-0.562,0.854,0.072
23.692,-0.562,0.854,0.070
23.702,-0.562,0.854,0.072
23.712,-0.566,0.854,0.070
23.722,-0.568,0.855,0.072
23.732,-0.564,0.854,0.070
23.742,-0.564,0.854,0.074
23.752,-0.561,0.854,0.072
23.762,-0.559,0.854,0.072
23.772,-0.559,0.855,0.074
23.782,-0.561,0.854,0.072
23.791,-0.561,0.850,0.074
23.801,-0.555,0.855,0.074
23.811,-0.553,0.857,0.072
23.821,-0.551,0.855,0.068
23.831,-0.555,0.854,0.070
23.841,-0.561,0.855,0.070
23.851,-0.564,0.857,0.068
23.861,-0.564,0.861,0.074
23.871,-0.564,0.861,0.070
23.881,-0.564,0.861,0.070
23.891,-0.562,0.857,0.068
23.901,-0.566,0.857,0.068
23.911,-0.562,0.857,0.066
23.921,-0.561,0.855,0.068
23.930,-0.559,0.857,0.068
23.940,-0.559,0.855,0.070
23.950,-0.559,0.855,0.070
23.960,-0.559,0.857,0.070
23.970,-0.557,0.857,0.070
23.980,-0.557,0.859,0.072
23.990,-0.559,0.859,0.066
24.000,-0.559,0.859,0.070
24.010,-0.559,0.859,0.070
24.020,-0.559,0.859,0.070
24.030,-0.557,0.859,0.072
24.040,-0.559,0.855,0.068
24.050,-0.559,0.854,0.070
24.059,-0.564,0.855,0.070
24.069,-0.559,0.857,0.070
24.079,-0.564,0.859,0.070
24.089,-0.562,0.859,0.072
24.099,-0.561,0.857,0.072
24.109,-0.553,0.857,0.068
24.119,-0.557,0.855,0.072
24.129,-0.559,0.855,0.070
24.139,-0.559,0.857,0.068
24.149,-0.561,0.857,0.072
24.159,-0.559,0.857,0.072
24.169,-0.559,0.857,0.070
24.179,-0.559,0.857,0.072
24.189,-0.559,0.855,0.072
24.198,-0.559,0.855,0.072
24.208,-0.557,0.857,0.070
24.218,-0.561,0.859,0.072
24.228,-0.559,0.855,0.070
24.238,-0.559,0.855,0.074
24.248,-0.559,0.852,0.072
24.258,-0.557,0.857,0.070
24.268,-0.557,0.859,0.072
24.278,-0.561,0.857,0.070
24.288,-0.561,0.854,0.072
24.298,-0.562,0.857,0.068
24.308,-0.561,0.859,0.070
24.318,-0.562,0.859,0.074
24.328,-0.564,0.855,0.070
24.337,-0.561,0.857,0.070
24.347,-0.559,0.857,0.074
24.357,-0.561,0.857,0.072
24.367,-0.559,0.855,0.070
24.377,-0.561,0.857,0.072
24.387,-0.562,0.857,0.074
24.397,-0.559,0.857,0.072
24.407,-0.561,0.854,0.070
24.417,-0.564,0.855,0.074
24.427,-0.564,0.854,0.076
24.437,-0.566,0.854,0.074
24.447,-0.566,0.854,0.070
24.457,-0.566,0.854,0.072
24.467,-0.564,0.852,0.072
24.476,-0.564,0.854,0.072
24.486,-0.562,0.854,0.070
24.496,-0.566,0.857,0.072
24.506,-0.566,0.854,0.074
24.516,-0.564,0.855,0.072
24.526,-0.561,0.854,0.072
24.536,-0.559,0.854,0.072
24.546,-0.562,0.855,0.072
24.556,-0.561,0.854,0.074
24.566,-0.557,0.855,0.074
24.576,-0.559,0.859,0.072
24.586,-0.557,0.859,0.072
24.596,-0.557,0.854,0.076
24.606,-0.557,0.857,0.072
24.615,-0.561,0.855,0.074
24.625,-0.562,0.855,0.070
24.635,-0.562,0.861,0.072
24.645,-0.564,0.863,0.074
24.655,-0.564,0.855,0.068
24.665,-0.562,0.859,0.070
24.675,-0.562,0.857,0.072
24.685,-0.562,0.854,0.068
24.695,-0.564,0.857,0.070
24.705,-0.564,0.855,0.070
24.715,-0.561,0.857,0.068
24.725,-0.561,0.855,0.068
24.735,-0.561,0.857,0.068
24.745,-0.562,0.857,0.068
24.754,-0.561,0.857,0.070
24.764,-0.561,0.857,0.072
24.774,-0.559,0.859,0.074
24.784,-0.561,0.855,0.072
24.794,-0.559,0.855,0.072
24.804,-0.562,0.855,0.074
24.814,-0.562,0.854,0.070
24.824,-0.564,0.855,0.068
24.834,-0.566,0.855,0.070
24.844,-0.564,0.857,0.070
24.854,-0.570,0.857,0.068
24.864,-0.566,0.857,0.070
24.874,-0.561,0.855,0.068
24.884,-0.561,0.852,0.070
24.893,-0.561,0.854,0.070
24.903,-0.562,0.859,0.070
24.913,-0.564,0.859,0.070
24.923,-0.561,0.855,0.072
24.933,-0.557,0.859,0.070
24.943,-0.557,0.859,0.072
24.953,-0.557,0.857,0.072
24.963,-0.557,0.855,0.072
24.973,-0.559,0.854,0.072
24.983,-0.559,0.854,0.066
24.993,-0.559,0.854,0.066
25.003,-0.562,0.855,0.068
25.013,-0.562,0.855,0.072
25.023,-0.564,0.857,0.070
25.032,-0.564,0.855,0.068
25.042,-0.562,0.857,0.064
25.052,-0.564,0.855,0.068
25.062,-0.566,0.855,0.068
25.072,-0.566,0.855,0.068
25.082,-0.564,0.855,0.068
25.092,-0.562,0.855,0.066
25.102,-0.561,0.859,0.066
25.112,-0.562,0.857,0.066
25.122,-0.562,0.854,0.070
25.132,-0.564,0.857,0.068
25.142,-0.562,0.859,0.068
25.152,-0.562,0.855,0.072
25.161,-0.561,0.855,0.068
25.171,-0.561,0.855,0.072
25.181,-0.561,0.855,0.072
25.191,-0.559,0.857,0.074
25.201,-0.561,0.854,0.072
25.211,-0.561,0.854,0.072
25.221,-0.562,0.855,0.072
25.231,-0.562,0.854,0.072
25.241,-0.564,0.852,0.072
25.251,-0.564,0.855,0.072
25.261,-0.564,0.855,0.072
25.271,-0.564,0.859,0.068
25.281,-0.564,0.857,0.076
25.291,-0.562,0.855,0.070
25.300,-0.561,0.854,0.074
25.310,-0.557,0.855,0.068
25.320,-0.559,0.859,0.074
25.330,-0.555,0.854,0.072
25.340,-0.555,0.857,0.074
25.350,-0.553,0.859,0.074
25.360,-0.557,0.857,0.074
25.370,-0.555,0.857,0.072
25.380,-0.561,0.859,0.072
25.390,-0.561,0.861,0.070
25.400,-0.562,0.857,0.072
25.410,-0.561,0.859,0.072
25.420,-0.562,0.859,0.072
25.430,-0.564,0.861,0.072
25.439,-0.559,0.859,0.072
25.449,-0.557,0.857,0.072
25.459,-0.561,0.859,0.068
25.469,-0.559,0.857,0.072
25.479,-0.557,0.855,0.072
25.489,-0.561,0.855,0.072
25.499,-0.559,0.855,0.070
25.509,-0.561,0.854,0.074
25.519,-0.559,0.857,0.070
25.529,-0.559,0.857,0.072
25.539,-0.559,0.859,0.074
25.549,-0.559,0.857,0.072
25.559,-0.557,0.859,0.074
25.569,-0.557,0.855,0.072
25.578,-0.557,0.855,0.070
25.588,-0.557,0.855,0.072
25.598,-0.559,0.855,0.074
25.608,-0.557,0.855,0.074
25.618,-0.559,0.859,0.078
25.628,-0.555,0.861,0.074
25.638,-0.557,0.859,0.074
25.648,-0.557,0.859,0.070
25.658,-0.557,0.859,0.072
25.668,-0.557,0.859,0.072
25.678,-0.559,0.863,0.072
25.688,-0.559,0.859,0.070
25.698,-0.559,0.861,0.074
25.708,-0.559,0.861,0.072
25.717,-0.557,0.855,0.070
25.727,-0.557,0.855,0.072
25.737,-0.559,0.857,0.072
25.747,-0.557,0.855,0.070
25.757,-0.555,0.857,0.074
25.767,-0.555,0.855,0.070
25.777,-0.555,0.857,0.074
25.787,-0.559,0.855,0.072
25.797,-0.559,0.859,0.074
25.807,-0.557,0.859,0.072
25.817,-0.559,0.859,0.074
25.827,-0.561,0.855,0.070
25.837,-0.561,0.855,0.072
25.847,-0.562,0.855,0.074
25.856,-0.561,0.855,0.070
25.866,-0.561,0.855,0.070
25.876,-0.562,0.855,0.074
25.886,-0.559,0.857,0.072
25.896,-0.561,0.855,0.072
25.906,-0.559,0.857,0.072
25.916,-0.562,0.855,0.074
25.926,-0.561,0.855,0.072
25.936,-0.561,0.854,0.074
25.946,-0.562,0.854,0.072
25.956,-0.564,0.855,0.070
25.966,-0.564,0.859,0.072
25.976,-0.564,0.855,0.072
25.986,-0.566,0.857,0.068
25.995,-0.564,0.857,0.072
26.005,-0.561,0.854,0.070
26.015,-0.564,0.855,0.070
26.025,-0.562,0.855,0.070
26.035,-0.559,0.854,0.072
26.045,-0.559,0.855,0.074
26.055,-0.561,0.859,0.072
26.065,-0.561,0.852,0.070
26.075,-0.553,0.854,0.074
26.085,-0.561,0.855,0.070
26.095,-0.562,0.854,0.068
26.105,-0.566,0.855,0.072
26.115,-0.566,0.859,0.070
26.125,-0.568,0.859,0.070
26.134,-0.564,0.857,0.068
26.144,-0.562,0.855,0.070
26.154,-0.561,0.855,0.070
26.164,-0.562,0.854,0.072
26.174,-0.559,0.854,0.070
26.184,-0.559,0.854,0.070
26.194,-0.562,0.855,0.072
26.204,-0.561,0.857,0.068
26.214,-0.562,0.854,0.070
26.224,-0.561,0.854,0.070
26.234,-0.561,0.859,0.068
26.244,-0.562,0.857,0.070
26.254,-0.561,0.857,0.074
26.264,-0.561,0.859,0.070
26.273,-0.559,0.857,0.070
26.283,-0.561,0.855,0.070
26.293,-0.561,0.857,0.070
26.303,-0.562,0.855,0.070
26.313,-0.559,0.857,0.068
26.323,-0.562,0.859,0.072
26.333,-0.561,0.859,0.072
26.343,-0.559,0.859,0.072
26.353,-0.561,0.859,0.072
26.363,-0.557,0.857,0.070
26.373,-0.559,0.855,0.072
26.383,-0.559,0.855,0.074
26.393,-0.562,0.857,0.072
26.402,-0.561,0.859,0.074
26.412,-0.559,0.857,0.072
26.422,-0.559,0.854,0.072
26.432,-0.561,0.857,0.068
26.442,-0.559,0.855,0.070
26.452,-0.561,0.854,0.074
26.462,-0.559,0.854,0.072
26.472,-0.562,0.854,0.068
26.482,-0.559,0.854,0.072
26.492,-0.559,0.852,0.070
26.502,-0.561,0.857,0.072
26.512,-0.564,0.857,0.068
26.522,-0.562,0.854,0.072
26.532,-0.562,0.855,0.070
26.541,-0.562,0.857,0.068
26.551,-0.564,0.855,0.066
26.561,-0.564,0.855,0.066
26.571,-0.564,0.855,0.066
26.581,-0.562,0.855,0.070
26.591,-0.566,0.857,0.070
26.601,-0.562,0.857,0.068
26.611,-0.562,0.854,0.070
26.621,-0.564,0.855,0.070
26.631,-0.562,0.855,0.068
26.641,-0.564,0.855,0.072
26.651,-0.562,0.855,0.066
26.661,-0.566,0.855,0.070
26.671,-0.564,0.852,0.068
26.680,-0.566,0.855,0.072
26.690,-0.562,0.852,0.072
26.700,-0.568,0.852,0.070
26.710,-0.564,0.852,0.070
26.720,-0.566,0.850,0.070
26.730,-0.566,0.852,0.070
26.740,-0.568,0.852,0.072
26.750,-0.570,0.854,0.070
26.760,-0.570,0.854,0.072
26.770,-0.564,0.850,0.074
26.780,-0.568,0.854,0.072
26.790,-0.566,0.854,0.074
26.800,-0.559,0.852,0.072
26.810,-0.562,0.854,0.072
26.819,-0.561,0.855,0.074
26.829,-0.562,0.854,0.072
26.839,-0.561,0.850,0.074
26.849,-0.562,0.854,0.070
26.859,-0.566,0.857,0.072
26.869,-0.566,0.854,0.070
26.879,-0.566,0.859,0.072
26.889,-0.570,0.857,0.074
26.899,-0.564,0.855,0.072
26.909,-0.568,0.854,0.070
26.919,-0.566,0.854,0.070
26.929,-0.566,0.854,0.068
26.939,-0.566,0.854,0.068
26.949,-0.564,0.855,0.068
26.958,-0.562,0.855,0.070
26.968,-0.564,0.855,0.070
26.978,-0.562,0.854,0.068
26.988,-0.561,0.855,0.072
26.998,-0.562,0.854,0.072
27.008,-0.561,0.859,0.070
27.018,-0.561,0.855,0.070
27.028,-0.562,0.857,0.072
27.038,-0.562,0.854,0.072
27.048,-0.559,0.855,0.068
27.058,-0.559,0.855,0.068
27.068,-0.562,0.855,0.066
27.078,-0.561,0.855,0.072
27.088,-0.562,0.857,0.068
27.097,-0.561,0.859,0.074
27.107,-0.564,0.855,0.068
27.117,-0.561,0.855,0.070
27.127,-0.561,0.855,0.070
27.137,-0.564,0.855,0.066
27.147,-0.562,0.857,0.072
27.157,-0.562,0.855,0.072
27.167,-0.561,0.857,0.068
27.177,-0.561,0.855,0.068
27.187,-0.559,0.855,0.072
27.197,-0.561,0.859,0.070
27.207,-0.562,0.857,0.070
27.217,-0.559,0.855,0.074
27.227,-0.561,0.855,0.068
27.236,-0.564,0.854,0.072
27.246,-0.561,0.857,0.072
27.256,-0.557,0.854,0.070
27.266,-0.561,0.854,0.072
27.276,-0.562,0.855,0.070
27.286,-0.562,0.854,0.070
27.296,-0.562,0.852,0.070
27.306,-0.562,0.857,0.070
27.316,-0.564,0.855,0.070
27.326,-0.564,0.854,0.068
27.336,-0.564,0.855,0.066
27.346,-0.562,0.855,0.070
27.356,-0.562,0.854,0.066
27.366,-0.562,0.852,0.064
27.375,-0.561,0.854,0.070
27.385,-0.562,0.855,0.068
27.395,-0.561,0.857,0.066
27.405,-0.564,0.857,0.066
27.415,-0.561,0.859,0.068
27.425,-0.562,0.859,0.066
27.435,-0.564,0.855,0.070
27.445,-0.564,0.855,0.068
27.455,-0.566,0.855,0.068
27.465,-0.566,0.854,0.068
27.475,-0.566,0.855,0.070
27.485,-0.564,0.852,0.068
27.495,-0.566,0.854,0.070
27.504,-0.562,0.854,0.072
27.514,-0.566,0.850,0.068
27.524,-0.566,0.852,0.070
27.534,-0.566,0.854,0.068
27.544,-0.566,0.854,0.068
27.554,-0.566,0.852,0.070
27.564,-0.566,0.855,0.068
27.574,-0.568,0.852,0.068
27.584,-0.564,0.855,0.070
27.594,-0.562,0.850,0.072
27.604,-0.566,0.852,0.070
27.614,-0.568,0.854,0.074
27.624,-0.566,0.852,0.072
27.634,-0.562,0.854,0.074
27.643,-0.566,0.857,0.072
27.653,-0.561,0.855,0.070
27.663,-0.561,0.855,0.068
27.673,-0.566,0.854,0.068
27.683,-0.564,0.854,0.072
27.693,-0.566,0.857,0.068
27.703,-0.570,0.859,0.068
27.713,-0.568,0.857,0.072
27.723,-0.564,0.859,0.068
27.733,-0.561,0.855,0.068
27.743,-0.562,0.855,0.068
27.753,-0.564,0.855,0.066
27.763,-0.564,0.852,0.068
27.773,-0.564,0.854,0.066
27.782,-0.564,0.852,0.064
27.792,-0.564,0.857,0.068
27.802,-0.562,0.857,0.068
27.812,-0.564,0.857,0.068
27.822,-0.564,0.857,0.072
27.832,-0.561,0.857,0.070
27.842,-0.561,0.855,0.070
27.852,-0.562,0.857,0.066
27.862,-0.562,0.855,0.068
27.872,-0.562,0.852,0.068
27.882,-0.561,0.854,0.068
27.892,-0.564,0.855,0.070
27.902,-0.562,0.854,0.070
27.912,-0.561,0.857,0.068
27.921,-0.562,0.857,0.070
27.931,-0.559,0.857,0.068
27.941,-0.557,0.854,0.070
27.951,-0.559,0.855,0.068
27.961,-0.561,0.855,0.066
27.971,-0.557,0.855,0.070
27.981,-0.562,0.861,0.070
27.991,-0.561,0.859,0.070
28.001,-0.561,0.857,0.070
28.011,-0.561,0.859,0.068
28.021,-0.562,0.855,0.068
28.031,-0.561,0.857,0.070
28.041,-0.559,0.854,0.068
28.051,-0.559,0.855,0.066
28.060,-0.561,0.854,0.070
28.070,-0.562,0.854,0.068
28.080,-0.559,0.854,0.072
28.090,-0.561,0.855,0.070
28.100,-0.562,0.857,0.068
28.110,-0.564,0.857,0.072
28.120,-0.562,0.857,0.068
28.130,-0.566,0.857,0.068
28.140,-0.564,0.857,0.070
28.150,-0.564,0.857,0.068
28.160,-0.564,0.852,0.068
28.170,-0.564,0.854,0.070
28.180,-0.564,0.857,0.066
28.190,-0.561,0.857,0.068
28.199,-0.561,0.857,0.072
28.209,-0.561,0.857,0.070
28.219,-0.562,0.854,0.072
28.229,-0.559,0.857,0.070
28.239,-0.561,0.857,0.066
28.249,-0.561,0.855,0.070
28.259,-0.557,0.857,0.074
28.269,-0.564,0.854,0.070
28.279,-0.561,0.855,0.074
28.289,-0.559,0.855,0.068
28.299,-0.561,0.855,0.072
28.309,-0.564,0.857,0.072
28.319,-0.562,0.861,0.076
28.329,-0.564,0.859,0.072
28.338,-0.562,0.857,0.070
28.348,-0.562,0.857,0.072
28.358,-0.559,0.855,0.068
28.368,-0.562,0.855,0.070
28.378,-0.557,0.855,0.070
28.388,-0.555,0.854,0.074
28.398,-0.561,0.859,0.070
28.408,-0.557,0.857,0.072
28.418,-0.555,0.859,0.070
28.428,-0.559,0.857,0.070
28.438,-0.561,0.857,0.068
28.448,-0.561,0.857,0.068
28.458,-0.562,0.859,0.070
28.468,-0.564,0.859,0.070
28.477,-0.561,0.861,0.072
28.487,-0.559,0.859,0.068
28.497,-0.557,0.857,0.068
28.507,-0.557,0.855,0.068
28.517,-0.557,0.857,0.070
28.527,-0.557,0.857,0.068
28.537,-0.561,0.855,0.070
28.547,-0.562,0.857,0.068
28.557,-0.562,0.855,0.074
28.567,-0.564,0.857,0.072
28.577,-0.562,0.857,0.072
28.587,-0.562,0.857,0.070
28.597,-0.562,0.861,0.070
28.607,-0.561,0.859,0.072
28.616,-0.562,0.859,0.070
28.626,-0.559,0.855,0.070
28.636,-0.561,0.855,0.070
28.646,-0.564,0.857,0.070
28.656,-0.559,0.854,0.072
28.666,-0.561,0.855,0.072
28.676,-0.561,0.859,0.076
28.686,-0.561,0.855,0.070
28.696,-0.559,0.857,0.068
28.706,-0.559,0.854,0.068
28.716,-0.561,0.857,0.072
28.726,-0.561,0.855,0.072
28.736,-0.559,0.857,0.072
28.745,-0.562,0.861,0.074
28.755,-0.561,0.863,0.072
28.765,-0.562,0.861,0.074
28.775,-0.557,0.859,0.072
28.785,-0.557,0.857,0.070
28.795,-0.557,0.854,0.072
28.805,-0.557,0.855,0.070
28.815,-0.559,0.850,0.074
28.825,-0.557,0.857,0.072
28.835,-0.561,0.857,0.074
28.845,-0.557,0.857,0.070
28.855,-0.559,0.861,0.074
28.865,-0.559,0.859,0.074
28.875,-0.559,0.855,0.072
28.884,-0.559,0.857,0.068
28.894,-0.562,0.855,0.072
28.904,-0.561,0.854,0.072
28.914,-0.562,0.855,0.074
28.924,-0.562,0.854,0.072
28.934,-0.562,0.855,0.074
28.944,-0.562,0.855,0.070
28.954,-0.562,0.855,0.072
28.964,-0.562,0.855,0.074
28.974,-0.564,0.855,0.072
28.984,-0.561,0.857,0.074
28.994,-0.562,0.857,0.076
29.004,-0.564,0.859,0.074
29.014,-0.562,0.855,0.072
29.023,-0.562,0.854,0.074
29.033,-0.562,0.855,0.074
29.043,-0.562,0.854,0.074
29.053,-0.564,0.854,0.076
29.063,-0.564,0.857,0.074
29.073,-0.564,0.857,0.074
29.083,-0.562,0.855,0.072
29.093,-0.562,0.857,0.072
29.103,-0.561,0.854,0.072
29.113,-0.564,0.857,0.070
29.123,-0.559,0.854,0.072
29.133,-0.557,0.854,0.074
29.143,-0.559,0.857,0.076
29.153,-0.557,0.855,0.074
29.162,-0.553,0.852,0.074
29.172,-0.559,0.854,0.074
29.182,-0.559,0.855,0.070
29.192,-0.561,0.859,0.072
29.202,-0.564,0.857,0.070
29.212,-0.564,0.863,0.068
29.222,-0.564,0.857,0.074
29.232,-0.564,0.859,0.066
29.242,-0.564,0.859,0.070
29.252,-0.566,0.855,0.068
29.262,-0.564,0.855,0.068
29.272,-0.561,0.854,0.066
29.282,-0.562,0.854,0.070
29.292,-0.561,0.854,0.070
29.301,-0.559,0.855,0.068
29.311,-0.562,0.859,0.068
29.321,-0.561,0.859,0.074
29.331,-0.562,0.857,0.068
29.341,-0.562,0.857,0.072
29.351,-0.561,0.857,0.072
29.361,-0.562,0.857,0.072
29.371,-0.559,0.857,0.072
29.381,-0.559,0.857,0.070
29.391,-0.564,0.857,0.068
29.401,-0.561,0.852,0.070
29.411,-0.562,0.855,0.072
29.421,-0.561,0.857,0.070
29.431,-0.562,0.859,0.072
29.440,-0.562,0.855,0.070
29.450,-0.561,0.854,0.068
29.460,-0.564,0.854,0.068
29.470,-0.562,0.857,0.066
29.480,-0.562,0.859,0.070
29.490,-0.562,0.857,0.068
29.500,-0.559,0.857,0.072
29.510,-0.561,0.859,0.074
29.520,-0.559,0.854,0.070
29.530,-0.559,0.857,0.068
29.540,-0.561,0.855,0.068
29.550,-0.561,0.855,0.068
29.560,-0.561,0.854,0.072
29.570,-0.561,0.854,0.070
29.579,-0.561,0.855,0.066
29.589,-0.561,0.857,0.070
29.599,-0.561,0.855,0.066
29.609,-0.561,0.857,0.070
29.619,-0.561,0.857,0.064
29.629,-0.564,0.857,0.064
29.639,-0.562,0.857,0.066
29.649,-0.564,0.857,0.068
29.659,-0.566,0.855,0.068
29.669,-0.566,0.855,0.070
29.679,-0.561,0.857,0.070
29.689,-0.559,0.854,0.072
29.699,-0.562,0.854,0.068
29.709,-0.561,0.855,0.072
29.718,-0.562,0.855,0.070
29.728,-0.564,0.855,0.070
29.738,-0.562,0.857,0.072
29.748,-0.566,0.857,0.072
29.758,-0.564,0.854,0.072
29.768,-0.564,0.852,0.072
29.778,-0.568,0.855,0.072
29.788,-0.566,0.854,0.074
29.798,-0.562,0.854,0.072
29.808,-0.562,0.852,0.072
29.818,-0.564,0.852,0.074
29.828,-0.564,0.854,0.072
29.838,-0.566,0.857,0.070
29.848,-0.564,0.852,0.074
29.857,-0.564,0.855,0.076
29.867,-0.566,0.855,0.074
29.877,-0.566,0.855,0.070
29.887,-0.562,0.852,0.074
29.897,-0.566,0.854,0.074
29.907,-0.566,0.852,0.076
29.917,-0.561,0.852,0.076
29.927,-0.566,0.855,0.076
29.937,-0.562,0.855,0.078
29.947,-0.559,0.852,0.074
29.957,-0.562,0.854,0.072
29.967,-0.566,0.855,0.072
29.977,-0.568,0.855,0.076
29.986,-0.570,0.859,0.070
29.996,-0.566,0.859,0.068
30.006,-0.564,0.857,0.072
30.016,-0.566,0.854,0.074
30.026,-0.561,0.854,0.070
30.036,-0.562,0.857,0.068
30.046,-0.562,0.854,0.072
30.056,-0.561,0.855,0.072
30.066,-0.562,0.854,0.068
30.076,-0.562,0.857,0.068
30.086,-0.561,0.855,0.074
30.096,-0.561,0.855,0.070
30.106,-0.562,0.857,0.072
30.116,-0.562,0.857,0.070
30.125,-0.561,0.857,0.068
30.135,-0.561,0.855,0.070
30.145,-0.562,0.857,0.072
30.155,-0.561,0.852,0.070
30.165,-0.561,0.854,0.068
30.175,-0.562,0.854,0.068
30.185,-0.564,0.854,0.068
30.195,-0.564,0.855,0.070
30.205,-0.562,0.857,0.070
30.215,-0.562,0.857,0.070
30.225,-0.561,0.857,0.072
30.235,-0.559,0.857,0.066
30.245,-0.561,0.859,0.070
30.255,-0.562,0.857,0.072
30.264,-0.561,0.859,0.070
30.274,-0.559,0.861,0.070
30.284,-0.559,0.861,0.070
30.294,-0.557,0.859,0.070
30.304,-0.555,0.859,0.070
30.314,-0.555,0.857,0.072
30.324,-0.557,0.855,0.070
30.334,-0.559,0.857,0.070
30.344,-0.557,0.857,0.070
30.354,-0.557,0.859,0.070
30.364,-0.557,0.855,0.074
30.374,-0.559,0.854,0.070
30.384,-0.561,0.855,0.070
30.394,-0.561,0.857,0.072
30.403,-0.562,0.857,0.070
30.413,-0.566,0.857,0.074
30.423,-0.564,0.855,0.070
30.433,-0.566,0.857,0.070
30.443,-0.566,0.854,0.068
30.453,-0.564,0.855,0.068
30.463,-0.561,0.854,0.070
30.473,-0.561,0.852,0.072
30.483,-0.566,0.859,0.072
30.493,-0.562,0.855,0.072
30.503,-0.562,0.857,0.070
30.513,-0.561,0.857,0.072
30.523,-0.561,0.855,0.076
30.533,-0.561,0.857,0.072
30.542,-0.561,0.855,0.070
30.552,-0.562,0.855,0.074
30.562,-0.564,0.855,0.074
30.572,-0.562,0.857,0.072
30.582,-0.566,0.854,0.068
30.592,-0.564,0.859,0.072
30.602,-0.566,0.857,0.074
30.612,-0.564,0.859,0.072
30.622,-0.561,0.855,0.074
30.632,-0.557,0.854,0.074
30.642,-0.559,0.855,0.074
30.652,-0.559,0.854,0.074
30.662,-0.551,0.854,0.074
30.672,-0.555,0.859,0.074
30.681,-0.557,0.859,0.076
30.691,-0.555,0.855,0.074
30.701,-0.557,0.861,0.074
30.711,-0.557,0.859,0.070
30.721,-0.562,0.857,0.070
30.731,-0.564,0.859,0.070
30.741,-0.562,0.859,0.076
30.751,-0.561,0.861,0.072
30.761,-0.561,0.859,0.076
30.771,-0.559,0.859,0.072
30.781,-0.564,0.861,0.072
30.791,-0.559,0.859,0.072
30.801,-0.559,0.855,0.072
30.811,-0.559,0.855,0.070
30.820,-0.557,0.855,0.070
30.830,-0.561,0.857,0.072
30.840,-0.559,0.857,0.072
30.850,-0.559,0.857,0.078
30.860,-0.559,0.857,0.074
30.870,-0.559,0.859,0.074
30.880,-0.561,0.855,0.076
30.890,-0.562,0.859,0.074
30.900,-0.561,0.855,0.078
30.910,-0.562,0.855,0.072
30.920,-0.562,0.855,0.070
30.930,-0.561,0.852,0.072
30.940,-0.564,0.854,0.076
30.950,-0.561,0.857,0.072
30.959,-0.562,0.859,0.074
30.969,-0.561,0.854,0.072
30.979,-0.561,0.852,0.070
30.989,-0.561,0.854,0.074
30.999,-0.562,0.855,0.074
31.009,-0.564,0.857,0.074
31.019,-0.562,0.855,0.072
31.029,-0.561,0.857,0.072
31.039,-0.564,0.855,0.070
31.049,-0.561,0.855,0.072
31.059,-0.562,0.855,0.072
31.069,-0.562,0.854,0.070
31.079,-0.561,0.854,0.070
31.088,-0.562,0.854,0.068
31.098,-0.562,0.854,0.070
31.108,-0.561,0.857,0.072
31.118,-0.562,0.855,0.070
31.128,-0.564,0.855,0.074
31.138,-0.564,0.857,0.072
31.148,-0.564,0.859,0.072
31.158,-0.562,0.857,0.072
31.168,-0.564,0.859,0.070
31.178,-0.562,0.857,0.070
31.188,-0.564,0.855,0.070
31.198,-0.562,0.854,0.072
31.208,-0.561,0.855,0.068
31.218,-0.562,0.857,0.072
31.227,-0.555,0.857,0.068
31.237,-0.559,0.861,0.070
31.247,-0.564,0.859,0.070
31.257,-0.561,0.859,0.070
31.267,-0.562,0.857,0.070
31.277,-0.561,0.857,0.070
31.287,-0.562,0.854,0.070
31.297,-0.564,0.855,0.070
31.307,-0.562,0.854,0.070
31.317,-0.566,0.857,0.072
31.327,-0.566,0.855,0.072
31.337,-0.566,0.855,0.072
31.347,-0.566,0.855,0.068
31.357,-0.562,0.855,0.072
31.366,-0.566,0.855,0.074
31.376,-0.562,0.855,0.074
31.386,-0.559,0.855,0.072
31.396,-0.562,0.857,0.074
31.406,-0.561,0.859,0.074
31.416,-0.557,0.855,0.076
31.426,-0.561,0.855,0.072
31.436,-0.562,0.854,0.070
31.446,-0.562,0.854,0.072
31.456,-0.566,0.855,0.070
31.466,-0.566,0.855,0.072
31.476,-0.566,0.855,0.078
31.486,-0.564,0.857,0.076
31.496,-0.564,0.854,0.074
31.505,-0.564,0.854,0.076
31.515,-0.562,0.854,0.072
31.525,-0.564,0.852,0.074
31.535,-0.566,0.850,0.070
31.545,-0.566,0.852,0.074
31.555,-0.564,0.854,0.074
31.565,-0.564,0.852,0.072
31.575,-0.568,0.854,0.070
31.585,-0.562,0.857,0.072
31.595,-0.564,0.854,0.072
31.605,-0.564,0.855,0.072
31.615,-0.566,0.854,0.068
31.625,-0.562,0.855,0.072
31.635,-0.566,0.852,0.072
31.644,-0.566,0.854,0.072
31.654,-0.564,0.852,0.074
31.664,-0.564,0.857,0.076
31.674,-0.564,0.857,0.074
31.684,-0.559,0.857,0.072
31.694,-0.561,0.857,0.072
31.704,-0.557,0.854,0.072
31.714,-0.562,0.855,0.070
31.724,-0.561,0.857,0.074
31.734,-0.562,0.859,0.072
31.744,-0.561,0.859,0.072
31.754,-0.559,0.861,0.072
31.764,-0.557,0.859,0.074
31.774,-0.559,0.859,0.072
31.783,-0.561,0.857,0.072
31.793,-0.557,0.855,0.070
31.803,-0.557,0.855,0.070
31.813,-0.555,0.859,0.070
31.823,-0.557,0.852,0.070
31.833,-0.557,0.855,0.068
31.843,-0.559,0.857,0.072
31.853,-0.561,0.857,0.070
31.863,-0.559,0.857,0.068
31.873,-0.559,0.855,0.070
31.883,-0.562,0.857,0.068
31.893,-0.564,0.857,0.066
31.903,-0.564,0.859,0.066
31.913,-0.562,0.855,0.066
31.922,-0.564,0.855,0.070
31.932,-0.564,0.855,0.068
31.942,-0.564,0.857,0.068
31.952,-0.564,0.857,0.068
31.962,-0.566,0.855,0.070
31.972,-0.564,0.857,0.070
31.982,-0.562,0.855,0.070
31.992,-0.564,0.854,0.068
32.002,-0.566,0.854,0.068
32.012,-0.564,0.852,0.068
32.022,-0.566,0.854,0.068
32.032,-0.564,0.854,0.068
32.042,-0.564,0.855,0.072
32.052,-0.566,0.854,0.072
32.061,-0.564,0.855,0.070
32.071,-0.566,0.854,0.072
32.081,-0.566,0.854,0.070
32.091,-0.568,0.854,0.066
32.101,-0.566,0.854,0.068
32.111,-0.568,0.855,0.072
32.121,-0.566,0.857,0.070
32.131,-0.566,0.859,0.070
32.141,-0.562,0.855,0.068
32.151,-0.562,0.852,0.070
32.161,-0.564,0.855,0.070
32.171,-0.564,0.855,0.070
32.181,-0.561,0.854,0.066
32.191,-0.562,0.857,0.068
32.200,-0.562,0.857,0.068
32.210,-0.561,0.857,0.070
32.220,-0.562,0.855,0.072
32.230,-0.566,0.855,0.070
32.240,-0.568,0.855,0.066
32.250,-0.568,0.859,0.068
32.260,-0.568,0.859,0.070
32.270,-0.568,0.855,0.070
32.280,-0.564,0.855,0.070
32.290,-0.564,0.855,0.072
32.300,-0.564,0.855,0.068
32.310,-0.566,0.855,0.068
32.320,-0.566,0.854,0.070
32.329,-0.562,0.854,0.064
32.339,-0.564,0.854,0.066
32.349,-0.564,0.855,0.072
32.359,-0.562,0.855,0.070
32.369,-0.564,0.857,0.070
32.379,-0.561,0.857,0.072
32.389,-0.562,0.859,0.070
32.399,-0.562,0.855,0.072
32.409,-0.561,0.852,0.070
32.419,-0.561,0.852,0.066
32.429,-0.564,0.855,0.072
32.439,-0.564,0.855,0.072
32.449,-0.562,0.854,0.072
32.459,-0.564,0.859,0.072
32.468,-0.562,0.859,0.072
32.478,-0.562,0.859,0.070
32.488,-0.559,0.855,0.066
32.498,-0.561,0.855,0.070
32.508,-0.559,0.857,0.062
32.518,-0.562,0.859,0.072
32.528,-0.561,0.861,0.070
32.538,-0.561,0.861,0.070
32.548,-0.561,0.859,0.070
32.558,-0.559,0.857,0.070
32.568,-0.561,0.855,0.070
32.578,-0.561,0.857,0.070
32.588,-0.559,0.859,0.068
32.598,-0.562,0.855,0.070
32.607,-0.559,0.857,0.070
32.617,-0.559,0.855,0.070
32.627,-0.559,0.855,0.074
32.637,-0.562,0.855,0.074
32.647,-0.562,0.855,0.072
32.657,-0.562,0.859,0.070
32.667,-0.562,0.857,0.072
32.677,-0.561,0.857,0.070
32.687,-0.566,0.855,0.074
32.697,-0.564,0.854,0.072
32.707,-0.566,0.855,0.068
32.717,-0.566,0.857,0.070
32.727,-0.562,0.855,0.068
32.737,-0.566,0.855,0.070
32.746,-0.564,0.857,0.072
32.756,-0.566,0.855,0.072
32.766,-0.564,0.852,0.072
32.776,-0.564,0.855,0.072
32.786,-0.566,0.854,0.070
32.796,-0.568,0.855,0.070
32.806,-0.564,0.855,0.072
32.816,-0.566,0.852,0.070
32.826,-0.566,0.855,0.070
32.836,-0.566,0.854,0.070
32.846,-0.564,0.854,0.068
32.856,-0.564,0.852,0.068
32.866,-0.564,0.855,0.070
32.876,-0.568,0.855,0.072
32.885,-0.564,0.855,0.072
32.895,-0.561,0.855,0.068
32.905,-0.559,0.857,0.070
32.915,-0.561,0.857,0.068
32.925,-0.559,0.854,0.072
32.935,-0.561,0.859,0.074
32.945,-0.561,0.854,0.068
32.955,-0.557,0.857,0.072
32.965,-0.559,0.863,0.074
32.975,-0.555,0.859,0.070
32.985,-0.557,0.859,0.070
32.995,-0.561,0.857,0.064
33.005,-0.564,0.855,0.068
33.015,-0.564,0.855,0.066
33.024,-0.564,0.857,0.068
33.034,-0.561,0.857,0.068
33.044,-0.562,0.859,0.070
33.054,-0.561,0.857,0.068
33.064,-0.562,0.857,0.070
33.074,-0.561,0.855,0.066
33.084,-0.562,0.854,0.066
33.094,-0.559,0.854,0.068
33.104,-0.561,0.857,0.068
33.114,-0.561,0.854,0.070
33.124,-0.559,0.855,0.068
33.134,-0.559,0.857,0.072
33.144,-0.559,0.859,0.074
33.154,-0.561,0.861,0.072
33.163,-0.562,0.861,0.072
33.173,-0.561,0.857,0.074
33.183,-0.561,0.855,0.068
33.193,-0.562,0.854,0.070
33.203,-0.561,0.854,0.072
33.213,-0.562,0.852,0.072
33.223,-0.561,0.854,0.074
33.233,-0.562,0.861,0.074
33.243,-0.561,0.855,0.072
33.253,-0.564,0.854,0.074
33.263,-0.557,0.857,0.072
33.273,-0.562,0.857,0.074
33.283,-0.559,0.855,0.074
33.293,-0.559,0.857,0.074
33.302,-0.561,0.855,0.072
33.312,-0.561,0.855,0.072
33.322,-0.557,0.859,0.072
33.332,-0.562,0.855,0.076
33.342,-0.559,0.855,0.072
33.352,-0.559,0.855,0.074
33.362,-0.562,0.855,0.072
33.372,-0.559,0.857,0.072
33.382,-0.561,0.855,0.068
33.392,-0.559,0.855,0.074
33.402,-0.559,0.857,0.072
33.412,-0.561,0.857,0.072
33.422,-0.561,0.857,0.072
33.431,-0.561,0.857,0.074
33.441,-0.564,0.855,0.072
33.451,-0.562,0.855,0.072
33.461,-0.564,0.854,0.068
33.471,-0.562,0.855,0.070
33.481,-0.566,0.854,0.070
33.491,-0.564,0.855,0.068
33.501,-0.564,0.855,0.070
33.511,-0.564,0.855,0.072
33.521,-0.562,0.857,0.068
33.531,-0.559,0.857,0.070
33.541,-0.561,0.855,0.072
33.551,-0.561,0.857,0.068
33.561,-0.561,0.857,0.072
33.570,-0.564,0.859,0.070
33.580,-0.564,0.855,0.072
33.590,-0.564,0.857,0.068
33.600,-0.562,0.855,0.068
33.610,-0.564,0.857,0.068
33.620,-0.566,0.855,0.070
33.630,-0.566,0.857,0.070
33.640,-0.566,0.854,0.072
33.650,-0.562,0.857,0.068
33.660,-0.562,0.855,0.070
33.670,-0.562,0.855,0.070
33.680,-0.561,0.857,0.068
33.690,-0.559,0.855,0.070
33.700,-0.561,0.857,0.072
33.709,-0.559,0.857,0.070
33.719,-0.557,0.857,0.072
33.729,-0.559,0.855,0.070
33.739,-0.562,0.857,0.070
33.749,-0.559,0.855,0.066
33.759,-0.562,0.857,0.068
33.769,-0.562,0.857,0.068
33.779,-0.566,0.861,0.068
33.789,-0.564,0.861,0.070
33.799,-0.562,0.859,0.066
33.809,-0.562,0.857,0.070
33.819,-0.561,0.857,0.066
33.829,-0.561,0.855,0.070
33.839,-0.561,0.855,0.068
33.848,-0.561,0.855,0.066
33.858,-0.562,0.857,0.066
33.868,-0.564,0.857,0.068
33.878,-0.562,0.859,0.066
33.888,-0.561,0.859,0.068
33.898,-0.562,0.857,0.070
33.908,-0.562,0.861,0.068
33.918,-0.561,0.857,0.070
33.928,-0.561,0.859,0.066
33.938,-0.564,0.854,0.070
33.948,-0.564,0.855,0.072
33.958,-0.566,0.857,0.068
33.968,-0.562,0.855,0.070
33.978,-0.568,0.857,0.072
33.987,-0.561,0.859,0.074
33.997,-0.559,0.855,0.072
34.007,-0.559,0.857,0.068
34.017,-0.559,0.857,0.070
34.027,-0.561,0.854,0.072
34.037,-0.562,0.857,0.074
34.047,-0.564,0.857,0.072
34.057,-0.564,0.859,0.072
34.067,-0.562,0.857,0.072
34.077,-0.561,0.857,0.068
34.087,-0.559,0.861,0.072
34.097,-0.561,0.854,0.072
34.107,-0.561,0.857,0.068
34.117,-0.559,0.855,0.072
34.126,-0.559,0.854,0.072
34.136,-0.559,0.855,0.074
34.146,-0.559,0.855,0.072
34.156,-0.562,0.852,0.072
34.166,-0.562,0.855,0.070
34.176,-0.562,0.855,0.072
34.186,-0.561,0.859,0.074
34.196,-0.562,0.855,0.072
34.206,-0.566,0.857,0.070
34.216,-0.562,0.855,0.072
34.226,-0.562,0.854,0.070
34.236,-0.561,0.857,0.072
34.246,-0.564,0.855,0.070
34.256,-0.566,0.854,0.070
34.265,-0.561,0.859,0.070
34.275,-0.564,0.857,0.070
34.285,-0.562,0.859,0.074
34.295,-0.564,0.855,0.074
34.305,-0.562,0.859,0.074
34.315,-0.564,0.859,0.070
34.325,-0.564,0.854,0.072
34.335,-0.561,0.852,0.074
34.345,-0.564,0.854,0.072
34.355,-0.562,0.854,0.072
34.365,-0.561,0.855,0.072
34.375,-0.564,0.854,0.070
34.385,-0.564,0.854,0.068
34.395,-0.564,0.855,0.072
34.404,-0.564,0.855,0.070
34.414,-0.562,0.855,0.072
34.424,-0.564,0.857,0.070
34.434,-0.562,0.855,0.068
34.444,-0.561,0.855,0.068
34.454,-0.566,0.857,0.072
34.464,-0.561,0.855,0.072
34.474,-0.557,0.855,0.074
34.484,-0.561,0.861,0.076
34.494,-0.559,0.855,0.074
34.504,-0.559,0.855,0.072
34.514,-0.557,0.855,0.070
34.524,-0.562,0.859,0.068
34.534,-0.562,0.857,0.070
34.543,-0.568,0.859,0.068
34.553,-0.568,0.861,0.072
34.563,-0.564,0.859,0.068
34.573,-0.562,0.855,0.066
34.583,-0.562,0.852,0.068
34.593,-0.566,0.855,0.068
34.603,-0.561,0.855,0.068
34.613,-0.561,0.855,0.064
34.623,-0.564,0.855,0.070
34.633,-0.562,0.855,0.070
34.643,-0.564,0.855,0.068
34.653,-0.562,0.857,0.070
34.663,-0.559,0.855,0.068
34.672,-0.566,0.857,0.070
34.682,-0.564,0.857,0.072
34.692,-0.562,0.855,0.070
34.702,-0.564,0.852,0.066
34.712,-0.561,0.852,0.064
34.722,-0.566,0.852,0.070
34.732,-0.564,0.855,0.068
34.742,-0.566,0.854,0.070
34.752,-0.568,0.857,0.070
34.762,-0.564,0.857,0.070
34.772,-0.564,0.857,0.068
34.782,-0.564,0.855,0.068
34.792,-0.561,0.854,0.068
34.802,-0.562,0.852,0.070
34.811,-0.562,0.854,0.072
34.821,-0.562,0.857,0.070
34.831,-0.562,0.859,0.072
34.841,-0.561,0.859,0.070
34.851,-0.564,0.859,0.072
34.861,-0.561,0.857,0.070
34.871,-0.562,0.857,0.068
34.881,-0.562,0.857,0.066
34.891,-0.559,0.855,0.070
34.901,-0.559,0.854,0.070
34.911,-0.559,0.857,0.070
34.921,-0.561,0.857,0.070
34.931,-0.562,0.857,0.072
34.941,-0.561,0.855,0.074
34.950,-0.566,0.855,0.070
34.960,-0.566,0.857,0.070
34.970,-0.564,0.855,0.068
34.980,-0.566,0.857,0.070
34.990,-0.566,0.855,0.068
35.000,-0.562,0.857,0.068
35.010,-0.561,0.855,0.068
35.020,-0.562,0.857,0.072
35.030,-0.564,0.855,0.068
35.040,-0.561,0.859,0.072
35.050,-0.562,0.855,0.072
35.060,-0.562,0.859,0.068
35.070,-0.562,0.859,0.070
35.080,-0.562,0.857,0.072
35.089,-0.562,0.855,0.068
35.099,-0.561,0.855,0.068
35.109,-0.561,0.855,0.070
35.119,-0.564,0.855,0.068
35.129,-0.564,0.854,0.068
35.139,-0.566,0.854,0.070
35.149,-0.566,0.854,0.068
35.159,-0.568,0.855,0.070
35.169,-0.568,0.857,0.068
35.179,-0.566,0.857,0.070
35.189,-0.566,0.857,0.068
35.199,-0.564,0.852,0.070
35.209,-0.564,0.855,0.068
35.219,-0.564,0.857,0.072
35.228,-0.559,0.854,0.066
35.238,-0.557,0.854,0.072
35.248,-0.562,0.859,0.074
35.258,-0.559,0.855,0.072
35.268,-0.562,0.855,0.070
35.278,-0.564,0.855,0.070
35.288,-0.566,0.859,0.066
35.298,-0.566,0.857,0.066
35.308,-0.566,0.855,0.068
35.318,-0.568,0.857,0.072
35.328,-0.564,0.855,0.068
35.338,-0.564,0.855,0.070
35.348,-0.561,0.857,0.070
35.358,-0.562,0.854,0.068
35.367,-0.559,0.857,0.068
35.377,-0.562,0.855,0.066
35.387,-0.562,0.855,0.068
35.397,-0.562,0.857,0.068
35.407,-0.561,0.855,0.068
35.417,-0.562,0.859,0.068
35.427,-0.562,0.857,0.068
35.437,-0.561,0.859,0.070
35.447,-0.557,0.859,0.068
35.457,-0.559,0.857,0.070
35.467,-0.559,0.859,0.070
35.477,-0.559,0.857,0.068
35.487,-0.559,0.855,0.068
35.497,-0.561,0.857,0.070
35.506,-0.559,0.855,0.070
35.516,-0.559,0.861,0.074
35.526,-0.559,0.861,0.074
35.536,-0.557,0.861,0.074
35.546,-0.553,0.859,0.070
35.556,-0.555,0.857,0.070
35.566,-0.557,0.857,0.074
35.576,-0.557,0.859,0.072
35.586,-0.557,0.861,0.074
35.596,-0.559,0.857,0.070
35.606,-0.557,0.861,0.068
35.616,-0.557,0.861,0.072
35.626,-0.557,0.859,0.072
35.636,-0.557,0.861,0.070
35.645,-0.557,0.859,0.072
35.655,-0.555,0.857,0.066
35.665,-0.557,0.859,0.066
35.675,-0.553,0.859,0.070
35.685,-0.557,0.859,0.070
35.695,-0.559,0.859,0.072
35.705,-0.561,0.861,0.068
35.715,-0.559,0.857,0.072
35.725,-0.561,0.859,0.070
35.735,-0.561,0.857,0.070
35.745,-0.562,0.857,0.072
35.755,-0.561,0.857,0.070
35.765,-0.562,0.857,0.070
35.774,-0.562,0.857,0.070
35.784,-0.562,0.855,0.070
35.794,-0.564,0.857,0.074
35.804,-0.564,0.855,0.072
35.814,-0.568,0.855,0.070
35.824,-0.564,0.855,0.074
35.834,-0.564,0.854,0.070
35.844,-0.564,0.855,0.072
35.854,-0.568,0.854,0.074
35.864,-0.566,0.852,0.070
35.874,-0.566,0.854,0.070
35.884,-0.566,0.854,0.072
35.894,-0.566,0.852,0.074
35.904,-0.568,0.854,0.072
35.913,-0.566,0.855,0.074
35.923,-0.564,0.852,0.070
35.933,-0.566,0.854,0.070
35.943,-0.566,0.854,0.072
35.953,-0.559,0.855,0.072
35.963,-0.559,0.857,0.074
35.973,-0.559,0.855,0.074
35.983,-0.557,0.859,0.070
35.993,-0.561,0.857,0.074
36.003,-0.562,0.861,0.068
36.013,-0.564,0.859,0.072
36.023,-0.562,0.859,0.072
36.033,-0.564,0.863,0.068
36.043,-0.562,0.863,0.072
36.052,-0.561,0.859,0.070
36.062,-0.557,0.857,0.068
36.072,-0.559,0.857,0.068
36.082,-0.561,0.857,0.072
36.092,-0.561,0.857,0.072
36.102,-0.561,0.857,0.068
36.112,-0.561,0.857,0.072
36.122,-0.561,0.859,0.070
36.132,-0.559,0.857,0.070
36.142,-0.559,0.859,0.072
36.152,-0.557,0.861,0.070
36.162,-0.557,0.859,0.070
36.172,-0.559,0.859,0.072
36.182,-0.557,0.861,0.072
36.191,-0.557,0.857,0.068
36.201,-0.559,0.855,0.070
36.211,-0.559,0.857,0.072
36.221,-0.561,0.855,0.068
36.231,-0.561,0.857,0.070
36.241,-0.559,0.863,0.076
36.251,-0.559,0.863,0.072
36.261,-0.561,0.857,0.074
36.271,-0.555,0.859,0.070
36.281,-0.557,0.859,0.070
36.291,-0.559,0.855,0.074
36.301,-0.561,0.855,0.070
36.311,-0.559,0.857,0.072
36.321,-0.561,0.861,0.074
36.330,-0.559,0.857,0.072
36.340,-0.559,0.861,0.070
36.350,-0.559,0.861,0.072
36.360,-0.559,0.855,0.076
36.370,-0.559,0.857,0.072
36.380,-0.559,0.857,0.074
36.390,-0.559,0.855,0.072
36.400,-0.562,0.857,0.072
36.410,-0.559,0.857,0.072
36.420,-0.562,0.857,0.070
36.430,-0.561,0.859,0.070
36.440,-0.562,0.859,0.076
36.450,-0.562,0.857,0.072
36.460,-0.562,0.859,0.072
36.469,-0.562,0.855,0.074
36.479,-0.562,0.855,0.072
36.489,-0.562,0.857,0.070
36.499,-0.562,0.855,0.070
36.509,-0.562,0.857,0.072
36.519,-0.562,0.857,0.074
36.529,-0.561,0.859,0.074
36.539,-0.562,0.855,0.072
36.549,-0.561,0.855,0.074
36.559,-0.559,0.859,0.076
36.569,-0.561,0.855,0.072
36.579,-0.562,0.857,0.072
36.589,-0.566,0.854,0.072
36.599,-0.562,0.855,0.072
36.608,-0.562,0.855,0.072
36.618,-0.566,0.857,0.070
36.628,-0.566,0.855,0.070
36.638,-0.566,0.855,0.072
36.648,-0.566,0.857,0.074
36.658,-0.564,0.855,0.074
36.668,-0.562,0.854,0.072
36.678,-0.564,0.854,0.072
36.688,-0.566,0.854,0.072
36.698,-0.561,0.854,0.076
36.708,-0.561,0.855,0.076
36.718,-0.559,0.855,0.076
36.728,-0.559,0.855,0.076
36.738,-0.561,0.855,0.070
36.747,-0.562,0.854,0.070
36.757,-0.570,0.855,0.068
36.767,-0.568,0.861,0.076
36.777,-0.566,0.861,0.070
36.787,-0.568,0.859,0.068
36.797,-0.568,0.855,0.070
36.807,-0.568,0.855,0.072
36.817,-0.564,0.854,0.068
36.827,-0.564,0.855,0.068
36.837,-0.568,0.852,0.072
36.847,-0.561,0.855,0.066
36.857,-0.564,0.854,0.070
36.867,-0.564,0.854,0.066
36.877,-0.559,0.861,0.070
36.886,-0.561,0.857,0.070
36.896,-0.561,0.859,0.070
36.906,-0.559,0.859,0.068
36.916,-0.559,0.861,0.072
36.926,-0.559,0.859,0.068
36.936,-0.561,0.857,0.068
36.946,-0.561,0.857,0.070
36.956,-0.562,0.857,0.066
36.966,-0.561,0.855,0.072
36.976,-0.562,0.859,0.072
36.986,-0.562,0.861,0.072
36.996,-0.559,0.859,0.068
37.006,-0.562,0.857,0.068
37.015,-0.557,0.857,0.068
37.025,-0.559,0.859,0.068
37.035,-0.559,0.861,0.070
37.045,-0.561,0.857,0.070
37.055,-0.561,0.863,0.072
37.065,-0.557,0.861,0.072
37.075,-0.555,0.861,0.072
37.085,-0.555,0.861,0.072
37.095,-0.555,0.863,0.074
37.105,-0.553,0.854,0.074
37.115,-0.555,0.855,0.072
37.125,-0.555,0.855,0.072
37.135,-0.555,0.857,0.072
37.145,-0.561,0.855,0.074
37.154,-0.562,0.857,0.070
37.164,-0.561,0.857,0.074
37.174,-0.562,0.857,0.074
37.184,-0.564,0.857,0.070
37.194,-0.564,0.855,0.070
37.204,-0.564,0.855,0.072
37.214,-0.564,0.855,0.072
37.224,-0.564,0.854,0.072
37.234,-0.566,0.857,0.070
37.244,-0.562,0.855,0.070
37.254,-0.562,0.855,0.072
37.264,-0.562,0.855,0.072
37.274,-0.561,0.855,0.070
37.284,-0.562,0.857,0.072
37.293,-0.561,0.857,0.072
37.303,-0.566,0.859,0.074
37.313,-0.564,0.857,0.070
37.323,-0.564,0.859,0.074
37.333,-0.564,0.857,0.076
37.343,-0.564,0.857,0.070
37.353,-0.564,0.859,0.070
37.363,-0.564,0.857,0.072
37.373,-0.562,0.854,0.072
37.383,-0.559,0.855,0.072
37.393,-0.562,0.854,0.074
37.403,-0.559,0.852,0.074
37.413,-0.557,0.857,0.074
37.423,-0.559,0.861,0.072
37.432,-0.557,0.859,0.074
37.442,-0.559,0.859,0.070
37.452,-0.561,0.855,0.072
37.462,-0.561,0.855,0.066
37.472,-0.562,0.855,0.072
37.482,-0.566,0.861,0.076
37.492,-0.562,0.861,0.070
37.502,-0.562,0.859,0.072
37.512,-0.559,0.859,0.074
37.522,-0.561,0.857,0.072
37.532,-0.561,0.854,0.072
37.542,-0.561,0.857,0.070
37.552,-0.561,0.854,0.072
37.562,-0.559,0.855,0.068
37.571,-0.561,0.855,0.074
37.581,-0.559,0.861,0.070
37.591,-0.561,0.861,0.074
37.601,-0.559,0.859,0.076
37.611,-0.559,0.859,0.074
37.621,-0.557,0.861,0.074
37.631,-0.559,0.859,0.068
37.641,-0.557,0.859,0.074
37.651,-0.559,0.857,0.074
37.661,-0.562,0.855,0.070
37.671,-0.564,0.855,0.072
37.681,-0.564,0.857,0.074
37.691,-0.562,0.861,0.074
37.701,-0.562,0.861,0.074
37.710,-0.559,0.857,0.074
37.720,-0.559,0.857,0.072
37.730,-0.561,0.855,0.074
37.740,-0.562,0.859,0.074
37.750,-0.562,0.859,0.076
37.760,-0.561,0.859,0.072
37.770,-0.562,0.859,0.072
37.780,-0.562,0.857,0.074
37.790,-0.562,0.859,0.072
37.800,-0.561,0.855,0.070
37.810,-0.561,0.854,0.076
37.820,-0.557,0.855,0.074
37.830,-0.561,0.857,0.072
37.840,-0.561,0.854,0.070
37.849,-0.561,0.854,0.072
37.859,-0.561,0.859,0.076
37.869,-0.562,0.859,0.072
37.879,-0.564,0.857,0.068
37.889,-0.564,0.857,0.068
37.899,-0.564,0.857,0.072
37.909,-0.566,0.855,0.074
37.919,-0.566,0.854,0.072
37.929,-0.566,0.854,0.072
37.939,-0.564,0.854,0.074
37.949,-0.564,0.855,0.074
37.959,-0.559,0.854,0.072
37.969,-0.562,0.855,0.074
37.979,-0.566,0.857,0.072
37.988,-0.566,0.855,0.076
37.998,-0.566,0.855,0.072
38.008,-0.566,0.852,0.072
38.018,-0.566,0.855,0.074
38.028,-0.568,0.857,0.070
38.038,-0.566,0.859,0.074
38.048,-0.566,0.857,0.074
38.058,-0.566,0.857,0.070
38.068,-0.564,0.854,0.074
38.078,-0.561,0.855,0.074
38.088,-0.566,0.857,0.076
38.098,-0.559,0.854,0.076
38.108,-0.553,0.854,0.076
38.117,-0.561,0.861,0.076
38.127,-0.557,0.859,0.078
38.137,-0.555,0.857,0.076
38.147,-0.559,0.855,0.072
38.157,-0.562,0.857,0.074
38.167,-0.562,0.855,0.076
38.177,-0.562,0.857,0.072
38.187,-0.564,0.861,0.072
38.197,-0.561,0.859,0.074
38.207,-0.557,0.857,0.074
38.217,-0.559,0.855,0.074
38.227,-0.559,0.857,0.074
38.237,-0.559,0.859,0.070
38.247,-0.562,0.857,0.076
38.256,-0.559,0.859,0.072
38.266,-0.559,0.859,0.076
38.276,-0.561,0.859,0.076
38.286,-0.561,0.855,0.074
38.296,-0.564,0.861,0.076
38.306,-0.564,0.857,0.076
38.316,-0.564,0.857,0.080
38.326,-0.564,0.855,0.078
38.336,-0.564,0.854,0.078
38.346,-0.568,0.857,0.072
38.356,-0.568,0.854,0.076
38.366,-0.568,0.852,0.072
38.376,-0.570,0.848,0.072
38.386,-0.566,0.857,0.076
38.395,-0.564,0.859,0.076
38.405,-0.562,0.859,0.078
38.415,-0.561,0.859,0.074
38.425,-0.559,0.857,0.074
38.435,-0.561,0.857,0.076
38.445,-0.559,0.859,0.076
38.455,-0.561,0.861,0.076
38.465,-0.559,0.857,0.076
38.475,-0.559,0.861,0.076
38.485,-0.557,0.861,0.074
38.495,-0.557,0.855,0.072
38.505,-0.557,0.857,0.074
38.515,-0.555,0.854,0.074
38.525,-0.559,0.852,0.074
38.534,-0.557,0.859,0.074
38.544,-0.562,0.854,0.072
38.554,-0.566,0.859,0.070
38.564,-0.564,0.857,0.070
38.574,-0.570,0.855,0.074
38.584,-0.566,0.859,0.072
38.594,-0.570,0.861,0.072
38.604,-0.566,0.859,0.072
38.614,-0.562,0.857,0.074
38.624,-0.562,0.855,0.072
38.634,-0.561,0.854,0.070
38.644,-0.568,0.857,0.074
38.654,-0.564,0.855,0.076
38.664,-0.564,0.854,0.074
38.673,-0.566,0.855,0.074
38.683,-0.568,0.859,0.074
38.693,-0.566,0.859,0.076
38.703,-0.564,0.859,0.072
38.713,-0.564,0.854,0.076
38.723,-0.562,0.857,0.076
38.733,-0.561,0.855,0.074
38.743,-0.559,0.852,0.074
38.753,-0.559,0.855,0.072
38.763,-0.562,0.861,0.072
38.773,-0.561,0.854,0.078
38.783,-0.559,0.855,0.074
38.793,-0.562,0.861,0.078
38.803,-0.562,0.857,0.078
38.812,-0.561,0.855,0.074
38.822,-0.566,0.859,0.074
38.832,-0.566,0.854,0.074
38.842,-0.566,0.852,0.074
38.852,-0.568,0.855,0.076
38.862,-0.570,0.854,0.076
38.872,-0.566,0.854,0.074
38.882,-0.570,0.854,0.072
38.892,-0.570,0.852,0.072
38.902,-0.566,0.852,0.076
38.912,-0.566,0.852,0.076
38.922,-0.564,0.852,0.074
38.932,-0.562,0.854,0.070
38.942,-0.564,0.852,0.072
38.951,-0.561,0.855,0.072
38.961,-0.561,0.855,0.070
38.971,-0.559,0.855,0.074
38.981,-0.561,0.857,0.076
38.991,-0.561,0.859,0.074
39.001,-0.561,0.857,0.074
39.011,-0.559,0.859,0.078
39.021,-0.561,0.861,0.076
39.031,-0.562,0.865,0.078
39.041,-0.559,0.857,0.074
39.051,-0.562,0.861,0.074
39.061,-0.561,0.861,0.076
39.071,-0.557,0.859,0.072
39.081,-0.553,0.857,0.072
39.090,-0.553,0.857,0.074
39.100,-0.553,0.857,0.072
39.110,-0.553,0.857,0.074
39.120,-0.557,0.859,0.076
39.130,-0.557,0.861,0.074
39.140,-0.557,0.861,0.074
39.150,-0.555,0.857,0.074
39.160,-0.555,0.857,0.074
39.170,-0.559,0.857,0.076
39.180,-0.559,0.861,0.074
39.190,-0.557,0.863,0.072
39.200,-0.555,0.863,0.074
39.210,-0.555,0.861,0.070
39.219,-0.557,0.861,0.072
39.229,-0.555,0.861,0.074
39.239,-0.557,0.863,0.074
39.249,-0.553,0.863,0.072
39.259,-0.555,0.863,0.072
39.269,-0.555,0.861,0.072
39.279,-0.555,0.863,0.072
39.289,-0.557,0.859,0.072
39.299,-0.555,0.859,0.072
39.309,-0.557,0.855,0.072
39.319,-0.555,0.861,0.074
39.329,-0.557,0.859,0.072
39.339,-0.557,0.861,0.072
39.349,-0.562,0.861,0.076
39.358,-0.559,0.857,0.074
39.368,-0.561,0.861,0.074
39.378,-0.561,0.861,0.074
39.388,-0.561,0.857,0.072
39.398,-0.559,0.861,0.076
39.408,-0.559,0.857,0.074
39.418,-0.557,0.854,0.072
39.428,-0.557,0.859,0.078
39.438,-0.559,0.855,0.074
39.448,-0.557,0.855,0.076
39.458,-0.561,0.855,0.074
39.468,-0.564,0.854,0.074
39.478,-0.564,0.855,0.074
39.488,-0.566,0.855,0.076
39.497,-0.566,0.857,0.074
39.507,-0.564,0.859,0.074
39.517,-0.562,0.857,0.076
39.527,-0.562,0.859,0.072
39.537,-0.561,0.855,0.072
39.547,-0.561,0.857,0.076
39.557,-0.559,0.855,0.074
39.567,-0.559,0.859,0.074
39.577,-0.561,0.859,0.076
39.587,-0.559,0.859,0.074
39.597,-0.559,0.859,0.072
39.607,-0.561,0.861,0.074
39.617,-0.562,0.863,0.076
39.627,-0.562,0.861,0.070
39.636,-0.559,0.859,0.072
39.646,-0.559,0.859,0.076
39.656,-0.561,0.857,0.074
39.666,-0.561,0.857,0.074
39.676,-0.559,0.855,0.070
39.686,-0.559,0.855,0.074
39.696,-0.562,0.859,0.072
39.706,-0.559,0.859,0.074
39.716,-0.559,0.861,0.072
39.726,-0.557,0.857,0.072
39.736,-0.557,0.859,0.074
39.746,-0.557,0.859,0.072
39.756,-0.559,0.859,0.078
39.766,-0.559,0.861,0.074
39.775,-0.557,0.863,0.076
39.785,-0.559,0.861,0.074
39.795,-0.555,0.859,0.074
39.805,-0.557,0.857,0.074
39.815,-0.557,0.857,0.078
39.825,-0.557,0.857,0.076
39.835,-0.557,0.859,0.074
39.845,-0.555,0.855,0.074
39.855,-0.555,0.859,0.074
39.865,-0.559,0.859,0.072
39.875,-0.557,0.859,0.074
39.885,-0.561,0.861,0.078
39.895,-0.561,0.861,0.074
39.905,-0.557,0.859,0.072
39.914,-0.561,0.857,0.074
39.924,-0.555,0.857,0.076
39.934,-0.562,0.855,0.078
39.944,-0.561,0.857,0.074
39.954,-0.561,0.854,0.074
39.964,-0.562,0.857,0.072
39.974,-0.562,0.859,0.080
39.984,-0.562,0.861,0.074
39.994,-0.562,0.861,0.074
40.004,-0.559,0.855,0.072
40.014,-0.562,0.857,0.074
40.024,-0.564,0.855,0.074
40.034,-0.562,0.854,0.078
40.044,-0.561,0.855,0.080
40.053,-0.559,0.857,0.076
40.063,-0.561,0.857,0.072
40.073,-0.562,0.857,0.074
40.083,-0.561,0.857,0.074
40.093,-0.562,0.857,0.074
40.103,-0.564,0.859,0.074
40.113,-0.564,0.859,0.076
40.123,-0.564,0.859,0.078
40.133,-0.562,0.857,0.072
40.143,-0.564,0.857,0.074
40.153,-0.557,0.854,0.072
40.163,-0.561,0.854,0.076
40.173,-0.564,0.854,0.074
40.183,-0.562,0.855,0.074
40.192,-0.561,0.855,0.074
40.202,-0.564,0.855,0.072
40.212,-0.559,0.857,0.072
40.222,-0.562,0.859,0.072
40.232,-0.562,0.859,0.074
40.242,-0.562,0.857,0.074
40.252,-0.562,0.859,0.072
40.262,-0.561,0.859,0.076
40.272,-0.562,0.857,0.070
40.282,-0.562,0.859,0.074
40.292,-0.559,0.857,0.074
40.302,-0.562,0.863,0.076
40.312,-0.561,0.863,0.076
40.322,-0.561,0.861,0.074
40.331,-0.557,0.857,0.072
40.341,-0.557,0.855,0.072
40.351,-0.561,0.859,0.072
40.361,-0.562,0.859,0.072
40.371,-0.561,0.861,0.074
40.381,-0.562,0.863,0.076
40.391,-0.562,0.861,0.072
40.401,-0.559,0.861,0.074
40.411,-0.561,0.859,0.074
40.421,-0.557,0.859,0.074
40.431,-0.557,0.859,0.076
40.441,-0.557,0.861,0.072
40.451,-0.559,0.861,0.074
40.460,-0.559,0.857,0.076
40.470,-0.559,0.857,0.078
40.480,-0.562,0.857,0.072
40.490,-0.562,0.855,0.076
40.500,-0.562,0.857,0.076
40.510,-0.564,0.859,0.072
40.520,-0.566,0.855,0.072
40.530,-0.566,0.855,0.076
40.540,-0.564,0.854,0.078
40.550,-0.564,0.854,0.074
40.560,-0.562,0.854,0.076
40.570,-0.562,0.854,0.078
40.580,-0.562,0.854,0.076
40.590,-0.562,0.854,0.080
40.599,-0.564,0.855,0.074
40.609,-0.566,0.857,0.076
40.619,-0.566,0.857,0.074
40.629,-0.564,0.859,0.076
40.639,-0.566,0.861,0.074
40.649,-0.564,0.855,0.074
40.659,-0.564,0.855,0.072
40.669,-0.566,0.855,0.076
40.679,-0.564,0.861,0.076
40.689,-0.561,0.854,0.074
40.699,-0.562,0.859,0.076
40.709,-0.561,0.861,0.078
40.719,-0.559,0.857,0.072
40.729,-0.561,0.857,0.072
40.738,-0.564,0.857,0.070
40.748,-0.564,0.859,0.074
40.758,-0.564,0.859,0.074
40.768,-0.564,0.865,0.072
40.778,-0.562,0.859,0.072
40.788,-0.559,0.857,0.072
40.798,-0.559,0.859,0.072
40.808,-0.557,0.857,0.070
40.818,-0.561,0.855,0.072
40.828,-0.559,0.855,0.072
40.838,-0.561,0.855,0.070
40.848,-0.566,0.859,0.070
40.858,-0.561,0.859,0.074
40.868,-0.561,0.863,0.074
40.877,-0.561,0.859,0.072
40.887,-0.561,0.857,0.072
40.897,-0.559,0.859,0.074
40.907,-0.559,0.859,0.074
40.917,-0.557,0.857,0.074
40.927,-0.561,0.855,0.074
40.937,-0.557,0.855,0.072
40.947,-0.559,0.855,0.076
40.957,-0.562,0.861,0.076
40.967,-0.559,0.861,0.078
40.977,-0.557,0.857,0.076
40.987,-0.555,0.855,0.074
40.997,-0.557,0.855,0.074
41.007,-0.559,0.859,0.074
41.016,-0.561,0.861,0.078
41.026,-0.562,0.863,0.076
41.036,-0.559,0.865,0.080
41.046,-0.557,0.859,0.078
41.056,-0.557,0.859,0.078
41.066,-0.557,0.859,0.076
41.076,-0.557,0.855,0.076
41.086,-0.557,0.857,0.074
41.096,-0.557,0.857,0.072
41.106,-0.559,0.855,0.078
41.116,-0.559,0.857,0.074
41.126,-0.559,0.857,0.074
41.136,-0.559,0.859,0.076
41.146,-0.561,0.861,0.074
41.155,-0.562,0.861,0.078
41.165,-0.562,0.857,0.076
41.175,-0.557,0.855,0.074
41.185,-0.559,0.855,0.074
41.195,-0.562,0.855,0.076
41.205,-0.561,0.855,0.074
41.215,-0.561,0.855,0.076
41.225,-0.561,0.859,0.078
41.235,-0.561,0.859,0.076
41.245,-0.562,0.859,0.076
41.255,-0.559,0.861,0.076
41.265,-0.561,0.855,0.076
41.275,-0.559,0.861,0.076
41.285,-0.559,0.859,0.076
41.294,-0.559,0.854,0.080
41.304,-0.561,0.861,0.076
41.314,-0.557,0.857,0.074
41.324,-0.553,0.857,0.080
41.334,-0.561,0.861,0.080
41.344,-0.555,0.859,0.078
41.354,-0.553,0.855,0.078
41.364,-0.557,0.854,0.078
41.374,-0.562,0.859,0.072
41.384,-0.562,0.859,0.078
41.394,-0.562,0.861,0.078
41.404,-0.562,0.861,0.080
41.414,-0.561,0.865,0.078
41.424,-0.559,0.859,0.080
41.433,-0.561,0.859,0.074
41.443,-0.559,0.857,0.074
41.453,-0.559,0.855,0.080
41.463,-0.555,0.855,0.080
41.473,-0.555,0.854,0.076
41.483,-0.557,0.859,0.074
41.493,-0.561,0.857,0.080
41.503,-0.561,0.861,0.078
41.513,-0.561,0.859,0.076
41.523,-0.559,0.861,0.078
41.533,-0.561,0.861,0.078
41.543,-0.559,0.859,0.082
41.553,-0.559,0.859,0.078
41.563,-0.555,0.859,0.076
41.572,-0.557,0.854,0.080
41.582,-0.559,0.857,0.078
41.592,-0.559,0.861,0.078
41.602,-0.557,0.863,0.076
41.612,-0.562,0.857,0.080
41.622,-0.561,0.861,0.076
41.632,-0.562,0.855,0.076
41.642,-0.561,0.859,0.074
41.652,-0.562,0.861,0.078
41.662,-0.562,0.859,0.074
41.672,-0.562,0.859,0.074
41.682,-0.562,0.857,0.074
41.692,-0.559,0.857,0.072
41.701,-0.559,0.857,0.074
41.711,-0.557,0.857,0.074
41.721,-0.557,0.855,0.072
41.731,-0.559,0.855,0.070
41.741,-0.559,0.857,0.074
41.751,-0.559,0.859,0.074
41.761,-0.559,0.859,0.072
41.771,-0.559,0.861,0.074
41.781,-0.561,0.859,0.076
41.791,-0.561,0.859,0.076
41.801,-0.557,0.859,0.072
41.811,-0.559,0.859,0.072
41.821,-0.559,0.857,0.074
41.831,-0.559,0.857,0.076
41.840,-0.561,0.857,0.074
41.850,-0.561,0.855,0.074
41.860,-0.561,0.855,0.074
41.870,-0.562,0.857,0.076
41.880,-0.562,0.857,0.076
41.890,-0.562,0.861,0.078
41.900,-0.564,0.857,0.076
41.910,-0.562,0.859,0.072
41.920,-0.564,0.857,0.072
41.930,-0.566,0.857,0.074
41.940,-0.562,0.855,0.074
41.950,-0.564,0.861,0.072
41.960,-0.562,0.859,0.072
41.970,-0.557,0.855,0.074
41.979,-0.559,0.861,0.074
41.989,-0.557,0.861,0.074
41.999,-0.555,0.857,0.072
42.009,-0.557,0.857,0.070
42.019,-0.562,0.859,0.068
42.029,-0.562,0.859,0.072
42.039,-0.564,0.859,0.076
42.049,-0.564,0.861,0.076
42.059,-0.562,0.863,0.076
42.069,-0.557,0.857,0.074
42.079,-0.557,0.857,0.076
42.089,-0.557,0.857,0.074
42.099,-0.561,0.855,0.076
42.109,-0.559,0.855,0.074
42.118,-0.557,0.855,0.072
42.128,-0.559,0.857,0.072
42.138,-0.559,0.859,0.076
42.148,-0.559,0.857,0.072
42.158,-0.557,0.857,0.072
42.168,-0.561,0.859,0.076
42.178,-0.559,0.857,0.072
42.188,-0.561,0.855,0.074
42.198,-0.561,0.861,0.074
42.208,-0.559,0.855,0.074
42.218,-0.561,0.857,0.076
42.228,-0.561,0.854,0.072
42.238,-0.561,0.859,0.076
42.248,-0.561,0.859,0.076
42.257,-0.559,0.859,0.074
42.267,-0.559,0.855,0.074
42.277,-0.557,0.857,0.074
42.287,-0.557,0.857,0.078
42.297,-0.559,0.861,0.076
42.307,-0.557,0.863,0.074
42.317,-0.559,0.863,0.074
42.327,-0.559,0.863,0.076
42.337,-0.557,0.859,0.074
42.347,-0.555,0.857,0.076
42.357,-0.559,0.857,0.074
42.367,-0.559,0.855,0.076
42.377,-0.559,0.857,0.076
42.387,-0.557,0.855,0.074
42.396,-0.559,0.859,0.076
42.406,-0.559,0.859,0.074
42.416,-0.561,0.861,0.076
42.426,-0.559,0.859,0.074
42.436,-0.561,0.861,0.072
42.446,-0.561,0.857,0.074
42.456,-0.562,0.859,0.076
42.466,-0.562,0.857,0.074
42.476,-0.561,0.859,0.072
42.486,-0.562,0.857,0.076
42.496,-0.564,0.857,0.072
42.506,-0.562,0.855,0.070
42.516,-0.559,0.857,0.072
42.526,-0.564,0.857,0.072
42.535,-0.561,0.857,0.074
42.545,-0.561,0.857,0.074
42.555,-0.562,0.859,0.074
42.565,-0.559,0.854,0.074
42.575,-0.561,0.857,0.072
42.585,-0.564,0.857,0.078
42.595,-0.564,0.859,0.076
42.605,-0.562,0.859,0.076
42.615,-0.562,0.857,0.078
42.625,-0.561,0.859,0.076
42.635,-0.562,0.859,0.076
42.645,-0.562,0.855,0.072
42.655,-0.562,0.855,0.072
42.665,-0.561,0.855,0.074
42.674,-0.561,0.855,0.076
42.684,-0.564,0.857,0.074
42.694,-0.561,0.855,0.074
42.704,-0.559,0.859,0.076
42.714,-0.562,0.861,0.076
42.724,-0.561,0.861,0.076
42.734,-0.559,0.855,0.076
42.744,-0.564,0.863,0.074
42.754,-0.561,0.855,0.072
42.764,-0.559,0.859,0.074
42.774,-0.557,0.861,0.072
42.784,-0.555,0.861,0.074
42.794,-0.551,0.857,0.074
42.803,-0.557,0.861,0.070
42.813,-0.561,0.859,0.070
42.823,-0.562,0.859,0.074
42.833,-0.562,0.861,0.074
42.843,-0.562,0.865,0.074
42.853,-0.559,0.859,0.074
42.863,-0.561,0.861,0.074
42.873,-0.562,0.859,0.070
42.883,-0.564,0.855,0.072
42.893,-0.562,0.855,0.070
42.903,-0.562,0.854,0.072
42.913,-0.564,0.855,0.070
42.923,-0.562,0.859,0.074
42.933,-0.559,0.859,0.076
42.942,-0.561,0.857,0.074
42.952,-0.561,0.859,0.076
42.962,-0.559,0.859,0.078
42.972,-0.561,0.857,0.080
42.982,-0.561,0.859,0.072
42.992,-0.559,0.857,0.074
43.002,-0.561,0.855,0.076
43.012,-0.564,0.857,0.074
43.022,-0.561,0.854,0.074
43.032,-0.562,0.857,0.074
43.042,-0.562,0.859,0.078
43.052,-0.561,0.859,0.076
43.062,-0.559,0.859,0.072
43.072,-0.557,0.857,0.076
43.081,-0.559,0.857,0.072
43.091,-0.562,0.859,0.074
43.101,-0.561,0.857,0.074
43.111,-0.559,0.861,0.074
43.121,-0.559,0.859,0.074
43.131,-0.559,0.859,0.074
43.141,-0.557,0.861,0.072
43.151,-0.555,0.859,0.072
43.161,-0.559,0.861,0.074
43.171,-0.559,0.861,0.072
43.181,-0.557,0.859,0.074
43.191,-0.561,0.859,0.072
43.201,-0.557,0.863,0.070
43.211,-0.559,0.861,0.074
43.220,-0.561,0.861,0.074
43.230,-0.561,0.859,0.074
43.240,-0.562,0.859,0.072
43.250,-0.561,0.859,0.074
43.260,-0.561,0.857,0.070
43.270,-0.561,0.857,0.072
43.280,-0.562,0.859,0.070
43.290,-0.561,0.861,0.072
43.300,-0.561,0.859,0.076
43.310,-0.559,0.859,0.072
43.320,-0.559,0.859,0.074
43.330,-0.559,0.859,0.076
43.340,-0.559,0.861,0.074
43.350,-0.561,0.859,0.076
43.359,-0.561,0.857,0.076
43.369,-0.559,0.857,0.076
43.379,-0.564,0.859,0.078
43.389,-0.562,0.859,0.074
43.399,-0.561,0.857,0.076
43.409,-0.559,0.857,0.074
43.419,-0.562,0.857,0.072
43.429,-0.561,0.857,0.076
43.439,-0.561,0.855,0.072
43.449,-0.564,0.857,0.078
43.459,-0.561,0.859,0.072
43.469,-0.562,0.859,0.076
43.479,-0.561,0.857,0.074
43.489,-0.559,0.863,0.078
43.498,-0.561,0.859,0.078
43.508,-0.557,0.859,0.078
43.518,-0.557,0.857,0.078
43.528,-0.553,0.855,0.072
43.538,-0.555,0.861,0.078
43.548,-0.559,0.863,0.080
43.558,-0.557,0.861,0.078
43.568,-0.557,0.857,0.072
43.578,-0.562,0.859,0.076
43.588,-0.566,0.859,0.076
43.598,-0.564,0.861,0.074
43.608,-0.564,0.857,0.074
43.618,-0.566,0.861,0.074
43.628,-0.561,0.859,0.078
43.637,-0.562,0.855,0.076
43.647,-0.561,0.857,0.074
43.657,-0.559,0.857,0.076
43.667,-0.561,0.855,0.080
43.677,-0.562,0.855,0.078
43.687,-0.559,0.855,0.076
43.697,-0.557,0.857,0.076
43.707,-0.559,0.857,0.080
43.717,-0.559,0.857,0.082
43.727,-0.559,0.857,0.084
43.737,-0.553,0.861,0.078
43.747,-0.561,0.859,0.084
43.757,-0.561,0.861,0.082
43.767,-0.557,0.859,0.080
43.776,-0.561,0.855,0.084
43.786,-0.557,0.854,0.080
43.796,-0.559,0.857,0.082
43.806,-0.561,0.861,0.080
43.816,-0.557,0.859,0.082
43.826,-0.557,0.859,0.082
43.836,-0.555,0.857,0.082
43.846,-0.557,0.857,0.080
43.856,-0.557,0.859,0.082
43.866,-0.559,0.861,0.084
43.876,-0.555,0.861,0.082
43.886,-0.553,0.861,0.082
43.896,-0.555,0.863,0.084
43.906,-0.553,0.861,0.078
43.915,-0.559,0.861,0.076
43.925,-0.553,0.857,0.080
43.935,-0.553,0.857,0.082
43.945,-0.553,0.863,0.080
43.955,-0.553,0.857,0.078
43.965,-0.555,0.859,0.078
43.975,-0.555,0.859,0.082
43.985,-0.557,0.861,0.080
43.995,-0.557,0.863,0.078
44.005,-0.555,0.861,0.078
44.015,-0.555,0.861,0.078
44.025,-0.561,0.861,0.078
44.035,-0.557,0.861,0.078
44.044,-0.559,0.859,0.078
44.054,-0.559,0.857,0.076
44.064,-0.559,0.857,0.080
44.074,-0.559,0.857,0.080
44.084,-0.557,0.857,0.078
44.094,-0.561,0.857,0.078
44.104,-0.562,0.859,0.076
44.114,-0.561,0.855,0.076
44.124,-0.562,0.857,0.072
44.134,-0.564,0.859,0.074
44.144,-0.564,0.855,0.074
44.154,-0.562,0.859,0.074
44.164,-0.568,0.855,0.078
44.174,-0.566,0.857,0.078
44.183,-0.562,0.857,0.074
44.193,-0.564,0.859,0.072
44.203,-0.559,0.854,0.072
44.213,-0.562,0.857,0.074
44.223,-0.562,0.861,0.078
44.233,-0.559,0.855,0.078
44.243,-0.561,0.857,0.070
44.253,-0.561,0.857,0.072
44.263,-0.564,0.855,0.072
44.273,-0.566,0.857,0.074
44.283,-0.566,0.859,0.070
44.293,-0.564,0.859,0.076
44.303,-0.564,0.857,0.074
44.313,-0.561,0.855,0.072
44.322,-0.564,0.855,0.070
44.332,-0.562,0.857,0.072
44.342,-0.564,0.855,0.072
44.352,-0.562,0.857,0.074
44.362,-0.562,0.855,0.072
44.372,-0.561,0.854,0.072
44.382,-0.564,0.857,0.074
44.392,-0.564,0.857,0.074
44.402,-0.562,0.859,0.074
44.412,-0.561,0.859,0.072
44.422,-0.562,0.861,0.074
44.432,-0.559,0.859,0.074
44.442,-0.561,0.859,0.074
44.452,-0.559,0.859,0.076
44.461,-0.559,0.855,0.072
44.471,-0.559,0.859,0.074
44.481,-0.559,0.859,0.072
44.491,-0.561,0.861,0.078
44.501,-0.559,0.863,0.074
44.511,-0.557,0.859,0.072
44.521,-0.557,0.859,0.072
44.531,-0.561,0.857,0.072
44.541,-0.559,0.861,0.072
44.551,-0.559,0.859,0.074
44.561,-0.557,0.863,0.074
44.571,-0.557,0.863,0.074
44.581,-0.557,0.861,0.076
44.591,-0.557,0.857,0.076
44.600,-0.559,0.857,0.074
44.610,-0.559,0.857,0.074
44.620,-0.557,0.859,0.072
44.630,-0.559,0.859,0.070
44.640,-0.559,0.859,0.072
44.650,-0.559,0.859,0.074
44.660,-0.559,0.863,0.074
44.670,-0.562,0.859,0.074
44.680,-0.559,0.861,0.074
44.690,-0.562,0.857,0.074
44.700,-0.564,0.859,0.074
44.710,-0.564,0.857,0.076
44.720,-0.561,0.857,0.070
44.730,-0.562,0.857,0.076
44.739,-0.564,0.859,0.074
44.749,-0.564,0.855,0.076
44.759,-0.562,0.855,0.074
44.769,-0.562,0.859,0.076
44.779,-0.559,0.857,0.076
44.789,-0.562,0.855,0.076
44.799,-0.566,0.855,0.076
44.809,-0.566,0.857,0.076
44.819,-0.566,0.859,0.076
44.829,-0.566,0.859,0.074
44.839,-0.564,0.855,0.074
44.849,-0.564,0.859,0.072
44.859,-0.562,0.857,0.072
44.869,-0.564,0.855,0.078
44.878,-0.564,0.857,0.074
44.888,-0.561,0.855,0.074
44.898,-0.559,0.857,0.076
44.908,-0.561,0.859,0.076
44.918,-0.557,0.859,0.076
44.928,-0.557,0.852,0.074
44.938,-0.559,0.854,0.072
44.948,-0.561,0.855,0.072
44.958,-0.562,0.861,0.074
44.968,-0.566,0.859,0.074
44.978,-0.562,0.863,0.076
44.988,-0.562,0.859,0.072
44.998,-0.562,0.861,0.070
45.008,-0.562,0.859,0.072
45.017,-0.561,0.861,0.070
45.027,-0.559,0.855,0.074
45.037,-0.559,0.854,0.070
45.047,-0.561,0.857,0.070
45.057,-0.559,0.857,0.072
45.067,-0.559,0.857,0.074
45.077,-0.559,0.861,0.072
45.087,-0.561,0.861,0.070
45.097,-0.561,0.861,0.072
45.107,-0.562,0.863,0.070
45.117,-0.561,0.863,0.074
45.127,-0.561,0.859,0.072
45.137,-0.559,0.859,0.074
45.146,-0.557,0.861,0.074
45.156,-0.559,0.857,0.074
45.166,-0.561,0.861,0.072
45.176,-0.561,0.859,0.074
45.186,-0.561,0.861,0.074
45.196,-0.561,0.857,0.078
45.206,-0.559,0.857,0.074
45.216,-0.561,0.859,0.074
45.226,-0.562,0.857,0.076
45.236,-0.566,0.857,0.078
45.246,-0.564,0.859,0.074
45.256,-0.562,0.854,0.076
45.266,-0.562,0.857,0.076
45.276,-0.562,0.854,0.076
45.285,-0.562,0.854,0.078
45.295,-0.562,0.852,0.078
45.305,-0.561,0.855,0.076
45.315,-0.562,0.855,0.078
45.325,-0.562,0.854,0.078
45.335,-0.562,0.855,0.074
45.345,-0.561,0.859,0.076
45.355,-0.564,0.857,0.074
45.365,-0.564,0.861,0.076
45.375,-0.564,0.855,0.074
45.385,-0.562,0.857,0.074
45.395,-0.562,0.857,0.076
45.405,-0.562,0.857,0.074
45.415,-0.561,0.855,0.076
45.424,-0.562,0.857,0.072
45.434,-0.561,0.857,0.072
45.444,-0.561,0.855,0.070
45.454,-0.559,0.859,0.078
45.464,-0.564,0.857,0.078
45.474,-0.562,0.859,0.074
45.484,-0.561,0.859,0.076
45.494,-0.561,0.857,0.074
45.504,-0.562,0.857,0.076
45.514,-0.566,0.855,0.072
45.524,-0.566,0.857,0.074
45.534,-0.562,0.857,0.070
45.544,-0.566,0.857,0.074
45.554,-0.564,0.857,0.074
45.563,-0.566,0.859,0.074
45.573,-0.564,0.861,0.072
45.583,-0.562,0.855,0.070
45.593,-0.562,0.857,0.074
45.603,-0.564,0.859,0.078
45.613,-0.561,0.852,0.072
45.623,-0.559,0.855,0.078
45.633,-0.559,0.861,0.072
45.643,-0.555,0.857,0.076
45.653,-0.557,0.855,0.074
45.663,-0.561,0.855,0.070
45.673,-0.564,0.859,0.070
45.683,-0.568,0.859,0.072
45.693,-0.566,0.859,0.074
45.702,-0.564,0.859,0.074
45.712,-0.566,0.859,0.068
45.722,-0.562,0.859,0.070
45.732,-0.561,0.857,0.068
45.742,-0.561,0.854,0.070
45.752,-0.561,0.855,0.072
45.762,-0.561,0.855,0.072
45.772,-0.561,0.857,0.072
45.782,-0.562,0.857,0.070
45.792,-0.562,0.857,0.072
45.802,-0.562,0.857,0.074
45.812,-0.562,0.863,0.072
45.822,-0.564,0.863,0.074
45.832,-0.564,0.859,0.072
45.841,-0.562,0.857,0.070
45.851,-0.562,0.857,0.074
45.861,-0.561,0.855,0.070
45.871,-0.562,0.855,0.072
45.881,-0.562,0.855,0.070
45.891,-0.564,0.859,0.074
45.901,-0.561,0.859,0.072
45.911,-0.564,0.857,0.072
45.921,-0.561,0.857,0.070
45.931,-0.561,0.859,0.072
45.941,-0.561,0.859,0.070
45.951,-0.561,0.861,0.076
45.961,-0.559,0.861,0.074
45.971,-0.562,0.857,0.076
45.980,-0.562,0.857,0.074
45.990,-0.559,0.857,0.076
46.000,-0.561,0.855,0.076
46.010,-0.559,0.854,0.074
46.020,-0.559,0.855,0.074
46.030,-0.561,0.857,0.074
46.040,-0.557,0.855,0.076
46.050,-0.561,0.857,0.078
46.060,-0.562,0.859,0.078
46.070,-0.561,0.861,0.076
46.080,-0.559,0.859,0.076
46.090,-0.562,0.859,0.074
46.100,-0.562,0.859,0.076
46.110,-0.561,0.859,0.074
46.119,-0.561,0.859,0.074
46.129,-0.557,0.857,0.074
46.139,-0.561,0.857,0.074
46.149,-0.559,0.857,0.076
46.159,-0.557,0.859,0.078
46.169,-0.561,0.859,0.074
46.179,-0.561,0.859,0.074
46.189,-0.559,0.857,0.076
46.199,-0.561,0.859,0.078
46.209,-0.561,0.861,0.076
46.219,-0.559,0.863,0.078
46.229,-0.559,0.859,0.078
46.239,-0.555,0.861,0.076
46.249,-0.557,0.861,0.076
46.258,-0.555,0.861,0.076
46.268,-0.559,0.861,0.078
46.278,-0.561,0.859,0.076
46.288,-0.553,0.859,0.074
46.298,-0.555,0.861,0.080
46.308,-0.555,0.861,0.078
46.318,-0.553,0.857,0.078
46.328,-0.559,0.855,0.076
46.338,-0.561,0.863,0.078
46.348,-0.562,0.855,0.078
46.358,-0.566,0.859,0.078
46.368,-0.566,0.859,0.078
46.378,-0.564,0.861,0.080
46.387,-0.562,0.861,0.080
46.397,-0.562,0.855,0.078
46.407,-0.561,0.857,0.074
46.417,-0.561,0.857,0.074
46.427,-0.559,0.854,0.074
46.437,-0.561,0.855,0.078
46.447,-0.562,0.854,0.078
46.457,-0.561,0.855,0.080
46.467,-0.562,0.857,0.078
46.477,-0.562,0.857,0.078
46.487,-0.564,0.857,0.074
46.497,-0.562,0.857,0.076
46.507,-0.564,0.859,0.074
46.517,-0.562,0.855,0.076
46.526,-0.562,0.852,0.076
46.536,-0.564,0.852,0.078
46.546,-0.561,0.854,0.076
46.556,-0.564,0.855,0.076
46.566,-0.562,0.857,0.076
46.576,-0.564,0.857,0.076
46.586,-0.561,0.857,0.076
46.596,-0.562,0.854,0.076
46.606,-0.562,0.857,0.074
46.616,-0.562,0.859,0.074
46.626,-0.562,0.859,0.074
46.636,-0.564,0.855,0.074
46.646,-0.562,0.859,0.074
46.656,-0.559,0.857,0.072
46.665,-0.561,0.859,0.074
46.675,-0.559,0.859,0.076
46.685,-0.559,0.859,0.076
46.695,-0.557,0.859,0.074
46.705,-0.555,0.857,0.074
46.715,-0.557,0.857,0.074
46.725,-0.559,0.857,0.074
46.735,-0.561,0.859,0.076
46.745,-0.561,0.861,0.076
46.755,-0.561,0.857,0.074
46.765,-0.561,0.857,0.078
46.775,-0.559,0.857,0.072
46.785,-0.559,0.857,0.074
46.795,-0.561,0.855,0.072
46.804,-0.562,0.855,0.072
46.814,-0.562,0.855,0.070
46.824,-0.562,0.855,0.074
46.834,-0.564,0.857,0.070
46.844,-0.559,0.857,0.072
46.854,-0.564,0.859,0.070
46.864,-0.562,0.859,0.070
46.874,-0.564,0.857,0.072
46.884,-0.564,0.861,0.074
46.894,-0.564,0.857,0.070
46.904,-0.564,0.855,0.072
46.914,-0.566,0.857,0.070
46.924,-0.564,0.857,0.072
46.934,-0.561,0.855,0.072
46.943,-0.562,0.859,0.072
46.953,-0.561,0.859,0.076
46.963,-0.562,0.857,0.072
46.973,-0.564,0.854,0.072
46.983,-0.564,0.857,0.072
46.993,-0.568,0.855,0.076
47.003,-0.566,0.855,0.074
47.013,-0.566,0.857,0.074
47.023,-0.566,0.857,0.072
47.033,-0.564,0.859,0.070
47.043,-0.564,0.857,0.070
47.053,-0.566,0.855,0.072
47.063,-0.564,0.855,0.068
47.073,-0.564,0.855,0.070
47.082,-0.564,0.855,0.072
47.092,-0.562,0.855,0.070
47.102,-0.562,0.855,0.072
47.112,-0.566,0.855,0.068
47.122,-0.562,0.859,0.072
47.132,-0.564,0.861,0.072
47.142,-0.564,0.857,0.070
47.152,-0.564,0.861,0.072
47.162,-0.562,0.855,0.070
47.172,-0.564,0.857,0.074
47.182,-0.562,0.855,0.072
47.192,-0.564,0.854,0.070
47.202,-0.562,0.857,0.072
47.212,-0.561,0.859,0.074
47.221,-0.562,0.859,0.072
47.231,-0.561,0.857,0.072
47.241,-0.562,0.857,0.070
47.251,-0.562,0.855,0.070
47.261,-0.562,0.859,0.074
47.271,-0.562,0.859,0.076
47.281,-0.561,0.859,0.074
47.291,-0.562,0.863,0.074
47.301,-0.559,0.859,0.074
47.311,-0.559,0.855,0.072
47.321,-0.559,0.857,0.072
47.331,-0.561,0.857,0.074
47.341,-0.559,0.861,0.076
47.351,-0.561,0.859,0.072
47.360,-0.557,0.857,0.074
47.370,-0.561,0.859,0.072
47.380,-0.559,0.861,0.076
47.390,-0.561,0.857,0.078
47.400,-0.562,0.859,0.074
47.410,-0.562,0.857,0.072
47.420,-0.562,0.855,0.072
47.430,-0.562,0.854,0.074
47.440,-0.562,0.857,0.072
47.450,-0.564,0.855,0.076
47.460,-0.564,0.852,0.072
47.470,-0.564,0.857,0.074
47.480,-0.566,0.855,0.078
47.490,-0.566,0.857,0.078
47.499,-0.566,0.855,0.074
47.509,-0.566,0.854,0.074
47.519,-0.566,0.854,0.076
47.529,-0.568,0.854,0.072
47.539,-0.568,0.857,0.076
47.549,-0.568,0.857,0.072
47.559,-0.566,0.857,0.074
47.569,-0.570,0.855,0.076
47.579,-0.570,0.859,0.074
47.589,-0.566,0.852,0.074
47.599,-0.568,0.852,0.072
47.609,-0.566,0.855,0.074
47.619,-0.562,0.854,0.080
47.628,-0.562,0.855,0.076
47.638,-0.566,0.857,0.072
47.648,-0.562,0.854,0.074
47.658,-0.561,0.855,0.070
47.668,-0.564,0.852,0.070
47.678,-0.568,0.854,0.072
47.688,-0.570,0.855,0.072
47.698,-0.568,0.859,0.072
47.708,-0.568,0.861,0.072
47.718,-0.568,0.857,0.072
47.728,-0.564,0.855,0.072
47.738,-0.562,0.857,0.068
47.748,-0.566,0.854,0.070
47.758,-0.562,0.855,0.068
47.767,-0.559,0.855,0.068
47.777,-0.561,0.857,0.070
47.787,-0.562,0.859,0.070
47.797,-0.561,0.857,0.072
47.807,-0.561,0.861,0.072
47.817,-0.561,0.861,0.072
47.827,-0.562,0.857,0.076
47.837,-0.561,0.859,0.074
47.847,-0.561,0.855,0.072
47.857,-0.562,0.855,0.070
47.867,-0.561,0.855,0.072
47.877,-0.566,0.854,0.070
47.887,-0.564,0.857,0.070
47.897,-0.564,0.855,0.072
47.906,-0.566,0.861,0.072
47.916,-0.562,0.857,0.068
47.926,-0.562,0.855,0.070
47.936,-0.564,0.855,0.072
47.946,-0.568,0.859,0.068
47.956,-0.568,0.857,0.072
47.966,-0.564,0.859,0.072
47.976,-0.561,0.859,0.072
47.986,-0.561,0.855,0.074
47.996,-0.559,0.855,0.072
48.006,-0.562,0.857,0.070
48.016,-0.557,0.855,0.072
48.026,-0.561,0.855,0.068
48.036,-0.561,0.855,0.072
48.045,-0.562,0.857,0.068
48.055,-0.562,0.855,0.070
48.065,-0.562,0.857,0.072
48.075,-0.564,0.857,0.072
48.085,-0.566,0.855,0.070
48.095,-0.566,0.854,0.070
48.105,-0.564,0.854,0.070
48.115,-0.568,0.857,0.068
48.125,-0.568,0.855,0.068
48.135,-0.566,0.854,0.068
48.145,-0.564,0.852,0.066
48.155,-0.568,0.855,0.066
48.165,-0.568,0.855,0.070
48.175,-0.568,0.859,0.068
48.184,-0.566,0.855,0.068
48.194,-0.564,0.857,0.070
48.204,-0.564,0.855,0.070
48.214,-0.561,0.859,0.072
48.224,-0.562,0.857,0.072
48.234,-0.562,0.854,0.068
48.244,-0.562,0.855,0.070
48.254,-0.566,0.857,0.070
48.264,-0.566,0.857,0.072
48.274,-0.566,0.857,0.068
48.284,-0.568,0.857,0.068
48.294,-0.566,0.857,0.072
48.304,-0.564,0.857,0.070
48.314,-0.564,0.854,0.070
48.323,-0.564,0.852,0.068
48.333,-0.566,0.855,0.070
48.343,-0.557,0.852,0.074
48.353,-0.557,0.857,0.074
48.363,-0.561,0.861,0.072
48.373,-0.555,0.857,0.072
48.383,-0.561,0.857,0.070
48.393,-0.562,0.857,0.072
48.403,-0.568,0.859,0.072
48.413,-0.568,0.855,0.070
48.423,-0.568,0.859,0.072
48.433,-0.570,0.855,0.068
48.443,-0.566,0.857,0.070
48.453,-0.564,0.855,0.072
48.462,-0.564,0.855,0.072
48.472,-0.562,0.857,0.068
48.482,-0.562,0.854,0.070
48.492,-0.562,0.855,0.072
48.502,-0.561,0.855,0.070
48.512,-0.564,0.855,0.070
48.522,-0.562,0.859,0.072
48.532,-0.562,0.859,0.070
48.542,-0.564,0.859,0.070
48.552,-0.564,0.857,0.072
48.562,-0.566,0.857,0.072
48.572,-0.562,0.857,0.070
48.582,-0.562,0.855,0.070
48.592,-0.562,0.859,0.070
48.601,-0.564,0.854,0.074
48.611,-0.562,0.857,0.070
48.621,-0.564,0.859,0.068
48.631,-0.557,0.861,0.074
48.641,-0.559,0.855,0.072
48.651,-0.559,0.857,0.072
48.661,-0.559,0.855,0.070
48.671,-0.557,0.861,0.074
48.681,-0.559,0.861,0.072
48.691,-0.557,0.865,0.076
48.701,-0.557,0.863,0.076
48.711,-0.549,0.859,0.072
48.721,-0.553,0.861,0.076
48.730,-0.553,0.863,0.078
48.740,-0.553,0.861,0.076
48.750,-0.553,0.859,0.076
48.760,-0.557,0.857,0.074
48.770,-0.555,0.855,0.072
48.780,-0.557,0.859,0.074
48.790,-0.557,0.861,0.070
48.800,-0.562,0.859,0.074
48.810,-0.561,0.861,0.076
48.820,-0.561,0.859,0.074
48.830,-0.562,0.855,0.074
48.840,-0.562,0.857,0.070
48.850,-0.562,0.857,0.072
48.860,-0.562,0.857,0.072
48.869,-0.562,0.857,0.076
48.879,-0.562,0.857,0.074
48.889,-0.562,0.854,0.072
48.899,-0.559,0.855,0.076
48.909,-0.564,0.855,0.074
48.919,-0.564,0.857,0.072
48.929,-0.564,0.857,0.076
48.939,-0.564,0.855,0.074
48.949,-0.564,0.857,0.072
48.959,-0.562,0.859,0.076
48.969,-0.566,0.859,0.076
48.979,-0.564,0.857,0.074
48.989,-0.562,0.854,0.076
48.999,-0.564,0.855,0.074
49.008,-0.561,0.855,0.076
49.018,-0.561,0.852,0.074
49.028,-0.564,0.859,0.078
49.038,-0.562,0.857,0.074
49.048,-0.561,0.852,0.074
49.058,-0.564,0.854,0.070
49.068,-0.568,0.854,0.072
49.078,-0.566,0.855,0.074
49.088,-0.572,0.855,0.074
49.098,-0.568,0.855,0.076
49.108,-0.568,0.857,0.070
49.118,-0.568,0.854,0.072
49.128,-0.564,0.854,0.074
49.138,-0.564,0.855,0.070
49.147,-0.564,0.854,0.070
49.157,-0.566,0.855,0.070
49.167,-0.566,0.855,0.068
49.177,-0.561,0.855,0.070
49.187,-0.564,0.857,0.072
49.197,-0.564,0.859,0.070
49.207,-0.564,0.857,0.076
49.217,-0.562,0.857,0.070
49.227,-0.562,0.857,0.074
49.237,-0.562,0.861,0.070
49.247,-0.561,0.859,0.072
49.257,-0.562,0.859,0.070
49.267,-0.562,0.859,0.072
49.277,-0.557,0.855,0.072
49.286,-0.562,0.861,0.070
49.296,-0.562,0.859,0.074
49.306,-0.561,0.857,0.070
49.316,-0.559,0.859,0.070
49.326,-0.557,0.859,0.070
49.336,-0.562,0.859,0.066
49.346,-0.562,0.859,0.072
49.356,-0.561,0.857,0.066
49.366,-0.561,0.861,0.068
49.376,-0.562,0.859,0.070
49.386,-0.562,0.857,0.068
49.396,-0.562,0.861,0.072
49.406,-0.561,0.857,0.076
49.416,-0.561,0.859,0.070
49.425,-0.559,0.855,0.074
49.435,-0.561,0.855,0.072
49.445,-0.561,0.857,0.070
49.455,-0.561,0.857,0.074
49.465,-0.559,0.859,0.070
49.475,-0.561,0.855,0.070
49.485,-0.564,0.857,0.068
49.495,-0.562,0.857,0.074
49.505,-0.566,0.857,0.068
49.515,-0.566,0.859,0.070
49.525,-0.564,0.855,0.074
49.535,-0.566,0.857,0.070
49.545,-0.566,0.855,0.072
49.555,-0.568,0.857,0.072
49.564,-0.566,0.854,0.072
49.574,-0.566,0.857,0.072
49.584,-0.564,0.854,0.072
49.594,-0.566,0.857,0.072
49.604,-0.566,0.857,0.072
49.614,-0.566,0.857,0.072
49.624,-0.562,0.857,0.072
49.634,-0.564,0.855,0.072
49.644,-0.564,0.855,0.070
49.654,-0.566,0.854,0.072
49.664,-0.566,0.855,0.070
49.674,-0.566,0.855,0.076
49.684,-0.570,0.855,0.076
49.694,-0.566,0.854,0.074
49.703,-0.572,0.854,0.072
49.713,-0.568,0.854,0.070
49.723,-0.568,0.852,0.070
49.733,-0.566,0.857,0.072
49.743,-0.564,0.854,0.074
49.753,-0.562,0.854,0.070
49.763,-0.562,0.855,0.074
49.773,-0.562,0.857,0.074
49.783,-0.561,0.854,0.076
49.793,-0.562,0.854,0.070
49.803,-0.566,0.852,0.070
49.813,-0.566,0.857,0.070
49.823,-0.570,0.857,0.072
49.832,-0.566,0.859,0.070
49.842,-0.566,0.859,0.072
49.852,-0.568,0.855,0.074
49.862,-0.566,0.857,0.070
49.872,-0.566,0.854,0.068
49.882,-0.566,0.857,0.070
49.892,-0.562,0.855,0.068
49.902,-0.562,0.854,0.068
49.912,-0.564,0.857,0.070
49.922,-0.561,0.859,0.070
49.932,-0.562,0.859,0.074
49.942,-0.561,0.859,0.068
49.952,-0.562,0.855,0.072
49.962,-0.561,0.855,0.072
49.971,-0.561,0.859,0.068
49.981,-0.564,0.855,0.070
49.991,-0.561,0.857,0.066
50.001,-0.562,0.854,0.070
50.011,-0.568,0.854,0.068
50.021,-0.562,0.857,0.070
50.031,-0.566,0.859,0.072
50.041,-0.562,0.857,0.072
50.051,-0.566,0.857,0.066
50.061,-0.562,0.857,0.070
50.071,-0.562,0.855,0.066
50.081,-0.564,0.855,0.068
50.091,-0.570,0.859,0.072
50.101,-0.562,0.857,0.068
50.110,-0.561,0.859,0.072
50.120,-0.562,0.859,0.074
50.130,-0.562,0.855,0.070
50.140,-0.561,0.855,0.070
50.150,-0.561,0.854,0.070
50.160,-0.561,0.852,0.070
50.170,-0.562,0.854,0.070
50.180,-0.564,0.855,0.074
50.190,-0.561,0.857,0.068
50.200,-0.564,0.855,0.070
50.210,-0.566,0.855,0.070
50.220,-0.564,0.857,0.072
50.230,-0.568,0.854,0.070
50.240,-0.572,0.855,0.070
50.249,-0.570,0.854,0.068
50.259,-0.568,0.854,0.068
50.269,-0.568,0.854,0.070
50.279,-0.568,0.854,0.070
50.289,-0.568,0.855,0.070
50.299,-0.568,0.854,0.070
50.309,-0.566,0.854,0.068
50.319,-0.568,0.855,0.070
50.329,-0.566,0.855,0.066
50.339,-0.566,0.855,0.070
50.349,-0.566,0.857,0.072
50.359,-0.564,0.857,0.070
50.369,-0.566,0.855,0.070
50.379,-0.566,0.855,0.068
50.388,-0.564,0.857,0.070
50.398,-0.568,0.855,0.070
50.408,-0.568,0.855,0.070
50.418,-0.566,0.855,0.068
50.428,-0.566,0.859,0.068
50.438,-0.566,0.857,0.068
50.448,-0.568,0.857,0.070
50.458,-0.564,0.855,0.066
50.468,-0.564,0.855,0.068
50.478,-0.561,0.854,0.066
50.488,-0.564,0.857,0.072
50.498,-0.562,0.855,0.072
50.508,-0.562,0.854,0.070
50.518,-0.562,0.855,0.070
50.527,-0.561,0.855,0.070
50.537,-0.564,0.854,0.068
50.547,-0.564,0.857,0.070
50.557,-0.568,0.857,0.068
50.567,-0.566,0.859,0.068
50.577,-0.562,0.859,0.070
50.587,-0.564,0.863,0.068
50.597,-0.562,0.861,0.070
50.607,-0.562,0.855,0.066
50.617,-0.562,0.859,0.068
50.627,-0.562,0.855,0.070
50.637,-0.559,0.855,0.068
50.647,-0.562,0.857,0.070
50.657,-0.559,0.859,0.068
50.666,-0.561,0.855,0.070
50.676,-0.566,0.857,0.068
50.686,-0.568,0.857,0.072
50.696,-0.568,0.859,0.068
50.706,-0.570,0.859,0.072
50.716,-0.568,0.857,0.068
50.726,-0.564,0.854,0.070
50.736,-0.564,0.850,0.068
50.746,-0.562,0.854,0.066
50.756,-0.564,0.854,0.066
50.766,-0.564,0.855,0.066
50.776,-0.566,0.855,0.066
50.786,-0.566,0.855,0.068
50.796,-0.568,0.854,0.070
50.805,-0.566,0.854,0.066
50.815,-0.566,0.857,0.072
50.825,-0.564,0.859,0.070
50.835,-0.562,0.855,0.070
50.845,-0.564,0.854,0.074
50.855,-0.566,0.854,0.068
50.865,-0.564,0.855,0.070
50.875,-0.564,0.857,0.068
50.885,-0.564,0.857,0.070
50.895,-0.566,0.854,0.068
50.905,-0.566,0.855,0.076
50.915,-0.566,0.859,0.072
50.925,-0.562,0.859,0.074
50.935,-0.564,0.859,0.074
50.944,-0.561,0.855,0.074
50.954,-0.561,0.857,0.070
50.964,-0.564,0.859,0.068
50.974,-0.562,0.859,0.072
50.984,-0.564,0.859,0.072
50.994,-0.561,0.859,0.070
51.004,-0.561,0.861,0.070
51.014,-0.559,0.859,0.074
51.024,-0.557,0.857,0.072
51.034,-0.559,0.857,0.070
51.044,-0.559,0.857,0.070
51.054,-0.555,0.857,0.070
51.064,-0.557,0.859,0.070
51.073,-0.559,0.857,0.072
51.083,-0.559,0.859,0.072
51.093,-0.559,0.857,0.072
51.103,-0.559,0.857,0.066
51.113,-0.564,0.861,0.072
51.123,-0.566,0.859,0.072
51.133,-0.562,0.857,0.074
51.143,-0.564,0.855,0.072
51.153,-0.566,0.857,0.070
51.163,-0.564,0.855,0.068
51.173,-0.564,0.857,0.074
51.183,-0.564,0.857,0.072
51.193,-0.564,0.855,0.076
51.203,-0.562,0.857,0.074
51.212,-0.561,0.855,0.072
51.222,-0.564,0.857,0.070
51.232,-0.562,0.857,0.072
51.242,-0.564,0.857,0.072
51.252,-0.564,0.857,0.072
51.262,-0.566,0.854,0.076
51.272,-0.564,0.855,0.072
51.282,-0.566,0.854,0.074
51.292,-0.566,0.854,0.072
51.302,-0.566,0.854,0.070
51.312,-0.568,0.852,0.072
51.322,-0.568,0.852,0.070
51.332,-0.568,0.854,0.072
51.342,-0.568,0.855,0.070
51.351,-0.568,0.852,0.072
51.361,-0.570,0.855,0.072
51.371,-0.568,0.852,0.070
51.381,-0.566,0.852,0.070
51.391,-0.568,0.854,0.070
51.401,-0.566,0.852,0.076
51.411,-0.564,0.854,0.068
51.421,-0.564,0.857,0.072
51.431,-0.564,0.854,0.072
51.441,-0.562,0.855,0.072
51.451,-0.566,0.855,0.066
51.461,-0.568,0.854,0.068
51.471,-0.572,0.857,0.072
51.481,-0.572,0.855,0.068
51.490,-0.572,0.857,0.066
51.500,-0.568,0.855,0.068
51.510,-0.564,0.855,0.070
51.520,-0.566,0.854,0.068
