df_hash,22ZHK4.AG46P6
device,HZ2X61
project_hash,29R7
project_name,istanbul_aydin_university
person_hash,29R7.MUXT
person_label,V93(2)
date_time_start,2025-11-04_16-52-25.276000_+03
date_time_start_unix,1762260745.276
date_time_end,2025-11-04_17-01-09.877000_+03
length_difference_noticed,no

time,acc_x,acc_y,acc_z
4.334,-0.326,0.965,0.016
4.344,-0.332,0.953,0.010
4.354,-0.330,0.951,0.014
4.363,-0.330,0.957,0.016
4.373,-0.332,0.959,0.012
4.383,-0.338,0.963,0.012
4.393,-0.336,0.963,0.012
4.403,-0.340,0.965,0.014
4.413,-0.334,0.963,0.014
4.423,-0.334,0.955,0.012
4.433,-0.328,0.959,0.012
4.443,-0.328,0.959,0.016
4.453,-0.330,0.959,0.012
4.463,-0.324,0.965,0.016
4.473,-0.328,0.963,0.014
4.483,-0.328,0.959,0.012
4.493,-0.328,0.961,0.016
4.503,-0.330,0.959,0.012
4.513,-0.330,0.961,0.012
4.522,-0.334,0.965,0.010
4.532,-0.334,0.965,0.012
4.542,-0.334,0.963,0.014
4.552,-0.334,0.971,0.012
4.562,-0.332,0.971,0.018
4.572,-0.330,0.965,0.012
4.582,-0.326,0.957,0.004
4.592,-0.324,0.955,0.010
4.602,-0.326,0.961,0.012
4.612,-0.326,0.961,0.014
4.622,-0.326,0.961,0.014
4.632,-0.326,0.963,0.014
4.642,-0.322,0.969,0.016
4.652,-0.322,0.967,0.014
4.662,-0.320,0.965,0.014
4.672,-0.320,0.963,0.014
4.681,-0.320,0.959,0.012
4.691,-0.318,0.963,0.014
4.701,-0.324,0.961,0.008
4.711,-0.324,0.965,0.012
4.721,-0.324,0.965,0.010
4.731,-0.328,0.963,0.012
4.741,-0.326,0.963,0.012
4.751,-0.326,0.963,0.010
4.761,-0.324,0.961,0.012
4.771,-0.326,0.963,0.010
4.781,-0.324,0.961,0.008
4.791,-0.326,0.961,0.010
4.801,-0.324,0.965,0.010
4.811,-0.330,0.961,0.012
4.821,-0.324,0.965,0.012
4.831,-0.328,0.965,0.010
4.841,-0.328,0.967,0.012
4.850,-0.324,0.967,0.014
4.860,-0.328,0.965,0.014
4.870,-0.330,0.965,0.012
4.880,-0.328,0.965,0.014
4.890,-0.330,0.963,0.014
4.900,-0.330,0.959,0.012
4.910,-0.332,0.959,0.016
4.920,-0.326,0.959,0.012
4.930,-0.328,0.961,0.012
4.940,-0.330,0.967,0.018
4.950,-0.330,0.963,0.018
4.960,-0.328,0.969,0.016
4.970,-0.328,0.973,0.020
4.980,-0.330,0.963,0.020
4.990,-0.330,0.951,0.010
5.000,-0.338,0.953,0.012
5.009,-0.332,0.959,0.018
5.019,-0.332,0.959,0.016
5.029,-0.334,0.959,0.016
5.039,-0.334,0.961,0.018
5.049,-0.334,0.961,0.016
5.059,-0.334,0.961,0.016
5.069,-0.332,0.957,0.010
5.079,-0.332,0.953,0.014
5.089,-0.326,0.959,0.016
5.099,-0.328,0.959,0.016
5.109,-0.328,0.959,0.010
5.119,-0.330,0.963,0.018
5.129,-0.330,0.963,0.016
5.139,-0.334,0.959,0.010
5.149,-0.332,0.967,0.012
5.159,-0.332,0.965,0.012
5.168,-0.334,0.963,0.010
5.178,-0.336,0.961,0.008
5.188,-0.328,0.965,0.012
5.198,-0.326,0.973,0.018
5.208,-0.326,0.971,0.016
5.218,-0.326,0.959,0.010
5.228,-0.326,0.959,0.008
5.238,-0.322,0.965,0.016
5.248,-0.320,0.961,0.012
5.258,-0.322,0.967,0.016
5.268,-0.322,0.967,0.016
5.278,-0.324,0.969,0.014
5.288,-0.326,0.965,0.018
5.298,-0.324,0.961,0.010
5.308,-0.326,0.957,0.014
5.318,-0.324,0.957,0.012
5.327,-0.324,0.959,0.012
5.337,-0.324,0.961,0.010
5.347,-0.326,0.965,0.014
5.357,-0.326,0.963,0.012
5.367,-0.328,0.963,0.008
5.377,-0.326,0.957,0.012
5.387,-0.330,0.961,0.012
5.397,-0.330,0.967,0.012
5.407,-0.328,0.963,0.008
5.417,-0.332,0.959,0.008
5.427,-0.330,0.963,0.012
5.437,-0.328,0.961,0.012
5.447,-0.324,0.965,0.010
5.457,-0.324,0.961,0.008
5.467,-0.326,0.959,0.010
5.477,-0.332,0.965,0.012
5.486,-0.334,0.967,0.012
5.496,-0.334,0.969,0.012
5.506,-0.332,0.965,0.012
5.516,-0.334,0.965,0.010
5.526,-0.330,0.959,0.014
5.536,-0.328,0.959,0.014
5.546,-0.326,0.955,0.012
5.556,-0.328,0.965,0.014
5.566,-0.330,0.969,0.020
5.576,-0.330,0.963,0.016
5.586,-0.334,0.973,0.018
5.596,-0.330,0.969,0.020
5.606,-0.330,0.959,0.016
5.616,-0.332,0.953,0.016
5.626,-0.332,0.953,0.014
5.636,-0.332,0.957,0.018
5.645,-0.332,0.955,0.014
5.655,-0.336,0.965,0.020
5.665,-0.336,0.963,0.021
5.675,-0.338,0.963,0.016
5.685,-0.338,0.961,0.016
5.695,-0.336,0.961,0.020
5.705,-0.334,0.959,0.016
5.715,-0.336,0.955,0.018
5.725,-0.332,0.957,0.016
5.735,-0.332,0.961,0.020
5.745,-0.334,0.959,0.020
5.755,-0.332,0.959,0.016
5.765,-0.332,0.959,0.016
5.775,-0.332,0.959,0.016
5.785,-0.336,0.959,0.016
5.795,-0.336,0.959,0.012
5.804,-0.336,0.955,0.012
5.814,-0.332,0.963,0.016
5.824,-0.334,0.971,0.016
5.834,-0.330,0.967,0.016
5.844,-0.330,0.961,0.012
5.854,-0.326,0.959,0.008
5.864,-0.328,0.963,0.012
5.874,-0.326,0.961,0.014
5.884,-0.330,0.963,0.016
5.894,-0.326,0.969,0.016
5.904,-0.324,0.965,0.014
5.914,-0.324,0.969,0.018
5.924,-0.324,0.963,0.014
5.934,-0.320,0.963,0.016
5.944,-0.320,0.965,0.014
5.954,-0.320,0.961,0.012
5.963,-0.318,0.965,0.012
5.973,-0.324,0.963,0.014
5.983,-0.320,0.963,0.012
5.993,-0.326,0.965,0.012
6.003,-0.326,0.961,0.012
6.013,-0.324,0.963,0.012
6.023,-0.326,0.963,0.012
6.033,-0.324,0.961,0.014
6.043,-0.326,0.963,0.010
6.053,-0.320,0.961,0.014
6.063,-0.324,0.961,0.014
6.073,-0.324,0.965,0.012
6.083,-0.324,0.965,0.010
6.093,-0.322,0.963,0.014
6.103,-0.326,0.965,0.010
6.113,-0.328,0.965,0.010
6.122,-0.330,0.969,0.014
6.132,-0.332,0.969,0.014
6.142,-0.328,0.965,0.014
6.152,-0.326,0.967,0.012
6.162,-0.326,0.965,0.012
6.172,-0.328,0.959,0.014
6.182,-0.326,0.965,0.016
6.192,-0.324,0.965,0.016
6.202,-0.324,0.961,0.016
6.212,-0.326,0.967,0.020
6.222,-0.322,0.965,0.020
6.232,-0.326,0.959,0.014
6.242,-0.334,0.951,0.014
6.252,-0.334,0.955,0.014
6.262,-0.330,0.963,0.018
6.272,-0.332,0.967,0.016
6.281,-0.334,0.967,0.018
6.291,-0.338,0.969,0.016
6.301,-0.336,0.963,0.016
6.311,-0.334,0.957,0.012
6.321,-0.332,0.957,0.012
6.331,-0.330,0.955,0.014
6.341,-0.328,0.957,0.014
6.351,-0.324,0.961,0.021
6.361,-0.324,0.963,0.021
6.371,-0.328,0.963,0.020
6.381,-0.328,0.965,0.016
6.391,-0.328,0.963,0.020
6.401,-0.328,0.961,0.021
6.411,-0.328,0.961,0.018
6.421,-0.328,0.959,0.016
6.431,-0.336,0.959,0.016
6.440,-0.334,0.959,0.014
6.450,-0.332,0.969,0.014
6.460,-0.332,0.973,0.020
6.470,-0.326,0.967,0.014
6.480,-0.326,0.961,0.014
6.490,-0.328,0.961,0.014
6.500,-0.324,0.965,0.016
6.510,-0.322,0.965,0.014
6.520,-0.322,0.965,0.016
6.530,-0.324,0.971,0.016
6.540,-0.322,0.955,0.010
6.550,-0.318,0.961,0.014
6.560,-0.316,0.979,0.027
6.570,-0.314,0.963,0.016
6.580,-0.322,0.963,0.012
6.590,-0.316,0.959,0.016
6.599,-0.320,0.957,0.014
6.609,-0.324,0.963,0.012
6.619,-0.328,0.965,0.010
6.629,-0.330,0.961,0.014
6.639,-0.332,0.963,0.012
6.649,-0.330,0.963,0.012
6.659,-0.326,0.961,0.010
6.669,-0.328,0.965,0.012
6.679,-0.326,0.963,0.014
6.689,-0.326,0.963,0.010
6.699,-0.324,0.965,0.010
6.709,-0.328,0.963,0.014
6.719,-0.326,0.965,0.012
6.729,-0.326,0.967,0.014
6.739,-0.324,0.965,0.014
6.749,-0.326,0.965,0.012
6.758,-0.326,0.965,0.016
6.768,-0.326,0.965,0.016
6.778,-0.326,0.965,0.010
6.788,-0.324,0.961,0.016
6.798,-0.330,0.965,0.016
6.808,-0.326,0.959,0.012
6.818,-0.326,0.963,0.016
6.828,-0.328,0.971,0.018
6.838,-0.322,0.961,0.014
6.848,-0.330,0.961,0.016
6.858,-0.328,0.965,0.021
6.868,-0.330,0.963,0.016
6.878,-0.332,0.953,0.012
6.888,-0.334,0.955,0.014
6.898,-0.332,0.961,0.018
6.908,-0.334,0.963,0.018
6.918,-0.336,0.967,0.018
6.927,-0.338,0.965,0.016
6.937,-0.338,0.963,0.012
6.947,-0.334,0.961,0.012
6.957,-0.332,0.957,0.014
6.967,-0.328,0.957,0.014
6.977,-0.328,0.961,0.012
6.987,-0.322,0.961,0.014
6.997,-0.322,0.965,0.014
7.007,-0.324,0.967,0.018
7.017,-0.324,0.963,0.018
7.027,-0.324,0.961,0.016
7.037,-0.328,0.961,0.014
7.047,-0.326,0.959,0.012
7.057,-0.328,0.963,0.014
7.067,-0.330,0.967,0.010
7.077,-0.332,0.961,0.010
7.086,-0.328,0.963,0.012
7.096,-0.332,0.969,0.016
7.106,-0.328,0.971,0.016
7.116,-0.324,0.963,0.014
7.126,-0.326,0.959,0.008
7.136,-0.320,0.963,0.014
7.146,-0.322,0.967,0.016
7.156,-0.324,0.971,0.014
7.166,-0.318,0.969,0.016
7.176,-0.314,0.969,0.018
7.186,-0.316,0.963,0.014
7.196,-0.314,0.957,0.012
7.206,-0.314,0.961,0.014
7.216,-0.318,0.961,0.014
7.226,-0.318,0.963,0.014
7.236,-0.320,0.965,0.012
7.245,-0.320,0.967,0.010
7.255,-0.320,0.963,0.010
7.265,-0.322,0.965,0.010
7.275,-0.318,0.965,0.008
7.285,-0.322,0.967,0.012
7.295,-0.324,0.965,0.006
7.305,-0.326,0.967,0.010
7.315,-0.324,0.965,0.008
7.325,-0.328,0.965,0.012
7.335,-0.326,0.963,0.010
7.345,-0.324,0.963,0.012
7.355,-0.322,0.963,0.010
7.365,-0.320,0.965,0.012
7.375,-0.318,0.965,0.012
7.385,-0.318,0.961,0.012
7.395,-0.322,0.967,0.016
7.404,-0.322,0.965,0.014
7.414,-0.328,0.963,0.014
7.424,-0.326,0.965,0.012
7.434,-0.328,0.967,0.014
7.444,-0.330,0.965,0.016
7.454,-0.328,0.965,0.014
7.464,-0.324,0.963,0.016
7.474,-0.328,0.965,0.012
7.484,-0.324,0.969,0.014
7.494,-0.328,0.959,0.014
7.504,-0.324,0.961,0.008
7.514,-0.326,0.955,0.010
7.524,-0.324,0.959,0.012
7.534,-0.328,0.969,0.018
7.544,-0.324,0.967,0.012
7.554,-0.318,0.969,0.014
7.563,-0.322,0.973,0.018
7.573,-0.320,0.967,0.012
7.583,-0.326,0.959,0.010
7.593,-0.324,0.961,0.012
7.603,-0.324,0.963,0.014
7.613,-0.324,0.965,0.016
7.623,-0.328,0.965,0.018
7.633,-0.328,0.967,0.016
7.643,-0.326,0.965,0.016
7.653,-0.328,0.961,0.018
7.663,-0.322,0.959,0.016
7.673,-0.322,0.957,0.016
7.683,-0.322,0.953,0.014
7.693,-0.322,0.957,0.012
7.703,-0.324,0.959,0.016
7.713,-0.328,0.965,0.016
7.722,-0.328,0.963,0.012
7.732,-0.332,0.967,0.012
7.742,-0.332,0.967,0.016
7.752,-0.332,0.965,0.014
7.762,-0.334,0.965,0.012
7.772,-0.332,0.961,0.010
7.782,-0.324,0.955,0.012
7.792,-0.320,0.969,0.012
7.802,-0.322,0.975,0.016
7.812,-0.322,0.971,0.012
7.822,-0.320,0.961,0.012
7.832,-0.318,0.965,0.012
7.842,-0.318,0.969,0.016
7.852,-0.318,0.969,0.014
7.862,-0.320,0.967,0.014
7.872,-0.318,0.965,0.016
7.881,-0.316,0.969,0.018
7.891,-0.318,0.963,0.012
7.901,-0.320,0.963,0.012
7.911,-0.320,0.963,0.012
7.921,-0.318,0.963,0.012
7.931,-0.322,0.963,0.010
7.941,-0.322,0.963,0.012
7.951,-0.322,0.965,0.014
7.961,-0.324,0.963,0.012
7.971,-0.322,0.961,0.008
7.981,-0.322,0.965,0.010
7.991,-0.322,0.963,0.012
8.001,-0.322,0.961,0.010
8.011,-0.322,0.965,0.012
8.021,-0.322,0.969,0.016
8.031,-0.320,0.959,0.012
8.040,-0.318,0.963,0.012
8.050,-0.316,0.961,0.014
8.060,-0.320,0.963,0.010
8.070,-0.322,0.961,0.008
8.080,-0.330,0.965,0.010
8.090,-0.328,0.971,0.008
8.100,-0.330,0.967,0.008
8.110,-0.326,0.969,0.014
8.120,-0.326,0.973,0.008
8.130,-0.324,0.969,0.008
8.140,-0.324,0.969,0.012
8.150,-0.324,0.965,0.010
8.160,-0.322,0.965,0.010
8.170,-0.324,0.965,0.008
8.180,-0.318,0.959,0.006
8.190,-0.320,0.969,0.012
8.199,-0.320,0.971,0.014
8.209,-0.318,0.967,0.012
8.219,-0.320,0.967,0.014
8.229,-0.320,0.967,0.016
8.239,-0.324,0.959,0.014
8.249,-0.326,0.957,0.014
8.259,-0.328,0.955,0.008
8.269,-0.326,0.959,0.014
8.279,-0.324,0.963,0.014
8.289,-0.328,0.967,0.014
8.299,-0.326,0.967,0.012
8.309,-0.326,0.961,0.014
8.319,-0.326,0.965,0.012
8.329,-0.326,0.959,0.014
8.339,-0.326,0.957,0.010
8.349,-0.324,0.961,0.014
8.358,-0.318,0.965,0.016
8.368,-0.322,0.965,0.018
8.378,-0.324,0.967,0.012
8.388,-0.322,0.969,0.016
8.398,-0.322,0.965,0.014
8.408,-0.324,0.965,0.010
8.418,-0.324,0.963,0.012
8.428,-0.324,0.961,0.012
8.438,-0.328,0.959,0.010
8.448,-0.326,0.965,0.010
8.458,-0.326,0.975,0.012
8.468,-0.326,0.977,0.014
8.478,-0.324,0.967,0.014
8.488,-0.326,0.961,0.014
8.498,-0.324,0.967,0.014
8.508,-0.320,0.963,0.012
8.517,-0.322,0.961,0.014
8.527,-0.320,0.965,0.016
8.537,-0.316,0.963,0.018
8.547,-0.318,0.961,0.018
8.557,-0.320,0.965,0.018
8.567,-0.322,0.963,0.014
8.577,-0.322,0.965,0.016
8.587,-0.320,0.963,0.020
8.597,-0.318,0.961,0.018
8.607,-0.320,0.963,0.016
8.617,-0.320,0.963,0.020
8.627,-0.324,0.963,0.018
8.637,-0.318,0.963,0.016
8.647,-0.320,0.961,0.020
8.657,-0.318,0.961,0.018
8.667,-0.320,0.961,0.016
8.676,-0.322,0.963,0.016
8.686,-0.322,0.969,0.016
8.696,-0.322,0.969,0.016
8.706,-0.324,0.965,0.016
8.716,-0.324,0.967,0.020
8.726,-0.322,0.965,0.020
8.736,-0.320,0.965,0.018
8.746,-0.318,0.965,0.018
8.756,-0.318,0.965,0.016
8.766,-0.322,0.965,0.016
8.776,-0.322,0.967,0.016
8.786,-0.328,0.971,0.018
8.796,-0.326,0.967,0.020
8.806,-0.324,0.965,0.021
8.816,-0.324,0.969,0.018
8.826,-0.326,0.961,0.020
8.835,-0.322,0.961,0.018
8.845,-0.324,0.963,0.020
8.855,-0.324,0.963,0.020
8.865,-0.324,0.967,0.020
8.875,-0.318,0.961,0.023
8.885,-0.320,0.963,0.021
8.895,-0.328,0.969,0.025
8.905,-0.326,0.963,0.025
8.915,-0.326,0.953,0.020
8.925,-0.330,0.953,0.018
8.935,-0.328,0.955,0.020
8.945,-0.328,0.957,0.021
8.955,-0.330,0.965,0.023
8.965,-0.328,0.969,0.020
8.975,-0.332,0.965,0.021
8.985,-0.330,0.961,0.018
8.995,-0.330,0.963,0.018
9.004,-0.330,0.959,0.021
9.014,-0.326,0.957,0.018
9.024,-0.324,0.963,0.021
9.034,-0.324,0.965,0.018
9.044,-0.324,0.967,0.021
9.054,-0.324,0.969,0.020
9.064,-0.320,0.963,0.020
9.074,-0.322,0.963,0.021
9.084,-0.324,0.963,0.020
9.094,-0.324,0.959,0.018
9.104,-0.326,0.965,0.021
9.114,-0.330,0.961,0.016
9.124,-0.326,0.959,0.018
9.134,-0.326,0.967,0.021
9.144,-0.324,0.971,0.018
9.154,-0.324,0.971,0.018
9.163,-0.320,0.965,0.020
9.173,-0.320,0.965,0.016
9.183,-0.316,0.965,0.020
9.193,-0.318,0.969,0.018
9.203,-0.318,0.969,0.020
9.213,-0.318,0.971,0.023
9.223,-0.314,0.969,0.020
9.233,-0.318,0.969,0.020
9.243,-0.318,0.969,0.018
9.253,-0.320,0.967,0.018
9.263,-0.322,0.967,0.020
9.273,-0.320,0.963,0.016
9.283,-0.318,0.965,0.018
9.293,-0.318,0.963,0.020
9.303,-0.318,0.963,0.018
9.313,-0.324,0.965,0.016
9.322,-0.322,0.963,0.014
9.332,-0.322,0.963,0.016
9.342,-0.326,0.965,0.016
9.352,-0.328,0.965,0.016
9.362,-0.328,0.965,0.018
9.372,-0.326,0.963,0.014
9.382,-0.324,0.963,0.018
9.392,-0.324,0.963,0.016
9.402,-0.324,0.965,0.016
9.412,-0.320,0.963,0.016
9.422,-0.320,0.965,0.018
9.432,-0.320,0.965,0.016
9.442,-0.320,0.961,0.018
9.452,-0.326,0.963,0.018
9.462,-0.326,0.967,0.018
9.472,-0.328,0.969,0.020
9.481,-0.330,0.965,0.020
9.491,-0.330,0.965,0.021
9.501,-0.326,0.967,0.020
9.511,-0.322,0.959,0.021
9.521,-0.322,0.963,0.020
9.531,-0.324,0.967,0.021
9.541,-0.322,0.963,0.021
9.551,-0.322,0.965,0.020
9.561,-0.324,0.967,0.025
9.571,-0.324,0.967,0.023
9.581,-0.326,0.959,0.018
9.591,-0.324,0.957,0.016
9.601,-0.322,0.961,0.018
9.611,-0.324,0.963,0.018
9.621,-0.328,0.967,0.018
9.631,-0.332,0.971,0.020
9.640,-0.330,0.967,0.021
9.650,-0.330,0.965,0.016
9.660,-0.328,0.961,0.016
9.670,-0.328,0.961,0.018
9.680,-0.324,0.959,0.021
9.690,-0.324,0.961,0.021
9.700,-0.322,0.963,0.020
9.710,-0.318,0.967,0.018
9.720,-0.322,0.965,0.021
9.730,-0.324,0.961,0.020
9.740,-0.322,0.963,0.016
9.750,-0.326,0.963,0.020
9.760,-0.328,0.963,0.018
9.770,-0.324,0.963,0.016
9.780,-0.336,0.963,0.018
9.790,-0.332,0.961,0.018
9.799,-0.328,0.965,0.020
9.809,-0.326,0.969,0.020
9.819,-0.322,0.969,0.021
9.829,-0.322,0.961,0.018
9.839,-0.320,0.961,0.016
9.849,-0.320,0.963,0.020
9.859,-0.318,0.963,0.020
9.869,-0.316,0.969,0.023
9.879,-0.314,0.967,0.023
9.889,-0.314,0.969,0.020
9.899,-0.316,0.971,0.016
9.909,-0.316,0.963,0.021
9.919,-0.318,0.961,0.018
9.929,-0.318,0.965,0.020
9.939,-0.326,0.961,0.018
9.949,-0.318,0.961,0.018
9.958,-0.322,0.963,0.016
9.968,-0.324,0.965,0.012
9.978,-0.322,0.961,0.018
9.988,-0.324,0.965,0.016
9.998,-0.324,0.969,0.012
10.008,-0.326,0.969,0.012
10.018,-0.326,0.969,0.012
10.028,-0.324,0.967,0.012
10.038,-0.318,0.963,0.010
10.048,-0.320,0.965,0.012
10.058,-0.320,0.965,0.012
10.068,-0.318,0.967,0.012
10.078,-0.322,0.965,0.012
10.088,-0.322,0.969,0.014
10.098,-0.320,0.969,0.016
10.108,-0.320,0.967,0.018
10.117,-0.318,0.963,0.016
10.127,-0.320,0.965,0.016
10.137,-0.322,0.965,0.016
10.147,-0.328,0.965,0.018
10.157,-0.324,0.965,0.018
10.167,-0.326,0.969,0.016
10.177,-0.326,0.959,0.016
10.187,-0.324,0.961,0.016
10.197,-0.322,0.967,0.021
10.207,-0.316,0.961,0.016
10.217,-0.318,0.961,0.018
10.227,-0.316,0.971,0.025
10.237,-0.318,0.967,0.021
10.247,-0.326,0.957,0.018
10.257,-0.328,0.955,0.010
10.267,-0.324,0.959,0.018
10.276,-0.326,0.963,0.018
10.286,-0.330,0.965,0.018
10.296,-0.328,0.971,0.020
10.306,-0.328,0.967,0.018
10.316,-0.330,0.963,0.014
10.326,-0.326,0.959,0.018
10.336,-0.324,0.959,0.014
10.346,-0.322,0.961,0.014
10.356,-0.322,0.961,0.018
10.366,-0.320,0.963,0.021
10.376,-0.320,0.967,0.020
10.386,-0.320,0.967,0.021
10.396,-0.320,0.965,0.020
10.406,-0.324,0.963,0.018
10.416,-0.326,0.965,0.014
10.426,-0.328,0.963,0.010
10.435,-0.330,0.965,0.014
10.445,-0.326,0.957,0.014
10.455,-0.324,0.963,0.016
10.465,-0.324,0.975,0.021
10.475,-0.322,0.979,0.020
10.485,-0.318,0.967,0.020
10.495,-0.318,0.961,0.016
10.505,-0.318,0.963,0.014
10.515,-0.316,0.963,0.018
10.525,-0.320,0.967,0.016
10.535,-0.320,0.969,0.016
10.545,-0.318,0.967,0.020
10.555,-0.316,0.971,0.020
10.565,-0.314,0.961,0.020
10.575,-0.314,0.963,0.016
10.585,-0.316,0.959,0.016
10.594,-0.316,0.963,0.014
10.604,-0.316,0.965,0.016
10.614,-0.320,0.963,0.018
10.624,-0.320,0.965,0.018
10.634,-0.324,0.967,0.018
10.644,-0.324,0.965,0.016
10.654,-0.320,0.961,0.014
10.664,-0.320,0.965,0.016
10.674,-0.320,0.963,0.014
10.684,-0.324,0.963,0.012
10.694,-0.318,0.963,0.018
10.704,-0.318,0.963,0.016
10.714,-0.318,0.969,0.012
10.724,-0.314,0.967,0.016
10.734,-0.320,0.969,0.014
10.744,-0.320,0.969,0.012
10.753,-0.320,0.969,0.012
10.763,-0.322,0.969,0.014
10.773,-0.322,0.971,0.014
10.783,-0.324,0.969,0.014
10.793,-0.328,0.971,0.014
10.803,-0.326,0.965,0.016
10.813,-0.324,0.967,0.016
10.823,-0.322,0.965,0.016
10.833,-0.320,0.959,0.018
10.843,-0.320,0.963,0.021
10.853,-0.320,0.967,0.021
10.863,-0.320,0.963,0.016
10.873,-0.320,0.965,0.021
10.883,-0.322,0.967,0.018
10.893,-0.324,0.963,0.021
10.903,-0.328,0.959,0.014
10.912,-0.330,0.961,0.018
10.922,-0.330,0.963,0.018
10.932,-0.330,0.961,0.016
10.942,-0.330,0.963,0.020
10.952,-0.328,0.965,0.023
10.962,-0.324,0.963,0.020
10.972,-0.324,0.959,0.020
10.982,-0.320,0.955,0.018
10.992,-0.322,0.957,0.018
11.002,-0.322,0.953,0.020
11.012,-0.320,0.963,0.018
11.022,-0.322,0.963,0.021
11.032,-0.322,0.963,0.016
11.042,-0.324,0.963,0.020
11.052,-0.322,0.961,0.018
11.062,-0.324,0.963,0.020
11.072,-0.328,0.965,0.016
11.081,-0.334,0.965,0.014
11.091,-0.328,0.963,0.016
11.101,-0.322,0.969,0.016
11.111,-0.324,0.979,0.020
11.121,-0.322,0.971,0.014
11.131,-0.320,0.961,0.014
11.141,-0.314,0.965,0.018
11.151,-0.314,0.967,0.020
11.161,-0.318,0.971,0.020
11.171,-0.324,0.971,0.020
11.181,-0.320,0.973,0.018
11.191,-0.318,0.971,0.018
11.201,-0.318,0.969,0.018
11.211,-0.316,0.969,0.018
11.221,-0.314,0.963,0.016
11.231,-0.318,0.965,0.020
11.240,-0.322,0.963,0.020
11.250,-0.324,0.961,0.020
11.260,-0.320,0.961,0.016
11.270,-0.324,0.963,0.018
11.280,-0.324,0.963,0.023
11.290,-0.324,0.963,0.020
11.300,-0.322,0.967,0.016
11.310,-0.324,0.961,0.018
11.320,-0.324,0.959,0.014
11.330,-0.324,0.959,0.016
11.340,-0.322,0.961,0.020
11.350,-0.322,0.967,0.016
11.360,-0.322,0.969,0.021
11.370,-0.322,0.969,0.021
11.380,-0.320,0.967,0.018
11.390,-0.324,0.963,0.018
11.399,-0.320,0.965,0.021
11.409,-0.318,0.961,0.020
11.419,-0.320,0.963,0.018
11.429,-0.318,0.963,0.018
11.439,-0.322,0.965,0.018
11.449,-0.318,0.959,0.020
11.459,-0.314,0.957,0.014
11.469,-0.316,0.975,0.021
11.479,-0.318,0.975,0.016
11.489,-0.318,0.965,0.014
11.499,-0.320,0.967,0.014
11.509,-0.324,0.973,0.014
11.519,-0.324,0.969,0.012
11.529,-0.330,0.969,0.010
11.539,-0.328,0.971,0.012
11.549,-0.324,0.975,0.016
11.558,-0.326,0.971,0.014
11.568,-0.322,0.967,0.014
11.578,-0.320,0.965,0.016
11.588,-0.322,0.963,0.018
11.598,-0.320,0.959,0.016
11.608,-0.314,0.959,0.016
11.618,-0.316,0.955,0.018
11.628,-0.320,0.957,0.016
11.638,-0.322,0.959,0.018
11.648,-0.324,0.961,0.018
11.658,-0.328,0.961,0.020
11.668,-0.326,0.961,0.016
11.678,-0.328,0.963,0.016
11.688,-0.330,0.965,0.014
11.698,-0.334,0.965,0.014
11.708,-0.334,0.959,0.010
11.717,-0.332,0.957,0.010
11.727,-0.326,0.969,0.016
11.737,-0.326,0.973,0.018
11.747,-0.324,0.969,0.014
11.757,-0.322,0.967,0.010
11.767,-0.322,0.969,0.018
11.777,-0.322,0.971,0.018
11.787,-0.320,0.967,0.018
11.797,-0.322,0.965,0.018
11.807,-0.320,0.963,0.018
11.817,-0.314,0.961,0.020
11.827,-0.318,0.961,0.021
11.837,-0.322,0.959,0.021
11.847,-0.324,0.961,0.016
11.857,-0.324,0.963,0.020
11.867,-0.328,0.963,0.018
11.876,-0.326,0.969,0.016
11.886,-0.324,0.965,0.016
11.896,-0.326,0.957,0.014
11.906,-0.322,0.959,0.014
11.916,-0.322,0.967,0.016
11.926,-0.324,0.965,0.012
11.936,-0.324,0.965,0.012
11.946,-0.322,0.965,0.018
11.956,-0.318,0.965,0.010
11.966,-0.322,0.967,0.014
11.976,-0.322,0.969,0.014
11.986,-0.322,0.969,0.014
11.996,-0.322,0.967,0.016
12.006,-0.320,0.967,0.014
12.016,-0.320,0.965,0.020
12.026,-0.322,0.963,0.016
12.035,-0.320,0.959,0.014
12.045,-0.324,0.959,0.014
12.055,-0.324,0.953,0.014
12.065,-0.322,0.959,0.016
12.075,-0.324,0.971,0.021
12.085,-0.328,0.979,0.021
12.095,-0.328,0.969,0.020
12.105,-0.326,0.973,0.020
12.115,-0.324,0.969,0.020
12.125,-0.328,0.961,0.018
12.135,-0.330,0.959,0.016
12.145,-0.330,0.957,0.018
12.155,-0.328,0.963,0.023
12.165,-0.326,0.961,0.020
12.175,-0.326,0.963,0.021
12.185,-0.328,0.965,0.018
12.194,-0.322,0.961,0.023
12.204,-0.324,0.953,0.021
12.214,-0.320,0.949,0.020
12.224,-0.322,0.949,0.014
12.234,-0.326,0.953,0.016
12.244,-0.332,0.963,0.018
12.254,-0.332,0.971,0.021
12.264,-0.334,0.973,0.018
12.274,-0.332,0.971,0.016
12.284,-0.334,0.963,0.014
12.294,-0.336,0.967,0.014
12.304,-0.336,0.965,0.010
12.314,-0.336,0.961,0.010
12.324,-0.334,0.959,0.010
12.334,-0.326,0.971,0.018
12.344,-0.322,0.975,0.020
12.353,-0.320,0.975,0.023
12.363,-0.318,0.961,0.023
12.373,-0.318,0.961,0.018
12.383,-0.320,0.965,0.020
12.393,-0.320,0.965,0.020
12.403,-0.322,0.965,0.020
12.413,-0.320,0.965,0.020
12.423,-0.322,0.969,0.020
12.433,-0.322,0.965,0.020
12.443,-0.328,0.965,0.021
12.453,-0.328,0.965,0.021
12.463,-0.328,0.961,0.020
12.473,-0.326,0.959,0.025
12.483,-0.324,0.959,0.021
12.493,-0.326,0.963,0.020
12.503,-0.328,0.963,0.020
12.512,-0.324,0.957,0.018
12.522,-0.324,0.957,0.023
12.532,-0.324,0.959,0.018
12.542,-0.320,0.957,0.021
12.552,-0.326,0.957,0.021
12.562,-0.324,0.959,0.018
12.572,-0.326,0.963,0.016
12.582,-0.330,0.965,0.016
12.592,-0.332,0.971,0.016
12.602,-0.332,0.973,0.016
12.612,-0.336,0.971,0.014
12.622,-0.330,0.969,0.016
12.632,-0.332,0.965,0.012
12.642,-0.330,0.965,0.014
12.652,-0.330,0.961,0.014
12.662,-0.324,0.957,0.016
12.671,-0.318,0.967,0.016
12.681,-0.322,0.967,0.021
12.691,-0.320,0.967,0.021
12.701,-0.320,0.975,0.023
12.711,-0.322,0.969,0.021
12.721,-0.326,0.955,0.016
12.731,-0.328,0.955,0.012
12.741,-0.334,0.959,0.016
12.751,-0.334,0.961,0.018
12.761,-0.332,0.963,0.018
12.771,-0.334,0.965,0.018
12.781,-0.336,0.965,0.018
12.791,-0.332,0.961,0.016
12.801,-0.330,0.959,0.012
12.811,-0.330,0.955,0.014
12.821,-0.330,0.963,0.016
12.830,-0.328,0.959,0.018
12.840,-0.326,0.963,0.018
12.850,-0.328,0.961,0.016
12.860,-0.326,0.963,0.016
12.870,-0.326,0.961,0.014
12.880,-0.332,0.965,0.016
12.890,-0.332,0.961,0.014
12.900,-0.328,0.963,0.014
12.910,-0.330,0.957,0.016
12.920,-0.334,0.959,0.012
12.930,-0.330,0.959,0.012
12.940,-0.326,0.967,0.012
12.950,-0.332,0.973,0.016
12.960,-0.328,0.969,0.014
12.970,-0.326,0.961,0.008
12.980,-0.326,0.963,0.010
12.990,-0.326,0.967,0.014
12.999,-0.322,0.967,0.016
13.009,-0.324,0.971,0.018
13.019,-0.322,0.969,0.016
13.029,-0.318,0.969,0.016
13.039,-0.322,0.963,0.018
13.049,-0.322,0.963,0.014
13.059,-0.320,0.961,0.020
13.069,-0.322,0.963,0.018
13.079,-0.322,0.959,0.016
13.089,-0.324,0.959,0.021
13.099,-0.324,0.961,0.018
13.109,-0.326,0.961,0.018
13.119,-0.326,0.963,0.018
13.129,-0.324,0.961,0.018
13.139,-0.330,0.963,0.016
13.149,-0.332,0.965,0.016
13.158,-0.332,0.963,0.012
13.168,-0.330,0.963,0.014
13.178,-0.326,0.965,0.014
13.188,-0.326,0.965,0.016
13.198,-0.326,0.967,0.018
13.208,-0.324,0.967,0.016
13.218,-0.326,0.969,0.020
13.228,-0.326,0.965,0.020
13.238,-0.324,0.969,0.020
13.248,-0.326,0.965,0.020
13.258,-0.328,0.959,0.021
13.268,-0.324,0.967,0.020
13.278,-0.322,0.961,0.021
13.288,-0.324,0.961,0.023
13.298,-0.322,0.969,0.029
13.308,-0.324,0.963,0.023
13.317,-0.332,0.955,0.021
13.327,-0.328,0.953,0.014
13.337,-0.330,0.955,0.021
13.347,-0.330,0.961,0.020
13.357,-0.332,0.965,0.020
13.367,-0.334,0.963,0.023
13.377,-0.334,0.967,0.018
13.387,-0.332,0.963,0.021
13.397,-0.330,0.961,0.018
13.407,-0.330,0.961,0.018
13.417,-0.328,0.959,0.018
13.427,-0.328,0.963,0.021
13.437,-0.322,0.967,0.021
13.447,-0.322,0.969,0.020
13.457,-0.320,0.963,0.020
13.467,-0.324,0.961,0.018
13.476,-0.320,0.963,0.018
13.486,-0.324,0.959,0.018
13.496,-0.326,0.965,0.020
13.506,-0.324,0.965,0.018
13.516,-0.330,0.963,0.016
13.526,-0.328,0.959,0.016
13.536,-0.324,0.963,0.018
13.546,-0.326,0.969,0.020
13.556,-0.322,0.969,0.016
13.566,-0.322,0.963,0.016
13.576,-0.326,0.963,0.014
13.586,-0.320,0.967,0.016
13.596,-0.322,0.969,0.018
13.606,-0.324,0.969,0.021
13.616,-0.320,0.967,0.016
13.626,-0.320,0.967,0.020
13.635,-0.322,0.967,0.018
13.645,-0.322,0.965,0.018
13.655,-0.320,0.963,0.020
13.665,-0.318,0.963,0.016
13.675,-0.318,0.963,0.016
13.685,-0.320,0.965,0.018
13.695,-0.322,0.965,0.018
13.705,-0.322,0.965,0.016
13.715,-0.324,0.963,0.016
13.725,-0.326,0.963,0.016
13.735,-0.330,0.967,0.014
13.745,-0.330,0.963,0.014
13.755,-0.330,0.965,0.014
13.765,-0.330,0.963,0.016
13.775,-0.328,0.963,0.014
13.785,-0.330,0.963,0.014
13.794,-0.330,0.963,0.018
13.804,-0.330,0.965,0.014
13.814,-0.326,0.965,0.012
13.824,-0.328,0.965,0.020
13.834,-0.326,0.965,0.020
13.844,-0.324,0.965,0.020
13.854,-0.330,0.959,0.020
13.864,-0.332,0.963,0.021
13.874,-0.324,0.965,0.020
13.884,-0.328,0.963,0.020
13.894,-0.326,0.965,0.025
13.904,-0.328,0.963,0.025
13.914,-0.332,0.951,0.020
13.924,-0.334,0.953,0.012
13.934,-0.336,0.955,0.016
13.944,-0.332,0.965,0.020
13.953,-0.336,0.969,0.020
13.963,-0.336,0.973,0.020
13.973,-0.336,0.967,0.020
13.983,-0.336,0.965,0.021
13.993,-0.330,0.957,0.020
14.003,-0.328,0.955,0.018
14.013,-0.324,0.961,0.016
14.023,-0.326,0.963,0.018
14.033,-0.322,0.967,0.020
14.043,-0.320,0.967,0.021
14.053,-0.322,0.967,0.021
14.063,-0.324,0.963,0.021
14.073,-0.324,0.961,0.021
14.083,-0.326,0.959,0.020
14.093,-0.326,0.957,0.016
14.103,-0.326,0.961,0.020
14.112,-0.330,0.961,0.016
14.122,-0.334,0.963,0.018
14.132,-0.332,0.969,0.020
14.142,-0.330,0.971,0.018
14.152,-0.326,0.971,0.021
14.162,-0.322,0.963,0.016
14.172,-0.324,0.959,0.016
14.182,-0.320,0.963,0.016
14.192,-0.322,0.967,0.018
14.202,-0.320,0.971,0.021
14.212,-0.322,0.973,0.021
14.222,-0.316,0.973,0.021
14.232,-0.314,0.967,0.021
14.242,-0.318,0.961,0.018
14.252,-0.318,0.959,0.020
14.262,-0.316,0.965,0.018
14.271,-0.318,0.961,0.020
14.281,-0.320,0.965,0.020
14.291,-0.322,0.963,0.020
14.301,-0.328,0.963,0.020
14.311,-0.328,0.961,0.018
14.321,-0.326,0.965,0.020
14.331,-0.330,0.961,0.014
14.341,-0.330,0.959,0.016
14.351,-0.330,0.963,0.016
14.361,-0.330,0.963,0.014
14.371,-0.332,0.965,0.014
14.381,-0.328,0.963,0.014
14.391,-0.328,0.965,0.014
14.401,-0.324,0.965,0.018
14.411,-0.326,0.965,0.018
14.421,-0.324,0.963,0.016
14.430,-0.326,0.965,0.016
14.440,-0.326,0.967,0.016
14.450,-0.328,0.967,0.018
14.460,-0.328,0.969,0.018
14.470,-0.328,0.965,0.018
14.480,-0.326,0.959,0.020
14.490,-0.326,0.963,0.020
14.500,-0.326,0.969,0.025
14.510,-0.324,0.961,0.021
14.520,-0.328,0.965,0.020
14.530,-0.326,0.967,0.027
14.540,-0.330,0.959,0.021
14.550,-0.336,0.947,0.014
14.560,-0.334,0.955,0.020
14.570,-0.332,0.961,0.020
14.580,-0.330,0.967,0.023
14.589,-0.336,0.967,0.023
14.599,-0.334,0.969,0.020
14.609,-0.332,0.965,0.016
14.619,-0.332,0.959,0.014
14.629,-0.328,0.957,0.018
14.639,-0.324,0.959,0.018
14.649,-0.324,0.957,0.020
14.659,-0.322,0.963,0.023
14.669,-0.324,0.965,0.023
14.679,-0.324,0.967,0.023
14.689,-0.326,0.967,0.020
14.699,-0.322,0.965,0.020
14.709,-0.326,0.965,0.016
14.719,-0.330,0.963,0.016
14.729,-0.332,0.963,0.014
14.739,-0.332,0.965,0.012
14.748,-0.332,0.961,0.016
14.758,-0.330,0.967,0.016
14.768,-0.334,0.971,0.018
14.778,-0.328,0.969,0.018
14.788,-0.324,0.957,0.018
14.798,-0.324,0.959,0.014
14.808,-0.324,0.961,0.018
14.818,-0.322,0.965,0.021
14.828,-0.322,0.969,0.020
14.838,-0.322,0.969,0.023
14.848,-0.322,0.967,0.023
14.858,-0.320,0.963,0.021
14.868,-0.318,0.961,0.025
14.878,-0.318,0.957,0.020
14.888,-0.322,0.961,0.018
14.898,-0.320,0.963,0.018
14.907,-0.324,0.965,0.020
14.917,-0.324,0.963,0.020
14.927,-0.324,0.963,0.023
14.937,-0.324,0.963,0.021
14.947,-0.328,0.965,0.020
14.957,-0.330,0.961,0.018
14.967,-0.332,0.963,0.016
14.977,-0.332,0.963,0.014
14.987,-0.328,0.965,0.014
14.997,-0.328,0.967,0.018
15.007,-0.324,0.965,0.020
15.017,-0.322,0.965,0.014
15.027,-0.320,0.967,0.018
15.037,-0.318,0.967,0.016
15.047,-0.318,0.965,0.016
15.057,-0.322,0.963,0.016
15.067,-0.324,0.971,0.018
15.076,-0.326,0.969,0.020
15.086,-0.322,0.971,0.016
15.096,-0.324,0.967,0.016
15.106,-0.324,0.965,0.014
15.116,-0.324,0.959,0.014
15.126,-0.326,0.969,0.020
15.136,-0.324,0.971,0.021
15.146,-0.324,0.963,0.018
15.156,-0.326,0.971,0.021
15.166,-0.322,0.973,0.027
15.176,-0.324,0.959,0.016
15.186,-0.330,0.949,0.014
15.196,-0.332,0.955,0.018
15.206,-0.332,0.957,0.020
15.216,-0.334,0.965,0.020
15.226,-0.338,0.971,0.021
15.235,-0.334,0.965,0.021
15.245,-0.334,0.963,0.021
15.255,-0.328,0.961,0.018
15.265,-0.328,0.957,0.018
15.275,-0.324,0.955,0.018
15.285,-0.324,0.955,0.020
15.295,-0.326,0.959,0.020
15.305,-0.328,0.963,0.021
15.315,-0.326,0.963,0.020
15.325,-0.328,0.967,0.021
15.335,-0.330,0.965,0.020
15.345,-0.334,0.967,0.020
15.355,-0.334,0.963,0.018
15.365,-0.332,0.961,0.016
15.375,-0.332,0.957,0.014
15.385,-0.330,0.963,0.016
15.394,-0.330,0.973,0.018
15.404,-0.330,0.971,0.021
15.414,-0.326,0.963,0.020
15.424,-0.326,0.963,0.020
15.434,-0.322,0.967,0.021
15.444,-0.320,0.965,0.020
15.454,-0.320,0.965,0.021
15.464,-0.320,0.967,0.020
15.474,-0.318,0.965,0.020
15.484,-0.320,0.967,0.020
15.494,-0.318,0.963,0.021
15.504,-0.322,0.961,0.020
15.514,-0.318,0.963,0.020
15.524,-0.320,0.963,0.018
15.534,-0.320,0.961,0.020
15.544,-0.320,0.965,0.020
15.553,-0.320,0.967,0.020
15.563,-0.320,0.963,0.018
15.573,-0.318,0.965,0.018
15.583,-0.320,0.965,0.018
15.593,-0.326,0.965,0.016
15.603,-0.324,0.963,0.016
15.613,-0.326,0.963,0.016
15.623,-0.322,0.963,0.018
15.633,-0.320,0.965,0.020
15.643,-0.322,0.963,0.016
15.653,-0.322,0.969,0.018
15.663,-0.324,0.969,0.018
15.673,-0.326,0.967,0.018
15.683,-0.326,0.969,0.020
15.693,-0.326,0.965,0.018
15.703,-0.324,0.963,0.020
15.712,-0.320,0.965,0.018
15.722,-0.320,0.965,0.016
15.732,-0.318,0.957,0.016
15.742,-0.322,0.959,0.016
15.752,-0.324,0.967,0.025
15.762,-0.324,0.969,0.021
15.772,-0.324,0.971,0.021
15.782,-0.322,0.973,0.023
15.792,-0.328,0.967,0.020
15.802,-0.332,0.955,0.016
15.812,-0.336,0.955,0.018
15.822,-0.332,0.961,0.020
15.832,-0.334,0.965,0.023
15.842,-0.334,0.963,0.021
15.852,-0.336,0.963,0.023
15.862,-0.334,0.959,0.020
15.871,-0.330,0.959,0.021
15.881,-0.326,0.959,0.023
15.891,-0.326,0.953,0.020
15.901,-0.328,0.957,0.018
15.911,-0.326,0.961,0.020
15.921,-0.324,0.959,0.023
15.931,-0.326,0.965,0.020
15.941,-0.326,0.963,0.021
15.951,-0.326,0.965,0.020
15.961,-0.334,0.965,0.018
15.971,-0.338,0.967,0.020
15.981,-0.336,0.961,0.016
15.991,-0.334,0.959,0.012
16.001,-0.328,0.967,0.021
16.011,-0.330,0.971,0.020
16.021,-0.328,0.965,0.020
16.030,-0.328,0.961,0.014
16.040,-0.328,0.963,0.020
16.050,-0.322,0.965,0.021
16.060,-0.318,0.967,0.020
16.070,-0.320,0.965,0.025
16.080,-0.316,0.963,0.021
16.090,-0.318,0.963,0.023
16.100,-0.318,0.961,0.020
16.110,-0.320,0.959,0.018
16.120,-0.322,0.965,0.018
16.130,-0.324,0.963,0.020
16.140,-0.322,0.965,0.016
16.150,-0.322,0.967,0.018
16.160,-0.324,0.963,0.020
16.170,-0.324,0.961,0.016
16.180,-0.324,0.963,0.018
16.189,-0.324,0.965,0.016
16.199,-0.326,0.967,0.018
16.209,-0.328,0.961,0.012
16.219,-0.324,0.969,0.020
16.229,-0.326,0.965,0.020
16.239,-0.324,0.963,0.018
16.249,-0.322,0.965,0.016
16.259,-0.322,0.967,0.020
16.269,-0.324,0.971,0.016
16.279,-0.326,0.969,0.018
16.289,-0.328,0.967,0.021
16.299,-0.326,0.959,0.018
16.309,-0.324,0.963,0.020
16.319,-0.322,0.961,0.016
16.329,-0.324,0.953,0.018
16.339,-0.324,0.961,0.021
16.348,-0.322,0.967,0.025
16.358,-0.326,0.967,0.020
16.368,-0.328,0.965,0.021
16.378,-0.330,0.967,0.020
16.388,-0.332,0.967,0.016
16.398,-0.336,0.959,0.016
16.408,-0.338,0.967,0.018
16.418,-0.336,0.969,0.021
16.428,-0.332,0.959,0.020
16.438,-0.330,0.961,0.021
16.448,-0.324,0.961,0.023
16.458,-0.324,0.959,0.023
16.468,-0.322,0.957,0.021
16.478,-0.320,0.957,0.020
16.488,-0.322,0.963,0.018
16.498,-0.324,0.961,0.023
16.507,-0.324,0.953,0.018
16.517,-0.322,0.957,0.016
16.527,-0.326,0.961,0.025
16.537,-0.326,0.961,0.018
16.547,-0.330,0.961,0.014
16.557,-0.338,0.965,0.014
16.567,-0.336,0.969,0.012
16.577,-0.342,0.965,0.014
16.587,-0.338,0.961,0.014
16.597,-0.330,0.971,0.021
16.607,-0.326,0.971,0.021
16.617,-0.324,0.965,0.018
16.627,-0.322,0.957,0.016
16.637,-0.320,0.961,0.018
16.647,-0.318,0.965,0.021
16.657,-0.318,0.965,0.020
16.666,-0.322,0.967,0.018
16.676,-0.322,0.969,0.020
16.686,-0.322,0.967,0.018
16.696,-0.324,0.971,0.018
16.706,-0.326,0.965,0.020
16.716,-0.328,0.963,0.016
16.726,-0.326,0.957,0.018
16.736,-0.328,0.965,0.016
16.746,-0.326,0.965,0.014
16.756,-0.324,0.959,0.018
16.766,-0.326,0.961,0.018
16.776,-0.324,0.961,0.018
16.786,-0.326,0.963,0.014
16.796,-0.330,0.967,0.016
16.806,-0.330,0.971,0.016
16.816,-0.332,0.967,0.012
16.825,-0.328,0.965,0.012
16.835,-0.326,0.963,0.012
16.845,-0.330,0.965,0.010
16.855,-0.328,0.965,0.014
16.865,-0.330,0.967,0.016
16.875,-0.328,0.963,0.018
16.885,-0.330,0.961,0.018
16.895,-0.326,0.963,0.018
16.905,-0.328,0.955,0.018
16.915,-0.326,0.951,0.012
16.925,-0.322,0.957,0.018
16.935,-0.320,0.967,0.023
16.945,-0.326,0.969,0.020
16.955,-0.324,0.969,0.020
16.965,-0.330,0.973,0.020
16.975,-0.330,0.961,0.016
16.984,-0.338,0.959,0.014
16.994,-0.338,0.965,0.014
17.004,-0.332,0.967,0.018
17.014,-0.332,0.967,0.021
17.024,-0.332,0.963,0.018
17.034,-0.334,0.963,0.021
17.044,-0.330,0.963,0.021
17.054,-0.330,0.959,0.020
17.064,-0.328,0.961,0.020
17.074,-0.326,0.957,0.021
17.084,-0.326,0.959,0.025
17.094,-0.326,0.961,0.021
17.104,-0.326,0.961,0.020
17.114,-0.328,0.961,0.025
17.124,-0.330,0.963,0.021
17.134,-0.332,0.963,0.020
17.144,-0.334,0.959,0.021
17.153,-0.336,0.961,0.016
17.163,-0.338,0.961,0.016
17.173,-0.334,0.961,0.018
17.183,-0.332,0.963,0.020
17.193,-0.330,0.971,0.020
17.203,-0.330,0.971,0.021
17.213,-0.326,0.961,0.018
17.223,-0.324,0.961,0.016
17.233,-0.326,0.963,0.020
17.243,-0.324,0.965,0.018
17.253,-0.326,0.967,0.020
17.263,-0.322,0.965,0.018
17.273,-0.320,0.965,0.018
17.283,-0.324,0.965,0.018
17.293,-0.326,0.963,0.014
17.303,-0.326,0.963,0.016
17.312,-0.330,0.967,0.016
17.322,-0.326,0.963,0.014
17.332,-0.328,0.961,0.014
17.342,-0.326,0.965,0.014
17.352,-0.322,0.961,0.014
17.362,-0.324,0.961,0.018
17.372,-0.324,0.965,0.018
17.382,-0.326,0.965,0.018
17.392,-0.322,0.967,0.014
17.402,-0.326,0.963,0.018
17.412,-0.324,0.965,0.012
17.422,-0.324,0.967,0.016
17.432,-0.326,0.965,0.014
17.442,-0.328,0.969,0.014
17.452,-0.328,0.965,0.016
17.462,-0.330,0.963,0.014
17.471,-0.328,0.967,0.016
17.481,-0.330,0.965,0.016
17.491,-0.332,0.957,0.016
17.501,-0.334,0.965,0.020
17.511,-0.334,0.965,0.021
17.521,-0.326,0.965,0.020
17.531,-0.328,0.967,0.021
17.541,-0.330,0.969,0.023
17.551,-0.330,0.953,0.016
17.561,-0.330,0.949,0.014
17.571,-0.330,0.951,0.016
17.581,-0.326,0.959,0.023
17.591,-0.330,0.967,0.020
17.601,-0.334,0.969,0.020
17.611,-0.334,0.967,0.023
17.621,-0.334,0.967,0.018
17.630,-0.336,0.959,0.016
17.640,-0.334,0.959,0.014
17.650,-0.336,0.961,0.016
17.660,-0.332,0.963,0.016
17.670,-0.330,0.965,0.018
17.680,-0.328,0.967,0.018
17.690,-0.330,0.963,0.021
17.700,-0.330,0.965,0.021
17.710,-0.330,0.961,0.018
17.720,-0.330,0.959,0.014
17.730,-0.332,0.961,0.018
17.740,-0.336,0.963,0.020
17.750,-0.336,0.959,0.018
17.760,-0.330,0.959,0.018
17.770,-0.328,0.965,0.020
17.780,-0.332,0.969,0.020
17.789,-0.332,0.967,0.021
17.799,-0.328,0.961,0.016
17.809,-0.330,0.963,0.018
17.819,-0.328,0.963,0.018
17.829,-0.328,0.967,0.018
17.839,-0.326,0.967,0.018
17.849,-0.324,0.967,0.021
17.859,-0.320,0.963,0.021
17.869,-0.324,0.963,0.018
17.879,-0.318,0.965,0.020
17.889,-0.322,0.959,0.018
17.899,-0.322,0.959,0.020
17.909,-0.322,0.961,0.018
17.919,-0.320,0.961,0.020
17.929,-0.324,0.961,0.016
17.939,-0.326,0.963,0.016
17.948,-0.328,0.965,0.018
17.958,-0.332,0.965,0.016
17.968,-0.330,0.965,0.018
17.978,-0.330,0.965,0.014
17.988,-0.328,0.963,0.014
17.998,-0.326,0.963,0.012
18.008,-0.330,0.965,0.012
18.018,-0.328,0.969,0.012
18.028,-0.328,0.973,0.014
18.038,-0.330,0.969,0.018
18.048,-0.328,0.969,0.018
18.058,-0.324,0.967,0.016
18.068,-0.326,0.959,0.014
18.078,-0.324,0.965,0.020
18.088,-0.324,0.965,0.018
18.098,-0.322,0.961,0.020
18.107,-0.328,0.967,0.023
18.117,-0.330,0.967,0.023
18.127,-0.330,0.957,0.014
18.137,-0.334,0.951,0.012
18.147,-0.332,0.957,0.014
18.157,-0.332,0.965,0.016
18.167,-0.334,0.963,0.020
18.177,-0.338,0.967,0.016
18.187,-0.340,0.969,0.014
18.197,-0.338,0.963,0.016
18.207,-0.336,0.957,0.018
18.217,-0.336,0.957,0.014
18.227,-0.330,0.959,0.014
18.237,-0.328,0.963,0.016
18.247,-0.326,0.963,0.020
18.257,-0.324,0.965,0.016
18.266,-0.328,0.965,0.020
18.276,-0.322,0.961,0.020
18.286,-0.332,0.963,0.018
18.296,-0.328,0.959,0.016
18.306,-0.330,0.963,0.018
18.316,-0.332,0.961,0.014
18.326,-0.332,0.957,0.014
18.336,-0.338,0.965,0.014
18.346,-0.338,0.967,0.014
18.356,-0.336,0.969,0.018
18.366,-0.330,0.967,0.018
18.376,-0.332,0.961,0.014
18.386,-0.326,0.965,0.016
18.396,-0.322,0.965,0.016
18.406,-0.320,0.967,0.020
18.416,-0.320,0.965,0.016
18.425,-0.322,0.967,0.020
18.435,-0.320,0.969,0.020
18.445,-0.322,0.965,0.020
18.455,-0.320,0.965,0.018
18.465,-0.316,0.963,0.018
18.475,-0.318,0.961,0.021
18.485,-0.322,0.963,0.016
18.495,-0.322,0.967,0.020
18.505,-0.324,0.963,0.018
18.515,-0.326,0.963,0.016
18.525,-0.328,0.961,0.014
18.535,-0.330,0.963,0.020
18.545,-0.332,0.961,0.016
18.555,-0.332,0.963,0.016
18.565,-0.332,0.967,0.016
18.575,-0.330,0.961,0.016
18.584,-0.328,0.961,0.016
18.594,-0.328,0.963,0.016
18.604,-0.326,0.969,0.020
18.614,-0.324,0.965,0.018
18.624,-0.322,0.967,0.020
18.634,-0.324,0.965,0.016
18.644,-0.328,0.961,0.014
18.654,-0.328,0.967,0.020
18.664,-0.326,0.969,0.021
18.674,-0.326,0.963,0.021
18.684,-0.326,0.971,0.023
18.694,-0.330,0.967,0.025
18.704,-0.332,0.955,0.014
18.714,-0.338,0.947,0.014
18.724,-0.336,0.957,0.018
18.734,-0.334,0.965,0.020
18.743,-0.334,0.967,0.020
18.753,-0.342,0.967,0.021
18.763,-0.338,0.969,0.020
18.773,-0.336,0.961,0.018
18.783,-0.336,0.955,0.014
18.793,-0.330,0.953,0.016
18.803,-0.328,0.953,0.020
18.813,-0.326,0.957,0.018
18.823,-0.326,0.963,0.021
18.833,-0.324,0.967,0.023
18.843,-0.324,0.965,0.023
18.853,-0.330,0.963,0.018
18.863,-0.326,0.961,0.018
18.873,-0.330,0.959,0.018
18.883,-0.332,0.957,0.014
18.893,-0.338,0.957,0.010
18.902,-0.334,0.959,0.012
18.912,-0.336,0.967,0.016
18.922,-0.336,0.971,0.020
18.932,-0.334,0.971,0.018
18.942,-0.330,0.965,0.014
18.952,-0.328,0.961,0.014
18.962,-0.326,0.963,0.014
18.972,-0.326,0.963,0.014
18.982,-0.326,0.969,0.018
18.992,-0.322,0.971,0.020
19.002,-0.324,0.969,0.023
19.012,-0.320,0.967,0.020
19.022,-0.316,0.965,0.020
19.032,-0.320,0.961,0.020
19.042,-0.320,0.959,0.016
19.052,-0.324,0.963,0.020
19.061,-0.322,0.961,0.016
19.071,-0.326,0.963,0.016
19.081,-0.330,0.963,0.018
19.091,-0.328,0.963,0.016
19.101,-0.326,0.961,0.012
19.111,-0.326,0.961,0.012
19.121,-0.330,0.961,0.014
19.131,-0.332,0.967,0.016
19.141,-0.330,0.965,0.014
19.151,-0.326,0.965,0.012
19.161,-0.324,0.963,0.012
19.171,-0.326,0.967,0.014
19.181,-0.326,0.969,0.012
19.191,-0.320,0.965,0.014
19.201,-0.322,0.963,0.014
19.211,-0.318,0.967,0.012
19.221,-0.322,0.965,0.014
19.230,-0.324,0.965,0.018
19.240,-0.322,0.971,0.018
19.250,-0.318,0.965,0.018
19.260,-0.322,0.967,0.020
19.270,-0.324,0.971,0.021
19.280,-0.328,0.963,0.016
19.290,-0.332,0.949,0.010
19.300,-0.336,0.959,0.014
19.310,-0.332,0.963,0.020
19.320,-0.334,0.967,0.021
19.330,-0.334,0.965,0.020
19.340,-0.334,0.965,0.016
19.350,-0.330,0.965,0.020
19.360,-0.326,0.955,0.020
19.370,-0.328,0.955,0.016
19.380,-0.324,0.957,0.016
19.389,-0.318,0.961,0.018
19.399,-0.322,0.963,0.020
19.409,-0.318,0.965,0.018
19.419,-0.326,0.963,0.018
19.429,-0.326,0.965,0.018
19.439,-0.326,0.963,0.020
19.449,-0.328,0.959,0.014
19.459,-0.334,0.961,0.016
19.469,-0.332,0.961,0.014
19.479,-0.330,0.967,0.014
19.489,-0.330,0.975,0.018
19.499,-0.326,0.973,0.018
19.509,-0.324,0.963,0.018
19.519,-0.322,0.959,0.012
19.529,-0.326,0.967,0.016
19.539,-0.322,0.967,0.018
19.548,-0.322,0.967,0.018
19.558,-0.320,0.967,0.016
19.568,-0.320,0.967,0.023
19.578,-0.316,0.965,0.018
19.588,-0.316,0.965,0.016
19.598,-0.320,0.961,0.018
19.608,-0.318,0.961,0.016
19.618,-0.316,0.959,0.016
19.628,-0.320,0.961,0.018
19.638,-0.322,0.965,0.018
19.648,-0.324,0.963,0.016
19.658,-0.326,0.969,0.016
19.668,-0.326,0.965,0.018
19.678,-0.328,0.969,0.016
19.688,-0.330,0.969,0.016
19.698,-0.328,0.963,0.014
19.707,-0.328,0.961,0.018
19.717,-0.322,0.961,0.016
19.727,-0.326,0.959,0.014
19.737,-0.326,0.961,0.012
19.747,-0.324,0.967,0.016
19.757,-0.326,0.969,0.014
19.767,-0.324,0.969,0.014
19.777,-0.324,0.969,0.016
19.787,-0.326,0.969,0.016
19.797,-0.324,0.957,0.014
19.807,-0.326,0.963,0.020
19.817,-0.320,0.967,0.020
19.827,-0.320,0.965,0.018
19.837,-0.320,0.973,0.018
19.847,-0.322,0.975,0.023
19.857,-0.326,0.965,0.016
19.866,-0.332,0.959,0.014
19.876,-0.336,0.957,0.016
19.886,-0.332,0.961,0.018
19.896,-0.332,0.965,0.020
19.906,-0.330,0.967,0.020
19.916,-0.332,0.965,0.018
19.926,-0.328,0.963,0.018
19.936,-0.324,0.957,0.018
19.946,-0.326,0.959,0.018
19.956,-0.324,0.959,0.018
19.966,-0.324,0.959,0.021
19.976,-0.324,0.963,0.020
19.986,-0.326,0.961,0.020
19.996,-0.326,0.963,0.021
20.006,-0.324,0.965,0.021
20.016,-0.330,0.961,0.018
20.025,-0.326,0.963,0.016
20.035,-0.334,0.961,0.012
20.045,-0.330,0.961,0.014
20.055,-0.330,0.971,0.020
20.065,-0.332,0.975,0.018
20.075,-0.330,0.969,0.016
20.085,-0.330,0.961,0.014
20.095,-0.328,0.965,0.018
20.105,-0.324,0.967,0.020
20.115,-0.320,0.965,0.016
20.125,-0.320,0.963,0.018
20.135,-0.318,0.967,0.018
20.145,-0.318,0.963,0.018
20.155,-0.318,0.965,0.021
20.165,-0.318,0.963,0.018
20.175,-0.316,0.969,0.020
20.184,-0.322,0.967,0.020
20.194,-0.322,0.967,0.020
20.204,-0.322,0.967,0.018
20.214,-0.322,0.963,0.016
20.224,-0.322,0.959,0.014
20.234,-0.322,0.961,0.016
20.244,-0.322,0.963,0.020
20.254,-0.324,0.967,0.018
20.264,-0.330,0.965,0.016
20.274,-0.324,0.965,0.014
20.284,-0.324,0.969,0.014
20.294,-0.324,0.967,0.014
20.304,-0.326,0.969,0.016
20.314,-0.324,0.969,0.018
20.324,-0.324,0.971,0.020
20.334,-0.322,0.965,0.014
20.343,-0.320,0.967,0.016
20.353,-0.320,0.963,0.014
20.363,-0.324,0.961,0.014
20.373,-0.320,0.967,0.018
20.383,-0.318,0.969,0.018
20.393,-0.326,0.969,0.018
20.403,-0.324,0.971,0.016
20.413,-0.330,0.965,0.016
20.423,-0.334,0.955,0.012
20.433,-0.338,0.957,0.012
20.443,-0.340,0.965,0.014
20.453,-0.336,0.969,0.018
20.463,-0.332,0.967,0.020
20.473,-0.328,0.961,0.018
20.483,-0.328,0.963,0.021
20.493,-0.326,0.959,0.020
20.502,-0.320,0.959,0.020
20.512,-0.320,0.955,0.023
20.522,-0.318,0.957,0.021
20.532,-0.324,0.959,0.021
20.542,-0.320,0.963,0.023
20.552,-0.324,0.965,0.020
20.562,-0.324,0.963,0.020
20.572,-0.328,0.963,0.014
20.582,-0.328,0.969,0.020
20.592,-0.332,0.965,0.014
20.602,-0.334,0.955,0.012
20.612,-0.324,0.961,0.016
20.622,-0.328,0.975,0.021
20.632,-0.330,0.977,0.018
20.642,-0.328,0.967,0.012
20.652,-0.328,0.963,0.014
20.661,-0.320,0.969,0.016
20.671,-0.318,0.971,0.018
20.681,-0.316,0.969,0.020
20.691,-0.311,0.967,0.023
20.701,-0.312,0.967,0.021
20.711,-0.311,0.963,0.023
20.721,-0.314,0.963,0.020
20.731,-0.312,0.965,0.020
20.741,-0.316,0.967,0.020
20.751,-0.318,0.967,0.020
20.761,-0.320,0.967,0.020
20.771,-0.314,0.963,0.020
20.781,-0.316,0.967,0.023
20.791,-0.322,0.971,0.018
20.801,-0.322,0.971,0.016
20.811,-0.322,0.967,0.020
20.820,-0.324,0.967,0.018
20.830,-0.328,0.963,0.016
20.840,-0.322,0.965,0.016
20.850,-0.320,0.967,0.020
20.860,-0.320,0.969,0.021
20.870,-0.322,0.965,0.020
20.880,-0.318,0.965,0.020
20.890,-0.318,0.965,0.020
20.900,-0.316,0.961,0.018
20.910,-0.318,0.959,0.014
20.920,-0.322,0.963,0.021
20.930,-0.322,0.965,0.018
20.940,-0.322,0.971,0.018
20.950,-0.322,0.969,0.021
20.960,-0.324,0.961,0.014
20.970,-0.334,0.957,0.014
20.979,-0.334,0.957,0.012
20.989,-0.334,0.963,0.016
20.999,-0.336,0.965,0.016
21.009,-0.334,0.967,0.014
21.019,-0.336,0.965,0.016
21.029,-0.332,0.965,0.012
21.039,-0.324,0.951,0.010
21.049,-0.326,0.975,0.016
21.059,-0.320,0.969,0.025
21.069,-0.320,0.961,0.014
21.079,-0.318,0.965,0.020
21.089,-0.316,0.959,0.020
21.099,-0.322,0.963,0.020
21.109,-0.322,0.963,0.014
21.119,-0.326,0.967,0.018
21.129,-0.332,0.963,0.014
21.138,-0.332,0.961,0.016
21.148,-0.332,0.957,0.012
21.158,-0.334,0.957,0.010
21.168,-0.332,0.967,0.016
21.178,-0.332,0.965,0.014
21.188,-0.332,0.971,0.010
21.198,-0.330,0.965,0.010
21.208,-0.330,0.965,0.004
21.218,-0.326,0.969,0.014
21.228,-0.322,0.973,0.014
21.238,-0.320,0.971,0.014
21.248,-0.318,0.967,0.018
21.258,-0.316,0.967,0.018
21.268,-0.316,0.961,0.014
21.278,-0.316,0.961,0.012
21.288,-0.316,0.961,0.012
21.298,-0.318,0.965,0.012
21.307,-0.318,0.965,0.014
21.317,-0.320,0.965,0.014
21.327,-0.324,0.967,0.010
21.337,-0.330,0.973,0.010
21.347,-0.330,0.973,0.008
21.357,-0.334,0.971,0.008
21.367,-0.330,0.965,0.006
21.377,-0.328,0.963,0.006
21.387,-0.328,0.963,0.010
21.397,-0.324,0.963,0.010
21.407,-0.326,0.965,0.012
21.417,-0.322,0.963,0.016
21.427,-0.322,0.961,0.016
21.437,-0.322,0.965,0.016
21.447,-0.320,0.959,0.016
21.457,-0.322,0.963,0.016
21.466,-0.320,0.965,0.018
21.476,-0.316,0.965,0.018
21.486,-0.320,0.969,0.021
21.496,-0.320,0.969,0.021
21.506,-0.324,0.957,0.016
21.516,-0.326,0.949,0.010
21.526,-0.326,0.957,0.014
21.536,-0.326,0.963,0.016
21.546,-0.332,0.967,0.016
21.556,-0.332,0.969,0.014
21.566,-0.334,0.969,0.014
21.576,-0.328,0.969,0.014
21.586,-0.332,0.967,0.016
21.596,-0.330,0.963,0.012
21.606,-0.328,0.965,0.010
21.616,-0.328,0.961,0.012
21.625,-0.322,0.967,0.018
21.635,-0.322,0.969,0.016
21.645,-0.320,0.967,0.021
21.655,-0.322,0.965,0.018
21.665,-0.324,0.965,0.020
21.675,-0.324,0.965,0.016
21.685,-0.330,0.965,0.016
21.695,-0.332,0.961,0.018
21.705,-0.334,0.957,0.018
21.715,-0.332,0.963,0.018
21.725,-0.332,0.967,0.018
21.735,-0.332,0.965,0.020
21.745,-0.328,0.961,0.016
21.755,-0.330,0.959,0.018
21.765,-0.330,0.961,0.014
21.775,-0.326,0.961,0.014
21.784,-0.326,0.965,0.018
21.794,-0.328,0.969,0.018
21.804,-0.326,0.965,0.021
21.814,-0.322,0.963,0.020
21.824,-0.322,0.961,0.020
21.834,-0.324,0.961,0.021
21.844,-0.320,0.963,0.016
21.854,-0.324,0.961,0.018
21.864,-0.324,0.961,0.018
21.874,-0.324,0.963,0.018
21.884,-0.322,0.963,0.018
21.894,-0.326,0.963,0.016
21.904,-0.328,0.965,0.016
21.914,-0.330,0.963,0.016
21.924,-0.326,0.959,0.016
21.934,-0.328,0.959,0.012
21.943,-0.326,0.961,0.012
21.953,-0.330,0.965,0.012
21.963,-0.330,0.969,0.014
21.973,-0.328,0.969,0.014
21.983,-0.328,0.973,0.016
21.993,-0.322,0.965,0.016
22.003,-0.322,0.961,0.012
22.013,-0.322,0.969,0.018
22.023,-0.318,0.967,0.016
22.033,-0.322,0.969,0.018
22.043,-0.320,0.973,0.025
22.053,-0.322,0.963,0.020
22.063,-0.324,0.951,0.012
22.073,-0.326,0.951,0.010
22.083,-0.328,0.959,0.018
22.093,-0.330,0.963,0.018
22.102,-0.334,0.967,0.016
22.112,-0.336,0.969,0.016
22.122,-0.334,0.965,0.016
22.132,-0.336,0.963,0.014
22.142,-0.336,0.957,0.012
22.152,-0.332,0.959,0.012
22.162,-0.330,0.961,0.014
22.172,-0.328,0.963,0.016
22.182,-0.320,0.967,0.016
22.192,-0.322,0.963,0.018
22.202,-0.320,0.961,0.020
22.212,-0.322,0.961,0.016
22.222,-0.324,0.961,0.018
22.232,-0.328,0.963,0.018
22.242,-0.332,0.965,0.014
22.252,-0.332,0.961,0.012
22.261,-0.330,0.963,0.012
22.271,-0.332,0.969,0.016
22.281,-0.332,0.971,0.018
22.291,-0.330,0.965,0.014
22.301,-0.332,0.959,0.010
22.311,-0.330,0.961,0.010
22.321,-0.330,0.963,0.012
22.331,-0.328,0.967,0.014
22.341,-0.328,0.971,0.014
22.351,-0.324,0.969,0.016
22.361,-0.322,0.967,0.016
22.371,-0.324,0.963,0.016
22.381,-0.320,0.965,0.016
22.391,-0.316,0.961,0.016
22.401,-0.318,0.963,0.016
22.411,-0.320,0.961,0.018
22.420,-0.322,0.961,0.014
22.430,-0.324,0.965,0.014
22.440,-0.328,0.961,0.012
22.450,-0.328,0.963,0.014
22.460,-0.330,0.967,0.012
22.470,-0.330,0.963,0.014
22.480,-0.330,0.967,0.010
22.490,-0.328,0.961,0.012
22.500,-0.328,0.963,0.008
22.510,-0.324,0.965,0.012
22.520,-0.328,0.965,0.014
22.530,-0.328,0.967,0.016
22.540,-0.328,0.967,0.018
22.550,-0.326,0.967,0.016
22.560,-0.324,0.967,0.016
22.570,-0.324,0.961,0.012
22.579,-0.326,0.969,0.020
22.589,-0.324,0.963,0.020
22.599,-0.324,0.965,0.018
22.609,-0.326,0.969,0.021
22.619,-0.324,0.965,0.021
22.629,-0.332,0.953,0.014
22.639,-0.340,0.951,0.008
22.649,-0.336,0.959,0.016
22.659,-0.332,0.965,0.018
22.669,-0.334,0.971,0.018
22.679,-0.338,0.971,0.018
22.689,-0.334,0.961,0.016
22.699,-0.332,0.957,0.014
22.709,-0.334,0.955,0.016
22.719,-0.332,0.957,0.014
22.729,-0.326,0.961,0.016
22.738,-0.320,0.963,0.020
22.748,-0.320,0.965,0.020
22.758,-0.318,0.969,0.020
22.768,-0.322,0.969,0.018
22.778,-0.320,0.959,0.016
22.788,-0.322,0.959,0.014
22.798,-0.326,0.957,0.016
22.808,-0.332,0.961,0.014
22.818,-0.332,0.957,0.016
22.828,-0.332,0.963,0.012
22.838,-0.336,0.973,0.012
22.848,-0.334,0.971,0.014
22.858,-0.330,0.965,0.010
22.868,-0.330,0.961,0.010
22.878,-0.330,0.963,0.012
22.888,-0.326,0.967,0.012
22.897,-0.322,0.967,0.014
22.907,-0.324,0.971,0.016
22.917,-0.316,0.971,0.016
22.927,-0.312,0.965,0.018
22.937,-0.312,0.963,0.020
22.947,-0.314,0.963,0.016
22.957,-0.316,0.961,0.020
22.967,-0.322,0.965,0.018
22.977,-0.320,0.961,0.018
22.987,-0.326,0.965,0.014
22.997,-0.326,0.965,0.018
23.007,-0.326,0.963,0.020
23.017,-0.328,0.959,0.014
23.027,-0.334,0.959,0.010
23.037,-0.332,0.961,0.016
23.047,-0.334,0.961,0.014
23.056,-0.332,0.959,0.010
23.066,-0.334,0.961,0.012
23.076,-0.328,0.965,0.010
23.086,-0.326,0.965,0.014
23.096,-0.324,0.971,0.012
23.106,-0.322,0.969,0.016
23.116,-0.324,0.963,0.014
23.126,-0.322,0.965,0.016
23.136,-0.320,0.967,0.010
23.146,-0.322,0.957,0.012
23.156,-0.322,0.969,0.016
23.166,-0.326,0.971,0.018
23.176,-0.326,0.965,0.016
23.186,-0.326,0.975,0.025
23.196,-0.324,0.971,0.025
23.206,-0.328,0.955,0.014
23.215,-0.332,0.949,0.008
23.225,-0.332,0.955,0.016
23.235,-0.330,0.961,0.020
23.245,-0.334,0.965,0.018
23.255,-0.336,0.967,0.014
23.265,-0.334,0.967,0.016
23.275,-0.336,0.967,0.018
23.285,-0.330,0.961,0.018
23.295,-0.328,0.957,0.014
23.305,-0.326,0.955,0.014
23.315,-0.322,0.955,0.020
23.325,-0.322,0.963,0.014
23.335,-0.322,0.963,0.014
23.345,-0.324,0.967,0.018
23.355,-0.324,0.965,0.014
23.365,-0.326,0.963,0.014
23.375,-0.330,0.967,0.014
23.384,-0.330,0.965,0.014
23.394,-0.330,0.959,0.012
23.404,-0.328,0.963,0.010
23.414,-0.328,0.971,0.014
23.424,-0.332,0.971,0.014
23.434,-0.328,0.967,0.010
23.444,-0.326,0.961,0.008
23.454,-0.326,0.965,0.012
23.464,-0.322,0.967,0.012
23.474,-0.322,0.969,0.018
23.484,-0.326,0.971,0.018
23.494,-0.322,0.969,0.018
23.504,-0.320,0.965,0.016
23.514,-0.318,0.961,0.016
23.524,-0.316,0.959,0.012
23.534,-0.318,0.961,0.016
23.543,-0.322,0.963,0.016
23.553,-0.324,0.967,0.016
23.563,-0.322,0.965,0.016
23.573,-0.324,0.961,0.012
23.583,-0.326,0.959,0.010
23.593,-0.326,0.959,0.014
23.603,-0.328,0.961,0.014
23.613,-0.324,0.963,0.012
23.623,-0.328,0.963,0.014
23.633,-0.330,0.963,0.012
23.643,-0.330,0.963,0.014
23.653,-0.326,0.961,0.010
23.663,-0.326,0.963,0.010
23.673,-0.326,0.967,0.012
23.683,-0.326,0.971,0.016
23.693,-0.326,0.969,0.014
23.702,-0.324,0.969,0.016
23.712,-0.322,0.969,0.018
23.722,-0.322,0.961,0.012
23.732,-0.320,0.955,0.010
23.742,-0.322,0.967,0.018
23.752,-0.320,0.963,0.016
23.762,-0.326,0.969,0.018
23.772,-0.328,0.979,0.021
23.782,-0.330,0.971,0.018
23.792,-0.328,0.955,0.010
23.802,-0.334,0.955,0.012
23.812,-0.332,0.963,0.018
23.822,-0.328,0.961,0.016
23.832,-0.330,0.963,0.014
23.842,-0.330,0.967,0.020
23.852,-0.326,0.965,0.020
23.861,-0.328,0.963,0.018
23.871,-0.328,0.961,0.014
23.881,-0.326,0.961,0.016
23.891,-0.326,0.959,0.020
23.901,-0.328,0.959,0.018
23.911,-0.326,0.961,0.020
23.921,-0.322,0.961,0.018
23.931,-0.322,0.961,0.018
23.941,-0.326,0.963,0.016
23.951,-0.330,0.967,0.014
23.961,-0.334,0.963,0.018
23.971,-0.334,0.957,0.012
23.981,-0.330,0.963,0.016
23.991,-0.328,0.973,0.020
24.001,-0.328,0.967,0.014
24.011,-0.326,0.959,0.012
24.020,-0.328,0.961,0.014
24.030,-0.324,0.967,0.016
24.040,-0.320,0.965,0.020
24.050,-0.320,0.965,0.016
24.060,-0.322,0.965,0.016
24.070,-0.318,0.969,0.018
24.080,-0.316,0.967,0.018
24.090,-0.318,0.963,0.018
24.100,-0.318,0.965,0.020
24.110,-0.316,0.963,0.014
24.120,-0.320,0.965,0.020
24.130,-0.326,0.965,0.016
24.140,-0.322,0.967,0.010
24.150,-0.324,0.965,0.016
24.160,-0.324,0.965,0.014
24.170,-0.324,0.963,0.014
24.179,-0.320,0.963,0.012
24.189,-0.322,0.963,0.012
24.199,-0.324,0.963,0.014
24.209,-0.322,0.965,0.010
24.219,-0.326,0.963,0.012
24.229,-0.326,0.963,0.014
24.239,-0.326,0.963,0.012
24.249,-0.324,0.965,0.016
24.259,-0.326,0.967,0.014
24.269,-0.326,0.969,0.012
24.279,-0.326,0.969,0.014
24.289,-0.328,0.965,0.010
24.299,-0.324,0.965,0.010
24.309,-0.320,0.965,0.008
24.319,-0.326,0.953,0.008
24.329,-0.320,0.955,0.014
24.338,-0.322,0.969,0.020
24.348,-0.316,0.969,0.016
24.358,-0.320,0.971,0.018
24.368,-0.324,0.973,0.020
24.378,-0.324,0.965,0.014
24.388,-0.328,0.959,0.012
24.398,-0.332,0.961,0.012
24.408,-0.330,0.963,0.020
24.418,-0.328,0.963,0.014
24.428,-0.328,0.961,0.014
24.438,-0.326,0.965,0.012
24.448,-0.326,0.967,0.016
24.458,-0.328,0.963,0.016
24.468,-0.324,0.963,0.012
24.478,-0.324,0.963,0.016
24.488,-0.322,0.957,0.016
24.497,-0.320,0.959,0.014
24.507,-0.318,0.963,0.018
24.517,-0.318,0.963,0.018
24.527,-0.320,0.969,0.018
24.537,-0.328,0.969,0.014
24.547,-0.328,0.967,0.014
24.557,-0.330,0.969,0.012
24.567,-0.328,0.963,0.010
24.577,-0.324,0.967,0.014
24.587,-0.322,0.973,0.016
24.597,-0.324,0.969,0.018
24.607,-0.322,0.959,0.012
24.617,-0.318,0.963,0.014
24.627,-0.322,0.971,0.018
24.637,-0.320,0.971,0.014
24.647,-0.320,0.973,0.014
24.656,-0.316,0.967,0.018
24.666,-0.314,0.963,0.020
24.676,-0.311,0.963,0.018
24.686,-0.314,0.961,0.016
24.696,-0.318,0.963,0.016
24.706,-0.320,0.965,0.014
24.716,-0.322,0.961,0.014
24.726,-0.322,0.965,0.016
24.736,-0.324,0.969,0.016
24.746,-0.324,0.963,0.016
24.756,-0.326,0.967,0.016
24.766,-0.324,0.963,0.014
24.776,-0.324,0.961,0.012
24.786,-0.320,0.959,0.010
24.796,-0.320,0.965,0.012
24.806,-0.320,0.965,0.014
24.815,-0.326,0.965,0.014
24.825,-0.326,0.967,0.012
24.835,-0.324,0.971,0.014
24.845,-0.324,0.969,0.016
24.855,-0.324,0.963,0.012
24.865,-0.324,0.957,0.016
24.875,-0.318,0.963,0.014
24.885,-0.322,0.961,0.012
24.895,-0.320,0.959,0.006
24.905,-0.324,0.969,0.014
24.915,-0.324,0.975,0.018
24.925,-0.324,0.969,0.016
24.935,-0.320,0.971,0.016
24.945,-0.322,0.969,0.020
24.955,-0.324,0.957,0.008
24.965,-0.330,0.953,0.008
24.974,-0.330,0.961,0.016
24.984,-0.328,0.963,0.018
24.994,-0.330,0.969,0.016
25.004,-0.328,0.967,0.018
25.014,-0.328,0.967,0.018
25.024,-0.326,0.959,0.018
25.034,-0.326,0.957,0.016
25.044,-0.320,0.955,0.014
25.054,-0.322,0.959,0.014
25.064,-0.326,0.957,0.016
25.074,-0.326,0.959,0.014
25.084,-0.326,0.965,0.014
25.094,-0.330,0.969,0.016
25.104,-0.328,0.971,0.010
25.114,-0.330,0.967,0.014
25.124,-0.330,0.967,0.010
25.133,-0.332,0.959,0.010
25.143,-0.330,0.957,0.008
25.153,-0.324,0.963,0.010
25.163,-0.324,0.973,0.012
25.173,-0.326,0.975,0.012
25.183,-0.322,0.965,0.014
25.193,-0.322,0.963,0.010
25.203,-0.318,0.965,0.016
25.213,-0.314,0.969,0.018
25.223,-0.318,0.967,0.016
25.233,-0.316,0.965,0.016
25.243,-0.314,0.963,0.018
25.253,-0.316,0.963,0.018
25.263,-0.320,0.961,0.014
25.273,-0.324,0.965,0.014
25.283,-0.320,0.963,0.012
25.292,-0.322,0.967,0.012
25.302,-0.322,0.967,0.012
25.312,-0.322,0.967,0.012
25.322,-0.320,0.965,0.010
25.332,-0.324,0.963,0.014
25.342,-0.322,0.965,0.010
25.352,-0.322,0.963,0.012
25.362,-0.320,0.965,0.010
25.372,-0.320,0.965,0.014
25.382,-0.322,0.965,0.008
25.392,-0.320,0.965,0.010
25.402,-0.316,0.967,0.012
25.412,-0.320,0.967,0.012
25.422,-0.322,0.969,0.014
25.432,-0.320,0.967,0.012
25.442,-0.322,0.967,0.010
25.452,-0.328,0.965,0.010
25.461,-0.330,0.963,0.012
25.471,-0.332,0.971,0.014
25.481,-0.328,0.965,0.014
25.491,-0.326,0.969,0.020
25.501,-0.324,0.969,0.020
25.511,-0.326,0.961,0.014
25.521,-0.328,0.949,0.012
25.531,-0.330,0.951,0.008
25.541,-0.326,0.957,0.014
25.551,-0.330,0.963,0.016
25.561,-0.336,0.967,0.014
25.571,-0.332,0.975,0.016
25.581,-0.336,0.969,0.014
25.591,-0.332,0.965,0.014
25.601,-0.330,0.959,0.014
25.611,-0.330,0.957,0.014
25.620,-0.326,0.953,0.014
25.630,-0.326,0.959,0.012
25.640,-0.330,0.963,0.016
25.650,-0.328,0.965,0.014
25.660,-0.330,0.965,0.014
25.670,-0.332,0.965,0.014
25.680,-0.334,0.963,0.016
25.690,-0.330,0.963,0.014
25.700,-0.328,0.957,0.014
25.710,-0.334,0.955,0.014
25.720,-0.330,0.955,0.010
25.730,-0.328,0.963,0.014
25.740,-0.330,0.971,0.016
25.750,-0.330,0.969,0.012
25.760,-0.326,0.961,0.012
25.770,-0.326,0.965,0.012
25.779,-0.324,0.967,0.012
25.789,-0.322,0.967,0.014
25.799,-0.322,0.967,0.014
25.809,-0.322,0.969,0.016
25.819,-0.320,0.969,0.018
25.829,-0.322,0.969,0.016
25.839,-0.320,0.963,0.014
25.849,-0.316,0.963,0.014
25.859,-0.316,0.961,0.016
25.869,-0.314,0.959,0.016
25.879,-0.314,0.963,0.016
25.889,-0.318,0.967,0.018
25.899,-0.320,0.969,0.014
25.909,-0.320,0.969,0.018
25.919,-0.324,0.967,0.014
25.929,-0.322,0.967,0.012
25.938,-0.320,0.965,0.012
25.948,-0.320,0.961,0.014
25.958,-0.320,0.963,0.012
25.968,-0.322,0.961,0.014
25.978,-0.322,0.963,0.010
25.988,-0.324,0.965,0.012
25.998,-0.322,0.969,0.016
26.008,-0.326,0.969,0.014
26.018,-0.322,0.973,0.012
26.028,-0.322,0.969,0.012
26.038,-0.322,0.965,0.012
26.048,-0.320,0.961,0.014
26.058,-0.320,0.969,0.014
26.068,-0.318,0.967,0.014
26.078,-0.320,0.973,0.020
26.088,-0.320,0.977,0.020
26.097,-0.320,0.967,0.016
26.107,-0.326,0.953,0.014
26.117,-0.326,0.957,0.012
26.127,-0.324,0.961,0.014
26.137,-0.328,0.963,0.014
26.147,-0.334,0.965,0.016
26.157,-0.336,0.965,0.016
26.167,-0.338,0.963,0.016
26.177,-0.332,0.963,0.014
26.187,-0.334,0.961,0.014
26.197,-0.332,0.959,0.012
26.207,-0.326,0.961,0.012
26.217,-0.326,0.961,0.014
26.227,-0.326,0.965,0.016
26.237,-0.322,0.965,0.018
26.247,-0.320,0.965,0.016
26.256,-0.324,0.963,0.014
26.266,-0.324,0.959,0.014
26.276,-0.324,0.961,0.016
26.286,-0.326,0.963,0.014
26.296,-0.330,0.963,0.012
26.306,-0.330,0.963,0.010
26.316,-0.330,0.969,0.014
26.326,-0.330,0.973,0.014
26.336,-0.326,0.969,0.014
26.346,-0.322,0.965,0.010
26.356,-0.326,0.961,0.010
26.366,-0.324,0.965,0.012
26.376,-0.322,0.967,0.016
26.386,-0.320,0.969,0.010
26.396,-0.318,0.969,0.014
26.406,-0.314,0.969,0.016
26.415,-0.318,0.963,0.014
26.425,-0.316,0.965,0.012
26.435,-0.316,0.965,0.016
26.445,-0.316,0.967,0.012
26.455,-0.318,0.965,0.018
26.465,-0.318,0.967,0.016
26.475,-0.318,0.963,0.012
26.485,-0.320,0.967,0.012
26.495,-0.324,0.967,0.018
26.505,-0.320,0.965,0.016
26.515,-0.324,0.963,0.016
26.525,-0.326,0.963,0.012
26.535,-0.324,0.965,0.014
26.545,-0.324,0.969,0.012
26.555,-0.320,0.965,0.012
26.565,-0.318,0.963,0.012
26.574,-0.320,0.963,0.012
26.584,-0.322,0.967,0.014
26.594,-0.324,0.971,0.016
26.604,-0.324,0.971,0.012
26.614,-0.324,0.967,0.016
26.624,-0.326,0.967,0.012
26.634,-0.322,0.963,0.016
26.644,-0.322,0.959,0.016
26.654,-0.328,0.967,0.020
26.664,-0.322,0.965,0.016
26.674,-0.326,0.961,0.018
26.684,-0.326,0.971,0.023
26.694,-0.324,0.965,0.021
26.704,-0.328,0.951,0.014
26.714,-0.330,0.951,0.012
26.724,-0.324,0.959,0.014
26.733,-0.326,0.965,0.020
26.743,-0.332,0.971,0.016
26.753,-0.336,0.967,0.016
26.763,-0.338,0.965,0.014
26.773,-0.336,0.963,0.012
26.783,-0.332,0.955,0.012
26.793,-0.324,0.957,0.014
26.803,-0.324,0.959,0.012
26.813,-0.318,0.967,0.018
26.823,-0.318,0.965,0.020
26.833,-0.320,0.969,0.018
26.843,-0.320,0.967,0.020
26.853,-0.322,0.963,0.018
26.863,-0.324,0.961,0.014
26.873,-0.324,0.961,0.014
26.883,-0.326,0.963,0.014
26.892,-0.330,0.965,0.016
26.902,-0.332,0.963,0.010
26.912,-0.326,0.969,0.012
26.922,-0.326,0.973,0.016
26.932,-0.326,0.969,0.014
26.942,-0.322,0.963,0.010
26.952,-0.322,0.959,0.012
26.962,-0.322,0.965,0.012
26.972,-0.322,0.967,0.016
26.982,-0.324,0.967,0.016
26.992,-0.318,0.969,0.018
27.002,-0.318,0.969,0.016
27.012,-0.316,0.967,0.016
27.022,-0.314,0.963,0.016
27.032,-0.311,0.961,0.014
27.042,-0.316,0.965,0.016
27.051,-0.318,0.967,0.016
27.061,-0.318,0.957,0.012
27.071,-0.322,0.963,0.018
27.081,-0.324,0.965,0.014
27.091,-0.322,0.965,0.014
27.101,-0.324,0.963,0.014
27.111,-0.328,0.965,0.010
27.121,-0.324,0.965,0.010
27.131,-0.326,0.965,0.014
27.141,-0.322,0.967,0.010
27.151,-0.324,0.965,0.010
27.161,-0.322,0.963,0.008
27.171,-0.322,0.969,0.014
27.181,-0.320,0.967,0.014
27.191,-0.320,0.969,0.010
27.201,-0.318,0.965,0.014
27.210,-0.326,0.967,0.010
27.220,-0.322,0.971,0.014
27.230,-0.324,0.971,0.010
27.240,-0.322,0.971,0.016
27.250,-0.320,0.971,0.016
27.260,-0.320,0.969,0.014
27.270,-0.320,0.961,0.016
27.280,-0.320,0.959,0.012
27.290,-0.320,0.967,0.018
27.300,-0.314,0.963,0.018
27.310,-0.316,0.965,0.016
27.320,-0.320,0.975,0.020
27.330,-0.320,0.969,0.021
27.340,-0.324,0.953,0.012
27.350,-0.326,0.955,0.008
27.360,-0.320,0.961,0.018
27.369,-0.324,0.963,0.016
27.379,-0.328,0.965,0.012
27.389,-0.328,0.967,0.018
27.399,-0.328,0.967,0.014
27.409,-0.328,0.965,0.012
27.419,-0.324,0.961,0.014
27.429,-0.318,0.959,0.014
27.439,-0.316,0.961,0.016
27.449,-0.314,0.965,0.012
27.459,-0.314,0.965,0.014
27.469,-0.316,0.963,0.014
27.479,-0.318,0.969,0.012
27.489,-0.320,0.969,0.012
27.499,-0.324,0.971,0.012
27.509,-0.322,0.969,0.010
27.519,-0.324,0.969,0.010
27.529,-0.326,0.965,0.010
27.538,-0.320,0.961,0.012
27.548,-0.322,0.971,0.014
27.558,-0.326,0.969,0.016
27.568,-0.320,0.971,0.016
27.578,-0.320,0.965,0.012
27.588,-0.316,0.963,0.008
27.598,-0.316,0.963,0.018
27.608,-0.316,0.967,0.016
27.618,-0.316,0.969,0.016
27.628,-0.316,0.969,0.018
27.638,-0.312,0.967,0.016
27.648,-0.316,0.963,0.018
27.658,-0.316,0.963,0.014
27.668,-0.314,0.965,0.014
27.678,-0.316,0.965,0.016
27.688,-0.316,0.965,0.014
27.697,-0.320,0.967,0.018
27.707,-0.320,0.967,0.018
27.717,-0.320,0.967,0.012
27.727,-0.322,0.965,0.014
27.737,-0.324,0.963,0.012
27.747,-0.324,0.963,0.012
27.757,-0.324,0.969,0.014
27.767,-0.326,0.965,0.014
27.777,-0.324,0.965,0.014
27.787,-0.318,0.963,0.010
27.797,-0.322,0.965,0.012
27.807,-0.322,0.961,0.008
27.817,-0.322,0.965,0.014
27.827,-0.322,0.965,0.012
27.837,-0.320,0.969,0.014
27.847,-0.320,0.965,0.014
27.856,-0.324,0.967,0.012
27.866,-0.324,0.973,0.016
27.876,-0.328,0.969,0.016
27.886,-0.326,0.971,0.016
27.896,-0.324,0.965,0.014
27.906,-0.320,0.965,0.016
27.916,-0.322,0.959,0.014
27.926,-0.322,0.959,0.018
27.936,-0.318,0.969,0.021
27.946,-0.316,0.969,0.018
27.956,-0.318,0.969,0.018
27.966,-0.322,0.971,0.023
27.976,-0.326,0.965,0.020
27.986,-0.324,0.955,0.016
27.996,-0.328,0.957,0.010
28.006,-0.328,0.961,0.018
28.015,-0.328,0.963,0.020
28.025,-0.328,0.967,0.018
28.035,-0.330,0.967,0.016
28.045,-0.332,0.965,0.018
28.055,-0.326,0.961,0.014
28.065,-0.324,0.955,0.018
28.075,-0.322,0.957,0.016
28.085,-0.320,0.961,0.020
28.095,-0.320,0.965,0.020
28.105,-0.322,0.965,0.020
28.115,-0.320,0.969,0.021
28.125,-0.322,0.967,0.018
28.135,-0.326,0.969,0.018
28.145,-0.324,0.969,0.014
28.155,-0.328,0.965,0.012
28.165,-0.326,0.965,0.010
28.174,-0.328,0.961,0.014
28.184,-0.320,0.967,0.016
28.194,-0.320,0.975,0.016
28.204,-0.324,0.973,0.014
28.214,-0.320,0.965,0.012
28.224,-0.316,0.963,0.014
28.234,-0.316,0.963,0.020
28.244,-0.316,0.963,0.014
28.254,-0.314,0.967,0.018
28.264,-0.314,0.969,0.016
28.274,-0.312,0.965,0.016
28.284,-0.314,0.967,0.014
28.294,-0.318,0.967,0.016
28.304,-0.318,0.969,0.014
28.314,-0.318,0.967,0.016
28.324,-0.318,0.963,0.014
28.333,-0.316,0.965,0.010
28.343,-0.318,0.967,0.014
28.353,-0.316,0.965,0.012
28.363,-0.316,0.967,0.012
28.373,-0.320,0.969,0.016
28.383,-0.320,0.961,0.010
28.393,-0.318,0.965,0.012
28.403,-0.320,0.967,0.014
28.413,-0.320,0.963,0.012
28.423,-0.320,0.963,0.010
28.433,-0.318,0.965,0.010
28.443,-0.318,0.969,0.012
28.453,-0.320,0.967,0.014
28.463,-0.324,0.967,0.014
28.473,-0.324,0.963,0.014
28.483,-0.328,0.965,0.012
28.492,-0.326,0.969,0.010
28.502,-0.326,0.969,0.014
28.512,-0.326,0.973,0.012
28.522,-0.326,0.967,0.010
28.532,-0.326,0.963,0.010
28.542,-0.324,0.967,0.008
28.552,-0.322,0.961,0.012
28.562,-0.324,0.961,0.014
28.572,-0.322,0.969,0.018
28.582,-0.320,0.969,0.016
28.592,-0.320,0.967,0.014
28.602,-0.322,0.971,0.016
28.612,-0.322,0.967,0.014
28.622,-0.328,0.957,0.012
28.632,-0.328,0.959,0.012
28.642,-0.328,0.963,0.016
28.651,-0.330,0.965,0.014
28.661,-0.332,0.963,0.016
28.671,-0.328,0.965,0.012
28.681,-0.328,0.961,0.014
28.691,-0.328,0.959,0.014
28.701,-0.324,0.957,0.012
28.711,-0.324,0.961,0.016
28.721,-0.320,0.961,0.016
28.731,-0.318,0.961,0.018
28.741,-0.322,0.963,0.014
28.751,-0.324,0.963,0.014
28.761,-0.322,0.963,0.014
28.771,-0.326,0.967,0.018
28.781,-0.326,0.969,0.010
28.791,-0.330,0.965,0.014
28.801,-0.330,0.969,0.014
28.810,-0.326,0.961,0.010
28.820,-0.324,0.965,0.012
28.830,-0.322,0.975,0.020
28.840,-0.322,0.971,0.018
28.850,-0.318,0.963,0.014
28.860,-0.318,0.957,0.010
28.870,-0.318,0.967,0.014
28.880,-0.320,0.973,0.018
28.890,-0.320,0.969,0.014
28.900,-0.314,0.971,0.016
28.910,-0.318,0.973,0.016
28.920,-0.318,0.967,0.012
28.930,-0.318,0.965,0.012
28.940,-0.318,0.965,0.016
28.950,-0.320,0.965,0.012
28.960,-0.316,0.965,0.016
28.969,-0.320,0.967,0.016
28.979,-0.320,0.967,0.014
28.989,-0.322,0.965,0.014
28.999,-0.324,0.969,0.018
29.009,-0.324,0.967,0.014
29.019,-0.322,0.963,0.014
29.029,-0.324,0.963,0.016
29.039,-0.322,0.959,0.014
29.049,-0.326,0.963,0.014
29.059,-0.324,0.963,0.016
29.069,-0.322,0.963,0.010
29.079,-0.326,0.965,0.016
29.089,-0.326,0.967,0.016
29.099,-0.330,0.963,0.012
29.109,-0.330,0.963,0.014
29.119,-0.330,0.965,0.014
29.128,-0.334,0.967,0.012
29.138,-0.332,0.967,0.014
29.148,-0.328,0.971,0.014
29.158,-0.328,0.969,0.018
29.168,-0.326,0.965,0.010
29.178,-0.324,0.965,0.010
29.188,-0.322,0.959,0.010
29.198,-0.318,0.955,0.014
29.208,-0.320,0.969,0.020
29.218,-0.320,0.973,0.020
29.228,-0.318,0.967,0.018
29.238,-0.322,0.971,0.016
29.248,-0.322,0.973,0.018
29.258,-0.326,0.963,0.010
29.268,-0.330,0.959,0.010
29.278,-0.328,0.961,0.012
29.287,-0.324,0.961,0.018
29.297,-0.324,0.963,0.018
29.307,-0.328,0.965,0.016
29.317,-0.330,0.959,0.016
29.327,-0.326,0.961,0.016
29.337,-0.324,0.959,0.014
29.347,-0.324,0.953,0.012
29.357,-0.322,0.957,0.010
29.367,-0.322,0.957,0.016
29.377,-0.320,0.965,0.018
29.387,-0.324,0.965,0.012
29.397,-0.326,0.967,0.010
29.407,-0.330,0.971,0.012
29.417,-0.328,0.973,0.008
29.427,-0.330,0.969,0.010
29.437,-0.330,0.975,0.006
29.446,-0.330,0.967,0.008
29.456,-0.326,0.961,0.006
29.466,-0.324,0.973,0.012
29.476,-0.322,0.975,0.014
29.486,-0.320,0.973,0.010
29.496,-0.322,0.965,0.008
29.506,-0.318,0.965,0.016
29.516,-0.314,0.965,0.016
29.526,-0.316,0.963,0.016
29.536,-0.316,0.965,0.014
29.546,-0.320,0.963,0.016
29.556,-0.320,0.961,0.018
29.566,-0.320,0.959,0.014
29.576,-0.322,0.963,0.016
29.586,-0.324,0.961,0.014
29.596,-0.324,0.963,0.014
29.606,-0.324,0.961,0.014
29.615,-0.324,0.963,0.014
29.625,-0.326,0.961,0.010
29.635,-0.326,0.961,0.014
29.645,-0.326,0.965,0.010
29.655,-0.326,0.961,0.012
29.665,-0.326,0.961,0.010
29.675,-0.320,0.963,0.008
29.685,-0.322,0.963,0.010
29.695,-0.320,0.963,0.012
29.705,-0.320,0.969,0.012
29.715,-0.324,0.967,0.012
29.725,-0.324,0.971,0.010
29.735,-0.328,0.975,0.010
29.745,-0.326,0.973,0.010
29.755,-0.326,0.969,0.012
29.765,-0.330,0.971,0.010
29.774,-0.328,0.969,0.010
29.784,-0.326,0.967,0.012
29.794,-0.326,0.963,0.016
29.804,-0.326,0.963,0.010
29.814,-0.322,0.955,0.008
29.824,-0.320,0.965,0.018
29.834,-0.322,0.971,0.023
29.844,-0.324,0.965,0.014
29.854,-0.326,0.959,0.014
29.864,-0.326,0.965,0.014
29.874,-0.328,0.957,0.012
29.884,-0.334,0.957,0.010
29.894,-0.332,0.965,0.012
29.904,-0.334,0.963,0.016
29.914,-0.334,0.963,0.016
29.924,-0.336,0.965,0.018
29.933,-0.332,0.967,0.016
29.943,-0.332,0.963,0.020
29.953,-0.326,0.959,0.016
29.963,-0.324,0.955,0.020
29.973,-0.324,0.949,0.016
29.983,-0.322,0.955,0.018
29.993,-0.318,0.957,0.016
30.003,-0.322,0.961,0.018
30.013,-0.326,0.963,0.018
30.023,-0.328,0.965,0.018
30.033,-0.330,0.965,0.018
30.043,-0.332,0.967,0.014
30.053,-0.336,0.967,0.012
30.063,-0.340,0.969,0.012
30.073,-0.338,0.961,0.010
30.083,-0.332,0.965,0.012
30.092,-0.328,0.973,0.018
30.102,-0.326,0.979,0.018
30.112,-0.322,0.969,0.018
30.122,-0.320,0.961,0.012
30.132,-0.322,0.959,0.016
30.142,-0.316,0.963,0.016
30.152,-0.316,0.963,0.020
30.162,-0.318,0.967,0.018
30.172,-0.318,0.967,0.020
30.182,-0.318,0.967,0.014
30.192,-0.320,0.969,0.016
30.202,-0.322,0.965,0.018
30.212,-0.324,0.963,0.016
30.222,-0.324,0.963,0.016
30.232,-0.324,0.963,0.014
30.242,-0.326,0.965,0.012
30.251,-0.326,0.959,0.012
30.261,-0.324,0.961,0.012
30.271,-0.324,0.961,0.010
30.281,-0.324,0.969,0.014
30.291,-0.324,0.967,0.014
30.301,-0.322,0.965,0.016
30.311,-0.322,0.959,0.014
30.321,-0.324,0.963,0.014
30.331,-0.320,0.963,0.012
30.341,-0.322,0.963,0.016
30.351,-0.324,0.961,0.010
30.361,-0.324,0.965,0.010
30.371,-0.328,0.963,0.012
30.381,-0.330,0.969,0.012
30.391,-0.334,0.967,0.012
30.401,-0.332,0.973,0.012
30.410,-0.334,0.973,0.012
30.420,-0.328,0.965,0.014
30.430,-0.332,0.963,0.014
30.440,-0.328,0.955,0.008
30.450,-0.328,0.963,0.014
30.460,-0.324,0.969,0.016
30.470,-0.326,0.969,0.014
30.480,-0.326,0.977,0.018
30.490,-0.330,0.975,0.021
30.500,-0.328,0.957,0.016
30.510,-0.330,0.947,0.012
30.520,-0.328,0.953,0.012
30.530,-0.330,0.957,0.016
30.540,-0.332,0.963,0.020
30.550,-0.334,0.963,0.018
30.560,-0.334,0.961,0.016
30.569,-0.332,0.965,0.016
30.579,-0.334,0.961,0.014
30.589,-0.330,0.959,0.014
30.599,-0.332,0.959,0.012
30.609,-0.330,0.961,0.014
30.619,-0.330,0.963,0.014
30.629,-0.328,0.965,0.016
30.639,-0.328,0.969,0.016
30.649,-0.326,0.969,0.016
30.659,-0.326,0.967,0.018
30.669,-0.324,0.963,0.014
30.679,-0.326,0.965,0.012
30.689,-0.324,0.969,0.016
30.699,-0.326,0.967,0.020
30.709,-0.328,0.963,0.012
30.719,-0.326,0.969,0.014
30.728,-0.326,0.975,0.018
30.738,-0.320,0.971,0.016
30.748,-0.320,0.965,0.016
30.758,-0.324,0.961,0.008
30.768,-0.328,0.963,0.014
30.778,-0.326,0.969,0.014
30.788,-0.322,0.967,0.018
30.798,-0.324,0.967,0.016
30.808,-0.318,0.967,0.018
30.818,-0.316,0.963,0.014
30.828,-0.318,0.965,0.016
30.838,-0.316,0.961,0.018
30.848,-0.318,0.961,0.018
30.858,-0.318,0.965,0.018
30.868,-0.318,0.963,0.016
30.878,-0.320,0.961,0.016
30.887,-0.324,0.965,0.020
30.897,-0.324,0.963,0.014
30.907,-0.324,0.961,0.012
30.917,-0.326,0.963,0.014
30.927,-0.324,0.965,0.010
30.937,-0.326,0.965,0.010
30.947,-0.328,0.969,0.010
30.957,-0.328,0.965,0.012
30.967,-0.326,0.967,0.014
30.977,-0.326,0.967,0.010
30.987,-0.328,0.965,0.012
30.997,-0.326,0.965,0.012
31.007,-0.324,0.965,0.012
31.017,-0.324,0.965,0.010
31.027,-0.324,0.965,0.012
31.037,-0.326,0.967,0.014
31.046,-0.328,0.965,0.014
31.056,-0.328,0.967,0.012
31.066,-0.334,0.963,0.010
31.076,-0.334,0.961,0.012
31.086,-0.330,0.959,0.010
31.096,-0.330,0.967,0.016
31.106,-0.328,0.965,0.016
31.116,-0.324,0.967,0.018
31.126,-0.324,0.971,0.021
31.136,-0.324,0.965,0.021
31.146,-0.326,0.953,0.016
31.156,-0.332,0.945,0.010
31.166,-0.328,0.953,0.012
31.176,-0.326,0.963,0.014
31.186,-0.326,0.971,0.016
31.196,-0.332,0.969,0.014
31.205,-0.334,0.967,0.016
31.215,-0.332,0.963,0.012
31.225,-0.332,0.959,0.010
31.235,-0.334,0.957,0.008
31.245,-0.328,0.959,0.010
31.255,-0.326,0.965,0.014
31.265,-0.322,0.965,0.016
31.275,-0.320,0.969,0.016
31.285,-0.322,0.967,0.014
31.295,-0.322,0.965,0.012
31.305,-0.322,0.961,0.012
31.315,-0.322,0.961,0.014
31.325,-0.322,0.967,0.016
31.335,-0.324,0.963,0.014
31.345,-0.326,0.961,0.014
31.355,-0.326,0.963,0.014
31.364,-0.328,0.965,0.014
31.374,-0.326,0.973,0.014
31.384,-0.326,0.967,0.014
31.394,-0.326,0.965,0.010
31.404,-0.322,0.961,0.012
31.414,-0.324,0.967,0.014
31.424,-0.322,0.969,0.016
31.434,-0.320,0.967,0.014
31.444,-0.318,0.971,0.016
31.454,-0.316,0.969,0.020
31.464,-0.316,0.965,0.018
31.474,-0.316,0.963,0.018
31.484,-0.316,0.963,0.016
31.494,-0.316,0.963,0.020
31.504,-0.318,0.963,0.016
31.514,-0.320,0.963,0.020
31.523,-0.322,0.963,0.016
31.533,-0.322,0.963,0.014
31.543,-0.324,0.965,0.016
31.553,-0.324,0.963,0.014
31.563,-0.324,0.963,0.012
31.573,-0.330,0.963,0.014
31.583,-0.330,0.965,0.012
31.593,-0.330,0.967,0.014
31.603,-0.330,0.967,0.012
31.613,-0.330,0.965,0.014
31.623,-0.324,0.965,0.014
31.633,-0.328,0.963,0.012
31.643,-0.322,0.965,0.014
31.653,-0.326,0.965,0.016
31.663,-0.322,0.965,0.018
31.673,-0.322,0.965,0.014
31.683,-0.324,0.963,0.016
31.692,-0.326,0.965,0.014
31.702,-0.330,0.965,0.014
31.712,-0.326,0.963,0.012
31.722,-0.330,0.965,0.012
31.732,-0.332,0.963,0.012
31.742,-0.330,0.959,0.010
31.752,-0.332,0.959,0.014
31.762,-0.330,0.961,0.016
31.772,-0.332,0.965,0.020
31.782,-0.326,0.965,0.021
31.792,-0.324,0.967,0.020
31.802,-0.320,0.975,0.023
31.812,-0.322,0.957,0.018
31.822,-0.330,0.951,0.012
31.832,-0.330,0.951,0.014
31.842,-0.326,0.959,0.014
31.851,-0.326,0.967,0.016
31.861,-0.332,0.973,0.018
31.871,-0.332,0.973,0.014
31.881,-0.336,0.969,0.012
31.891,-0.334,0.963,0.012
31.901,-0.328,0.961,0.010
31.911,-0.322,0.959,0.014
31.921,-0.324,0.961,0.016
31.931,-0.322,0.963,0.014
31.941,-0.324,0.969,0.018
31.951,-0.324,0.969,0.016
31.961,-0.322,0.967,0.014
31.971,-0.322,0.967,0.014
31.981,-0.326,0.961,0.012
31.991,-0.324,0.957,0.012
32.001,-0.326,0.963,0.012
32.010,-0.330,0.965,0.012
32.020,-0.332,0.959,0.010
32.030,-0.330,0.967,0.014
32.040,-0.332,0.973,0.012
32.050,-0.330,0.973,0.014
32.060,-0.320,0.963,0.014
32.070,-0.322,0.961,0.012
32.080,-0.320,0.961,0.014
32.090,-0.316,0.965,0.014
32.100,-0.316,0.967,0.016
32.110,-0.318,0.967,0.016
32.120,-0.316,0.969,0.018
32.130,-0.316,0.963,0.018
32.140,-0.320,0.963,0.014
32.150,-0.318,0.965,0.016
32.160,-0.318,0.965,0.014
32.169,-0.320,0.967,0.014
32.179,-0.324,0.963,0.016
32.189,-0.324,0.965,0.012
32.199,-0.328,0.963,0.012
32.209,-0.326,0.965,0.012
32.219,-0.328,0.963,0.012
32.229,-0.326,0.965,0.012
32.239,-0.326,0.961,0.008
32.249,-0.324,0.963,0.012
32.259,-0.322,0.963,0.012
32.269,-0.322,0.963,0.010
32.279,-0.322,0.967,0.012
32.289,-0.322,0.965,0.012
32.299,-0.324,0.969,0.012
32.309,-0.326,0.967,0.012
32.319,-0.324,0.965,0.012
32.328,-0.324,0.961,0.010
32.338,-0.324,0.965,0.010
32.348,-0.326,0.967,0.014
32.358,-0.324,0.965,0.016
32.368,-0.328,0.963,0.014
32.378,-0.328,0.967,0.014
32.388,-0.330,0.969,0.014
32.398,-0.330,0.967,0.014
32.408,-0.330,0.965,0.016
32.418,-0.328,0.967,0.014
32.428,-0.328,0.961,0.016
32.438,-0.328,0.951,0.012
32.448,-0.324,0.963,0.016
32.458,-0.320,0.963,0.020
32.468,-0.322,0.963,0.018
32.478,-0.322,0.969,0.020
32.487,-0.322,0.967,0.021
32.497,-0.324,0.955,0.014
32.507,-0.332,0.953,0.010
32.517,-0.330,0.959,0.010
32.527,-0.326,0.961,0.012
32.537,-0.326,0.969,0.012
32.547,-0.332,0.965,0.012
32.557,-0.330,0.971,0.014
32.567,-0.332,0.967,0.014
32.577,-0.328,0.965,0.012
32.587,-0.326,0.961,0.012
32.597,-0.322,0.959,0.010
32.607,-0.320,0.961,0.012
32.617,-0.320,0.963,0.010
32.627,-0.322,0.967,0.016
32.637,-0.322,0.969,0.014
32.646,-0.326,0.967,0.012
32.656,-0.328,0.965,0.010
32.666,-0.328,0.967,0.010
32.676,-0.326,0.963,0.012
32.686,-0.328,0.965,0.006
32.696,-0.324,0.961,0.010
32.706,-0.324,0.965,0.010
32.716,-0.322,0.975,0.016
32.726,-0.322,0.971,0.012
32.736,-0.318,0.965,0.014
32.746,-0.320,0.963,0.008
32.756,-0.318,0.967,0.012
32.766,-0.318,0.965,0.014
32.776,-0.316,0.963,0.014
32.786,-0.314,0.965,0.014
32.796,-0.314,0.969,0.018
32.805,-0.316,0.965,0.016
32.815,-0.318,0.963,0.012
32.825,-0.320,0.965,0.012
32.835,-0.320,0.965,0.014
32.845,-0.318,0.963,0.010
32.855,-0.322,0.963,0.012
32.865,-0.322,0.963,0.014
32.875,-0.322,0.963,0.012
32.885,-0.320,0.967,0.014
32.895,-0.322,0.969,0.008
32.905,-0.322,0.967,0.012
32.915,-0.324,0.961,0.012
32.925,-0.324,0.963,0.010
32.935,-0.324,0.963,0.010
32.945,-0.324,0.967,0.008
32.955,-0.328,0.967,0.012
32.964,-0.328,0.965,0.010
32.974,-0.324,0.965,0.014
32.984,-0.322,0.967,0.008
32.994,-0.324,0.967,0.010
33.004,-0.324,0.967,0.012
33.014,-0.324,0.965,0.008
33.024,-0.324,0.963,0.012
33.034,-0.328,0.965,0.014
33.044,-0.328,0.967,0.014
33.054,-0.328,0.969,0.014
33.064,-0.326,0.969,0.016
33.074,-0.326,0.967,0.010
33.084,-0.328,0.963,0.012
33.094,-0.324,0.955,0.008
33.104,-0.324,0.957,0.016
33.114,-0.320,0.965,0.018
33.123,-0.318,0.963,0.014
33.133,-0.320,0.967,0.018
33.143,-0.322,0.975,0.021
33.153,-0.324,0.969,0.016
33.163,-0.330,0.961,0.010
33.173,-0.330,0.957,0.010
33.183,-0.330,0.961,0.016
33.193,-0.328,0.963,0.016
33.203,-0.324,0.967,0.012
33.213,-0.326,0.965,0.012
33.223,-0.326,0.965,0.012
33.233,-0.326,0.963,0.010
33.243,-0.326,0.959,0.012
33.253,-0.322,0.957,0.012
33.263,-0.320,0.957,0.014
33.273,-0.320,0.963,0.014
33.282,-0.322,0.965,0.014
33.292,-0.324,0.967,0.012
33.302,-0.328,0.967,0.016
33.312,-0.324,0.967,0.010
33.322,-0.322,0.967,0.012
33.332,-0.324,0.969,0.012
33.342,-0.332,0.959,0.006
33.352,-0.328,0.957,0.008
33.362,-0.324,0.967,0.012
33.372,-0.326,0.971,0.014
33.382,-0.324,0.969,0.012
33.392,-0.324,0.965,0.010
33.402,-0.322,0.965,0.012
33.412,-0.320,0.967,0.014
33.422,-0.320,0.969,0.014
33.432,-0.318,0.965,0.012
33.441,-0.320,0.967,0.014
33.451,-0.322,0.967,0.016
33.461,-0.322,0.967,0.014
33.471,-0.318,0.963,0.014
33.481,-0.318,0.961,0.012
33.491,-0.318,0.961,0.014
33.501,-0.322,0.965,0.014
33.511,-0.322,0.969,0.016
33.521,-0.326,0.967,0.012
33.531,-0.324,0.959,0.010
33.541,-0.324,0.961,0.014
33.551,-0.322,0.965,0.014
33.561,-0.322,0.959,0.010
33.571,-0.324,0.965,0.014
33.581,-0.322,0.965,0.012
33.591,-0.326,0.965,0.012
33.600,-0.324,0.967,0.012
33.610,-0.320,0.969,0.012
33.620,-0.322,0.965,0.010
33.630,-0.322,0.965,0.008
33.640,-0.324,0.969,0.008
33.650,-0.330,0.969,0.012
33.660,-0.328,0.969,0.006
33.670,-0.330,0.971,0.012
33.680,-0.326,0.971,0.012
33.690,-0.326,0.967,0.014
33.700,-0.322,0.961,0.010
33.710,-0.320,0.961,0.010
33.720,-0.324,0.961,0.010
33.730,-0.320,0.957,0.010
33.740,-0.318,0.969,0.016
33.750,-0.320,0.975,0.018
33.760,-0.320,0.971,0.016
33.769,-0.324,0.971,0.014
33.779,-0.322,0.967,0.018
33.789,-0.328,0.961,0.008
33.799,-0.332,0.957,0.010
33.809,-0.332,0.963,0.010
33.819,-0.328,0.967,0.012
33.829,-0.328,0.967,0.012
33.839,-0.330,0.967,0.014
33.849,-0.332,0.961,0.012
33.859,-0.326,0.961,0.010
33.869,-0.324,0.959,0.014
33.879,-0.324,0.955,0.012
33.889,-0.324,0.955,0.014
33.899,-0.324,0.957,0.014
33.909,-0.324,0.961,0.012
33.919,-0.322,0.963,0.014
33.928,-0.326,0.967,0.016
33.938,-0.328,0.967,0.012
33.948,-0.330,0.965,0.014
33.958,-0.328,0.967,0.010
33.968,-0.336,0.963,0.008
33.978,-0.334,0.959,0.006
33.988,-0.328,0.973,0.014
33.998,-0.328,0.975,0.016
34.008,-0.326,0.975,0.012
34.018,-0.326,0.969,0.008
34.028,-0.322,0.965,0.014
34.038,-0.318,0.967,0.012
34.048,-0.316,0.963,0.014
34.058,-0.318,0.965,0.016
34.068,-0.314,0.961,0.016
34.078,-0.316,0.967,0.016
34.087,-0.316,0.965,0.014
34.097,-0.320,0.963,0.016
34.107,-0.322,0.961,0.014
34.117,-0.322,0.963,0.012
34.127,-0.318,0.961,0.012
34.137,-0.322,0.967,0.010
34.147,-0.324,0.967,0.008
34.157,-0.324,0.965,0.012
34.167,-0.322,0.967,0.014
34.177,-0.324,0.965,0.008
34.187,-0.326,0.963,0.012
34.197,-0.324,0.963,0.010
34.207,-0.320,0.965,0.014
34.217,-0.320,0.967,0.014
34.227,-0.318,0.969,0.016
34.237,-0.320,0.971,0.012
34.246,-0.324,0.971,0.016
34.256,-0.324,0.961,0.008
34.266,-0.326,0.963,0.012
34.276,-0.326,0.965,0.012
34.286,-0.330,0.967,0.012
34.296,-0.330,0.965,0.014
34.306,-0.330,0.965,0.012
34.316,-0.326,0.969,0.012
34.326,-0.330,0.969,0.016
34.336,-0.326,0.959,0.012
34.346,-0.322,0.965,0.014
34.356,-0.324,0.967,0.014
34.366,-0.322,0.963,0.012
34.376,-0.326,0.969,0.016
34.386,-0.326,0.967,0.016
34.396,-0.332,0.963,0.012
34.405,-0.332,0.959,0.014
34.415,-0.334,0.961,0.016
34.425,-0.330,0.963,0.016
34.435,-0.330,0.957,0.014
34.445,-0.332,0.959,0.014
34.455,-0.328,0.959,0.014
34.465,-0.330,0.959,0.012
34.475,-0.326,0.957,0.014
34.485,-0.322,0.959,0.012
34.495,-0.322,0.961,0.016
34.505,-0.326,0.963,0.018
34.515,-0.324,0.959,0.012
34.525,-0.326,0.959,0.014
34.535,-0.324,0.963,0.018
34.545,-0.326,0.965,0.012
34.555,-0.332,0.963,0.012
34.564,-0.330,0.969,0.008
34.574,-0.332,0.965,0.010
34.584,-0.334,0.961,0.006
34.594,-0.334,0.959,0.010
34.604,-0.326,0.967,0.010
34.614,-0.324,0.971,0.018
34.624,-0.326,0.965,0.010
34.634,-0.322,0.961,0.006
34.644,-0.322,0.967,0.012
34.654,-0.322,0.973,0.014
34.664,-0.320,0.967,0.010
34.674,-0.324,0.967,0.012
34.684,-0.322,0.969,0.012
34.694,-0.320,0.965,0.014
34.704,-0.322,0.967,0.010
34.714,-0.318,0.965,0.012
34.723,-0.322,0.963,0.010
34.733,-0.318,0.963,0.010
34.743,-0.320,0.965,0.014
34.753,-0.322,0.969,0.010
34.763,-0.324,0.965,0.012
34.773,-0.326,0.961,0.012
34.783,-0.324,0.963,0.012
34.793,-0.326,0.961,0.012
34.803,-0.324,0.957,0.014
34.813,-0.324,0.959,0.014
34.823,-0.324,0.961,0.016
34.833,-0.326,0.957,0.014
34.843,-0.328,0.963,0.010
34.853,-0.328,0.967,0.014
34.863,-0.332,0.967,0.012
34.873,-0.334,0.969,0.012
34.882,-0.332,0.969,0.014
34.892,-0.330,0.967,0.012
34.902,-0.332,0.963,0.014
34.912,-0.328,0.963,0.010
34.922,-0.326,0.967,0.010
34.932,-0.324,0.957,0.010
34.942,-0.324,0.961,0.012
34.952,-0.320,0.969,0.018
34.962,-0.320,0.969,0.016
34.972,-0.324,0.969,0.014
34.982,-0.326,0.971,0.018
34.992,-0.330,0.959,0.010
35.002,-0.332,0.955,0.006
35.012,-0.336,0.963,0.010
35.022,-0.336,0.965,0.010
35.032,-0.334,0.967,0.010
35.041,-0.336,0.961,0.008
35.051,-0.330,0.967,0.012
35.061,-0.332,0.969,0.012
35.071,-0.330,0.965,0.012
35.081,-0.328,0.955,0.010
35.091,-0.326,0.953,0.010
35.101,-0.322,0.953,0.008
35.111,-0.324,0.959,0.010
35.121,-0.324,0.963,0.010
35.131,-0.326,0.965,0.018
35.141,-0.328,0.969,0.012
35.151,-0.330,0.967,0.010
35.161,-0.330,0.965,0.010
35.171,-0.332,0.967,0.006
35.181,-0.334,0.965,0.004
35.191,-0.334,0.959,0.002
35.200,-0.332,0.961,0.004
35.210,-0.328,0.971,0.008
35.220,-0.328,0.973,0.010
35.230,-0.326,0.967,0.010
35.240,-0.324,0.957,0.008
35.250,-0.320,0.963,0.010
35.260,-0.322,0.963,0.010
35.270,-0.318,0.967,0.008
35.280,-0.322,0.969,0.012
35.290,-0.320,0.969,0.012
35.300,-0.318,0.965,0.012
35.310,-0.320,0.965,0.010
35.320,-0.324,0.961,0.008
35.330,-0.322,0.965,0.006
35.340,-0.322,0.965,0.012
35.350,-0.324,0.971,0.006
35.359,-0.326,0.967,0.006
35.369,-0.324,0.967,0.008
35.379,-0.324,0.969,0.006
35.389,-0.322,0.963,0.004
35.399,-0.320,0.961,0.012
35.409,-0.322,0.965,0.010
35.419,-0.320,0.967,0.012
35.429,-0.324,0.963,0.010
35.439,-0.322,0.963,0.010
35.449,-0.324,0.955,0.008
35.459,-0.322,0.961,0.006
35.469,-0.328,0.959,0.010
35.479,-0.328,0.965,0.010
35.489,-0.328,0.965,0.012
35.499,-0.332,0.963,0.010
35.509,-0.330,0.963,0.006
35.518,-0.334,0.965,0.004
35.528,-0.334,0.961,0.002
35.538,-0.330,0.961,0.006
35.548,-0.326,0.967,0.012
35.558,-0.324,0.967,0.010
35.568,-0.324,0.975,0.014
35.578,-0.322,0.977,0.020
35.588,-0.324,0.963,0.012
35.598,-0.322,0.949,0.006
35.608,-0.324,0.955,0.008
35.618,-0.324,0.961,0.012
35.628,-0.324,0.965,0.014
35.638,-0.332,0.963,0.010
35.648,-0.336,0.965,0.012
35.658,-0.338,0.963,0.008
35.668,-0.336,0.961,0.010
35.677,-0.338,0.959,0.008
35.687,-0.334,0.959,0.006
35.697,-0.332,0.955,0.008
35.707,-0.330,0.959,0.006
35.717,-0.330,0.961,0.012
35.727,-0.330,0.963,0.010
35.737,-0.330,0.961,0.006
35.747,-0.332,0.965,0.012
35.757,-0.330,0.963,0.008
35.767,-0.328,0.961,0.008
35.777,-0.330,0.963,0.008
35.787,-0.334,0.963,0.008
35.797,-0.332,0.961,0.006
35.807,-0.326,0.967,0.008
35.817,-0.326,0.973,0.012
35.827,-0.328,0.973,0.010
35.837,-0.322,0.965,0.010
35.846,-0.328,0.963,0.008
35.856,-0.322,0.961,0.004
35.866,-0.326,0.963,0.008
35.876,-0.326,0.967,0.010
35.886,-0.328,0.967,0.006
35.896,-0.326,0.965,0.012
35.906,-0.324,0.967,0.010
35.916,-0.324,0.965,0.012
35.926,-0.326,0.967,0.012
35.936,-0.322,0.961,0.010
35.946,-0.324,0.961,0.008
35.956,-0.324,0.959,0.010
35.966,-0.324,0.961,0.010
35.976,-0.324,0.961,0.014
35.986,-0.328,0.961,0.014
35.996,-0.326,0.963,0.012
36.005,-0.328,0.959,0.012
36.015,-0.330,0.959,0.008
36.025,-0.332,0.959,0.008
36.035,-0.332,0.961,0.008
36.045,-0.328,0.959,0.004
36.055,-0.328,0.963,0.004
36.065,-0.332,0.967,0.008
36.075,-0.332,0.969,0.006
36.085,-0.334,0.969,0.006
36.095,-0.334,0.971,0.012
36.105,-0.332,0.971,0.010
36.115,-0.328,0.967,0.010
36.125,-0.326,0.963,0.010
36.135,-0.324,0.959,0.010
36.145,-0.322,0.963,0.014
36.155,-0.318,0.965,0.014
36.164,-0.322,0.961,0.012
36.174,-0.326,0.967,0.018
36.184,-0.328,0.965,0.016
36.194,-0.334,0.953,0.012
36.204,-0.338,0.949,0.006
36.214,-0.334,0.951,0.008
36.224,-0.334,0.961,0.014
36.234,-0.336,0.967,0.012
36.244,-0.334,0.967,0.012
36.254,-0.338,0.967,0.012
36.264,-0.336,0.963,0.010
36.274,-0.334,0.957,0.010
36.284,-0.334,0.959,0.006
36.294,-0.330,0.961,0.010
36.304,-0.328,0.965,0.012
36.314,-0.326,0.963,0.012
36.323,-0.324,0.967,0.014
36.333,-0.322,0.965,0.014
36.343,-0.322,0.963,0.016
36.353,-0.324,0.963,0.010
36.363,-0.330,0.961,0.012
36.373,-0.330,0.959,0.010
36.383,-0.332,0.959,0.010
36.393,-0.334,0.959,0.006
36.403,-0.336,0.961,0.006
36.413,-0.332,0.965,0.010
36.423,-0.334,0.967,0.010
36.433,-0.332,0.969,0.012
36.443,-0.332,0.963,0.006
36.453,-0.328,0.967,0.006
36.463,-0.326,0.967,0.010
36.473,-0.322,0.965,0.012
36.482,-0.322,0.967,0.012
36.492,-0.320,0.969,0.014
36.502,-0.316,0.965,0.012
36.512,-0.318,0.965,0.010
36.522,-0.318,0.961,0.008
36.532,-0.322,0.965,0.012
36.542,-0.326,0.963,0.010
36.552,-0.326,0.965,0.010
36.562,-0.326,0.963,0.012
36.572,-0.326,0.961,0.008
36.582,-0.330,0.961,0.008
36.592,-0.328,0.961,0.010
36.602,-0.330,0.965,0.008
36.612,-0.330,0.963,0.004
36.622,-0.332,0.963,0.006
36.632,-0.330,0.961,0.008
36.641,-0.330,0.961,0.006
36.651,-0.330,0.967,0.010
36.661,-0.328,0.965,0.008
36.671,-0.330,0.965,0.006
36.681,-0.328,0.963,0.008
36.691,-0.328,0.961,0.006
36.701,-0.328,0.961,0.006
36.711,-0.328,0.963,0.010
36.721,-0.330,0.965,0.010
36.731,-0.332,0.965,0.012
36.741,-0.330,0.965,0.010
36.751,-0.334,0.965,0.012
36.761,-0.332,0.961,0.008
36.771,-0.330,0.959,0.012
36.781,-0.330,0.965,0.014
36.791,-0.330,0.963,0.014
36.800,-0.328,0.961,0.014
36.810,-0.330,0.969,0.020
36.820,-0.328,0.961,0.016
36.830,-0.330,0.949,0.010
36.840,-0.336,0.945,0.010
36.850,-0.328,0.957,0.012
36.860,-0.334,0.967,0.014
36.870,-0.338,0.965,0.016
36.880,-0.338,0.971,0.012
36.890,-0.338,0.969,0.014
36.900,-0.334,0.965,0.012
36.910,-0.332,0.961,0.008
36.920,-0.328,0.959,0.006
36.930,-0.324,0.961,0.012
36.940,-0.326,0.961,0.010
36.950,-0.326,0.963,0.010
36.959,-0.324,0.969,0.016
36.969,-0.324,0.969,0.012
36.979,-0.324,0.965,0.014
36.989,-0.326,0.961,0.012
36.999,-0.326,0.961,0.012
37.009,-0.332,0.957,0.010
37.019,-0.332,0.957,0.008
37.029,-0.334,0.957,0.006
37.039,-0.334,0.963,0.010
37.049,-0.334,0.971,0.014
37.059,-0.332,0.969,0.014
37.069,-0.330,0.965,0.014
37.079,-0.328,0.963,0.008
37.089,-0.328,0.963,0.008
37.099,-0.320,0.967,0.012
37.109,-0.322,0.965,0.014
37.118,-0.322,0.967,0.016
37.128,-0.320,0.971,0.016
37.138,-0.318,0.967,0.018
37.148,-0.320,0.965,0.016
37.158,-0.320,0.961,0.012
37.168,-0.320,0.963,0.010
37.178,-0.326,0.959,0.010
37.188,-0.324,0.965,0.012
37.198,-0.328,0.961,0.012
37.208,-0.330,0.959,0.010
37.218,-0.330,0.961,0.012
37.228,-0.330,0.959,0.010
37.238,-0.330,0.961,0.006
37.248,-0.336,0.963,0.004
37.258,-0.332,0.963,0.006
37.268,-0.332,0.965,0.006
37.277,-0.330,0.965,0.008
37.287,-0.330,0.965,0.010
37.297,-0.330,0.963,0.012
37.307,-0.328,0.963,0.010
37.317,-0.328,0.963,0.008
37.327,-0.330,0.967,0.008
37.337,-0.328,0.967,0.010
37.347,-0.330,0.961,0.008
37.357,-0.334,0.963,0.008
37.367,-0.330,0.965,0.010
37.377,-0.330,0.967,0.008
37.387,-0.332,0.967,0.012
37.397,-0.334,0.965,0.010
37.407,-0.332,0.961,0.008
37.417,-0.332,0.963,0.014
37.427,-0.330,0.961,0.012
37.436,-0.330,0.953,0.008
37.446,-0.330,0.965,0.014
37.456,-0.328,0.961,0.014
37.466,-0.330,0.963,0.012
37.476,-0.326,0.973,0.016
37.486,-0.326,0.965,0.016
37.496,-0.330,0.949,0.008
37.506,-0.334,0.953,0.008
37.516,-0.328,0.963,0.012
37.526,-0.328,0.963,0.016
37.536,-0.332,0.969,0.010
37.546,-0.332,0.967,0.012
37.556,-0.330,0.963,0.008
37.566,-0.330,0.963,0.010
37.576,-0.328,0.961,0.012
37.586,-0.328,0.957,0.014
37.595,-0.326,0.963,0.010
37.605,-0.324,0.963,0.008
37.615,-0.326,0.965,0.010
37.625,-0.324,0.967,0.012
37.635,-0.324,0.965,0.012
37.645,-0.328,0.963,0.010
37.655,-0.328,0.961,0.006
37.665,-0.334,0.961,0.012
37.675,-0.336,0.961,0.010
37.685,-0.336,0.961,0.006
37.695,-0.334,0.961,0.006
37.705,-0.330,0.969,0.012
37.715,-0.332,0.971,0.010
37.725,-0.330,0.965,0.014
37.735,-0.324,0.961,0.010
37.745,-0.324,0.961,0.010
37.754,-0.324,0.963,0.014
37.764,-0.324,0.965,0.012
37.774,-0.324,0.969,0.016
37.784,-0.322,0.965,0.014
37.794,-0.322,0.965,0.018
37.804,-0.322,0.963,0.014
37.814,-0.326,0.959,0.012
37.824,-0.322,0.957,0.010
37.834,-0.326,0.957,0.010
37.844,-0.328,0.959,0.012
37.854,-0.326,0.963,0.016
37.864,-0.328,0.963,0.010
37.874,-0.330,0.963,0.010
37.884,-0.330,0.961,0.010
37.894,-0.332,0.965,0.008
37.904,-0.332,0.967,0.010
37.914,-0.332,0.965,0.010
37.923,-0.334,0.963,0.010
37.933,-0.332,0.961,0.006
37.943,-0.330,0.967,0.008
37.953,-0.326,0.961,0.008
37.963,-0.328,0.963,0.010
37.973,-0.328,0.969,0.010
37.983,-0.324,0.969,0.008
37.993,-0.324,0.967,0.006
38.003,-0.330,0.967,0.006
38.013,-0.330,0.965,0.006
38.023,-0.332,0.967,0.010
38.033,-0.332,0.969,0.006
38.043,-0.330,0.969,0.010
38.053,-0.330,0.965,0.010
38.063,-0.330,0.961,0.008
38.073,-0.332,0.961,0.010
38.082,-0.328,0.957,0.008
38.092,-0.330,0.959,0.014
38.102,-0.326,0.963,0.018
38.112,-0.328,0.957,0.014
38.122,-0.330,0.967,0.016
38.132,-0.332,0.971,0.018
38.142,-0.330,0.961,0.010
38.152,-0.338,0.951,0.008
38.162,-0.336,0.953,0.008
38.172,-0.334,0.957,0.014
38.182,-0.330,0.963,0.012
38.192,-0.338,0.965,0.012
38.202,-0.336,0.963,0.010
38.212,-0.336,0.965,0.010
38.222,-0.334,0.961,0.012
38.232,-0.334,0.953,0.014
38.241,-0.328,0.957,0.010
38.251,-0.328,0.959,0.010
38.261,-0.326,0.961,0.008
38.271,-0.328,0.963,0.012
38.281,-0.326,0.965,0.010
38.291,-0.324,0.967,0.012
38.301,-0.326,0.963,0.012
38.311,-0.332,0.967,0.010
38.321,-0.336,0.965,0.008
38.331,-0.332,0.963,0.008
38.341,-0.332,0.963,0.006
38.351,-0.328,0.965,0.012
38.361,-0.332,0.973,0.010
38.371,-0.330,0.967,0.010
38.381,-0.326,0.957,0.006
38.391,-0.324,0.963,0.008
38.400,-0.324,0.967,0.012
38.410,-0.326,0.967,0.012
38.420,-0.324,0.969,0.012
38.430,-0.324,0.967,0.016
38.440,-0.318,0.961,0.012
38.450,-0.322,0.961,0.010
38.460,-0.320,0.959,0.012
38.470,-0.320,0.957,0.010
38.480,-0.320,0.961,0.010
38.490,-0.324,0.965,0.012
38.500,-0.318,0.961,0.012
38.510,-0.328,0.963,0.012
38.520,-0.326,0.963,0.008
38.530,-0.326,0.963,0.012
38.540,-0.328,0.963,0.012
38.550,-0.330,0.959,0.006
38.559,-0.328,0.963,0.010
38.569,-0.328,0.963,0.010
38.579,-0.330,0.961,0.006
38.589,-0.328,0.967,0.008
38.599,-0.328,0.967,0.008
38.609,-0.330,0.967,0.006
38.619,-0.332,0.963,0.004
38.629,-0.330,0.967,0.006
38.639,-0.330,0.965,0.008
38.649,-0.330,0.969,0.006
38.659,-0.334,0.969,0.006
38.669,-0.330,0.967,0.008
38.679,-0.330,0.965,0.012
38.689,-0.328,0.963,0.008
38.699,-0.330,0.959,0.008
38.709,-0.328,0.959,0.008
38.718,-0.328,0.955,0.010
38.728,-0.326,0.963,0.012
38.738,-0.326,0.967,0.014
38.748,-0.326,0.967,0.012
38.758,-0.328,0.967,0.014
38.768,-0.334,0.971,0.016
38.778,-0.334,0.959,0.008
38.788,-0.334,0.953,0.008
38.798,-0.338,0.959,0.010
38.808,-0.332,0.961,0.010
38.818,-0.334,0.961,0.010
38.828,-0.334,0.963,0.008
38.838,-0.336,0.967,0.010
38.848,-0.332,0.961,0.012
38.858,-0.330,0.959,0.012
38.868,-0.328,0.955,0.012
38.877,-0.326,0.959,0.008
38.887,-0.330,0.957,0.012
38.897,-0.328,0.961,0.012
38.907,-0.326,0.967,0.008
38.917,-0.330,0.965,0.008
38.927,-0.332,0.967,0.012
38.937,-0.334,0.965,0.010
38.947,-0.336,0.967,0.006
38.957,-0.340,0.965,0.004
38.967,-0.336,0.957,0.002
38.977,-0.332,0.963,0.006
38.987,-0.330,0.973,0.014
38.997,-0.328,0.967,0.016
39.007,-0.330,0.959,0.010
39.017,-0.330,0.961,0.010
39.027,-0.326,0.965,0.014
39.036,-0.322,0.961,0.012
39.046,-0.324,0.965,0.012
39.056,-0.318,0.967,0.016
39.066,-0.320,0.963,0.016
39.076,-0.320,0.963,0.012
39.086,-0.324,0.961,0.012
39.096,-0.324,0.963,0.014
39.106,-0.324,0.965,0.014
39.116,-0.330,0.961,0.012
39.126,-0.328,0.961,0.010
39.136,-0.330,0.965,0.008
39.146,-0.328,0.965,0.012
39.156,-0.328,0.963,0.012
39.166,-0.324,0.965,0.010
39.176,-0.330,0.963,0.012
39.186,-0.328,0.957,0.008
39.195,-0.326,0.961,0.008
39.205,-0.326,0.963,0.014
39.215,-0.328,0.965,0.010
39.225,-0.328,0.965,0.010
39.235,-0.326,0.967,0.008
39.245,-0.326,0.965,0.008
39.255,-0.326,0.969,0.010
39.265,-0.330,0.967,0.014
39.275,-0.330,0.967,0.006
39.285,-0.332,0.961,0.008
39.295,-0.332,0.965,0.008
39.305,-0.330,0.961,0.010
39.315,-0.332,0.967,0.008
39.325,-0.330,0.961,0.010
39.335,-0.322,0.955,0.008
39.345,-0.324,0.969,0.014
39.354,-0.324,0.973,0.018
39.364,-0.326,0.965,0.014
39.374,-0.328,0.967,0.018
39.384,-0.324,0.965,0.014
39.394,-0.326,0.961,0.012
39.404,-0.332,0.955,0.012
39.414,-0.330,0.961,0.012
39.424,-0.328,0.963,0.020
39.434,-0.332,0.963,0.016
39.444,-0.334,0.961,0.016
39.454,-0.336,0.961,0.014
39.464,-0.334,0.957,0.010
39.474,-0.332,0.953,0.012
39.484,-0.326,0.953,0.012
39.494,-0.326,0.959,0.016
39.504,-0.332,0.957,0.016
39.513,-0.332,0.957,0.012
39.523,-0.334,0.959,0.008
39.533,-0.332,0.961,0.012
39.543,-0.336,0.965,0.008
39.553,-0.336,0.969,0.008
39.563,-0.338,0.971,0.004
39.573,-0.336,0.969,0.006
39.583,-0.338,0.963,0.000
39.593,-0.332,0.969,0.008
39.603,-0.330,0.975,0.012
39.613,-0.330,0.971,0.008
39.623,-0.328,0.963,0.002
39.633,-0.324,0.959,0.006
39.643,-0.324,0.961,0.006
39.653,-0.324,0.967,0.008
39.663,-0.324,0.973,0.010
39.672,-0.320,0.965,0.012
39.682,-0.322,0.963,0.012
39.692,-0.320,0.961,0.012
39.702,-0.322,0.959,0.002
39.712,-0.328,0.959,0.006
39.722,-0.328,0.961,0.002
39.732,-0.330,0.961,0.004
39.742,-0.330,0.965,0.004
39.752,-0.332,0.967,0.006
39.762,-0.328,0.963,0.006
39.772,-0.330,0.965,0.006
39.782,-0.328,0.963,0.006
39.792,-0.328,0.961,0.004
39.802,-0.330,0.961,0.006
39.812,-0.326,0.959,0.004
39.822,-0.328,0.963,0.006
39.832,-0.330,0.967,0.008
39.841,-0.328,0.963,0.008
39.851,-0.322,0.965,0.010
39.861,-0.326,0.969,0.008
39.871,-0.328,0.967,0.008
39.881,-0.328,0.967,0.010
39.891,-0.330,0.967,0.008
39.901,-0.332,0.961,0.010
39.911,-0.332,0.963,0.010
39.921,-0.332,0.963,0.010
39.931,-0.332,0.959,0.008
39.941,-0.326,0.953,0.008
39.951,-0.326,0.965,0.016
39.961,-0.326,0.965,0.016
39.971,-0.330,0.963,0.008
39.981,-0.332,0.971,0.014
39.991,-0.332,0.969,0.016
40.000,-0.334,0.955,0.004
40.010,-0.338,0.955,0.002
40.020,-0.336,0.963,0.010
40.030,-0.338,0.969,0.010
40.040,-0.336,0.969,0.012
40.050,-0.334,0.967,0.012
40.060,-0.336,0.965,0.014
40.070,-0.332,0.963,0.016
40.080,-0.330,0.959,0.010
40.090,-0.330,0.957,0.014
40.100,-0.332,0.955,0.010
40.110,-0.328,0.957,0.014
40.120,-0.328,0.955,0.014
40.130,-0.330,0.955,0.008
40.140,-0.332,0.957,0.010
40.150,-0.336,0.961,0.008
40.159,-0.336,0.963,0.008
40.169,-0.338,0.967,0.010
40.179,-0.338,0.963,0.004
40.189,-0.340,0.961,0.004
40.199,-0.338,0.957,0.004
40.209,-0.334,0.963,0.004
40.219,-0.332,0.971,0.006
40.229,-0.330,0.973,0.008
40.239,-0.326,0.965,0.010
40.249,-0.324,0.961,0.002
40.259,-0.326,0.961,0.006
40.269,-0.318,0.963,0.006
40.279,-0.320,0.965,0.010
40.289,-0.322,0.969,0.010
40.299,-0.322,0.967,0.010
40.309,-0.322,0.965,0.008
40.318,-0.322,0.959,0.010
40.328,-0.328,0.961,0.004
40.338,-0.326,0.959,0.006
40.348,-0.332,0.961,0.002
40.358,-0.336,0.963,0.002
40.368,-0.332,0.961,0.006
40.378,-0.334,0.963,0.004
40.388,-0.336,0.965,0.006
40.398,-0.334,0.963,0.004
40.408,-0.330,0.961,0.004
40.418,-0.334,0.959,0.002
40.428,-0.328,0.957,0.002
40.438,-0.328,0.961,0.002
40.448,-0.328,0.965,0.004
40.458,-0.328,0.965,0.006
40.468,-0.328,0.963,0.006
40.477,-0.328,0.963,0.000
40.487,-0.328,0.965,0.006
40.497,-0.332,0.971,0.006
40.507,-0.334,0.971,0.006
40.517,-0.334,0.965,0.006
40.527,-0.330,0.965,0.002
40.537,-0.330,0.965,0.006
40.547,-0.332,0.955,0.004
40.557,-0.334,0.961,0.008
40.567,-0.332,0.961,0.014
40.577,-0.330,0.963,0.010
40.587,-0.332,0.969,0.014
40.597,-0.330,0.967,0.020
40.607,-0.334,0.955,0.012
40.617,-0.336,0.947,0.008
40.627,-0.336,0.947,0.006
40.636,-0.334,0.953,0.012
40.646,-0.336,0.963,0.014
40.656,-0.340,0.967,0.012
40.666,-0.338,0.965,0.010
40.676,-0.340,0.965,0.014
40.686,-0.338,0.961,0.010
40.696,-0.336,0.959,0.010
40.706,-0.334,0.961,0.008
40.716,-0.330,0.963,0.014
40.726,-0.330,0.963,0.014
40.736,-0.330,0.963,0.014
40.746,-0.328,0.961,0.020
40.756,-0.328,0.965,0.010
40.766,-0.328,0.957,0.010
40.776,-0.326,0.961,0.016
40.786,-0.330,0.961,0.012
40.795,-0.334,0.961,0.010
40.805,-0.336,0.959,0.008
40.815,-0.336,0.961,0.012
40.825,-0.332,0.969,0.010
40.835,-0.334,0.969,0.012
40.845,-0.330,0.969,0.014
40.855,-0.324,0.961,0.008
40.865,-0.328,0.961,0.006
40.875,-0.330,0.961,0.010
40.885,-0.326,0.965,0.012
40.895,-0.326,0.969,0.014
40.905,-0.326,0.969,0.016
40.915,-0.322,0.969,0.014
40.925,-0.326,0.965,0.016
40.935,-0.324,0.959,0.012
40.945,-0.322,0.957,0.012
40.954,-0.324,0.957,0.012
40.964,-0.326,0.959,0.012
40.974,-0.328,0.961,0.014
40.984,-0.328,0.963,0.016
40.994,-0.330,0.963,0.014
41.004,-0.330,0.961,0.012
41.014,-0.334,0.963,0.010
41.024,-0.334,0.963,0.008
41.034,-0.334,0.963,0.008
41.044,-0.334,0.963,0.008
41.054,-0.334,0.963,0.006
41.064,-0.334,0.963,0.010
41.074,-0.334,0.963,0.010
41.084,-0.334,0.961,0.008
41.094,-0.332,0.963,0.008
41.104,-0.332,0.965,0.008
41.113,-0.330,0.965,0.008
41.123,-0.332,0.963,0.010
41.133,-0.330,0.961,0.008
41.143,-0.334,0.967,0.010
41.153,-0.332,0.957,0.008
41.163,-0.336,0.959,0.010
41.173,-0.336,0.967,0.010
41.183,-0.332,0.963,0.008
41.193,-0.332,0.965,0.012
41.203,-0.334,0.967,0.018
41.213,-0.330,0.961,0.014
41.223,-0.336,0.947,0.006
41.233,-0.336,0.949,0.004
41.243,-0.332,0.955,0.010
41.253,-0.338,0.961,0.008
41.263,-0.340,0.965,0.010
41.272,-0.342,0.967,0.012
41.282,-0.338,0.967,0.006
41.292,-0.336,0.961,0.010
41.302,-0.332,0.959,0.008
41.312,-0.332,0.959,0.006
41.322,-0.328,0.961,0.006
41.332,-0.326,0.963,0.010
41.342,-0.328,0.963,0.010
41.352,-0.330,0.969,0.010
41.362,-0.326,0.967,0.014
41.372,-0.330,0.967,0.010
41.382,-0.326,0.965,0.010
41.392,-0.328,0.959,0.008
41.402,-0.330,0.959,0.010
41.412,-0.336,0.961,0.008
41.422,-0.336,0.957,0.004
41.431,-0.334,0.961,0.008
41.441,-0.336,0.969,0.010
41.451,-0.332,0.969,0.010
41.461,-0.332,0.965,0.010
41.471,-0.334,0.963,0.006
41.481,-0.332,0.963,0.006
41.491,-0.326,0.963,0.008
41.501,-0.326,0.967,0.008
41.511,-0.326,0.967,0.008
41.521,-0.320,0.963,0.010
41.531,-0.320,0.965,0.010
41.541,-0.318,0.963,0.012
41.551,-0.318,0.965,0.008
41.561,-0.326,0.963,0.008
41.571,-0.324,0.961,0.010
41.581,-0.326,0.963,0.008
41.590,-0.330,0.961,0.008
41.600,-0.332,0.959,0.010
41.610,-0.330,0.959,0.008
41.620,-0.332,0.961,0.006
41.630,-0.332,0.961,0.006
41.640,-0.334,0.961,0.008
41.650,-0.338,0.961,0.004
41.660,-0.334,0.967,0.004
41.670,-0.336,0.965,0.006
41.680,-0.334,0.969,0.006
41.690,-0.332,0.965,0.008
41.700,-0.328,0.963,0.006
41.710,-0.330,0.963,0.004
41.720,-0.332,0.965,0.008
41.730,-0.330,0.965,0.008
41.740,-0.332,0.965,0.008
41.749,-0.332,0.963,0.010
41.759,-0.330,0.963,0.008
41.769,-0.334,0.957,0.008
41.779,-0.334,0.959,0.010
41.789,-0.332,0.967,0.012
41.799,-0.330,0.965,0.014
41.809,-0.326,0.961,0.010
41.819,-0.330,0.961,0.012
41.829,-0.330,0.967,0.020
41.839,-0.334,0.955,0.012
41.849,-0.340,0.947,0.008
41.859,-0.340,0.955,0.010
41.869,-0.340,0.961,0.016
41.879,-0.342,0.963,0.010
41.889,-0.338,0.965,0.010
41.899,-0.340,0.965,0.010
41.909,-0.332,0.959,0.008
41.918,-0.336,0.957,0.010
41.928,-0.328,0.957,0.008
41.938,-0.330,0.961,0.006
41.948,-0.330,0.963,0.010
41.958,-0.326,0.961,0.010
41.968,-0.326,0.963,0.012
41.978,-0.326,0.963,0.010
41.988,-0.330,0.961,0.008
41.998,-0.330,0.967,0.010
42.008,-0.334,0.967,0.006
42.018,-0.336,0.965,0.010
42.028,-0.340,0.963,0.010
42.038,-0.340,0.963,0.010
42.048,-0.334,0.963,0.006
42.058,-0.336,0.969,0.010
42.068,-0.332,0.967,0.012
42.077,-0.334,0.959,0.008
42.087,-0.334,0.957,0.002
42.097,-0.332,0.961,0.008
42.107,-0.330,0.965,0.014
42.117,-0.332,0.963,0.012
42.127,-0.326,0.965,0.016
42.137,-0.324,0.965,0.010
42.147,-0.322,0.963,0.016
42.157,-0.322,0.957,0.014
42.167,-0.322,0.961,0.014
42.177,-0.326,0.961,0.012
42.187,-0.326,0.959,0.014
42.197,-0.326,0.961,0.010
42.207,-0.328,0.961,0.014
42.217,-0.332,0.963,0.010
42.227,-0.328,0.963,0.010
42.236,-0.328,0.961,0.008
42.246,-0.328,0.959,0.010
42.256,-0.330,0.957,0.010
42.266,-0.334,0.961,0.006
42.276,-0.334,0.957,0.006
42.286,-0.334,0.963,0.006
42.296,-0.338,0.961,0.006
42.306,-0.334,0.965,0.004
42.316,-0.332,0.971,0.008
42.326,-0.334,0.969,0.008
42.336,-0.334,0.967,0.010
42.346,-0.330,0.969,0.010
42.356,-0.330,0.967,0.008
42.366,-0.328,0.963,0.008
42.376,-0.330,0.965,0.010
42.386,-0.332,0.965,0.008
42.395,-0.334,0.963,0.010
42.405,-0.330,0.959,0.010
42.415,-0.328,0.967,0.016
42.425,-0.328,0.967,0.016
42.435,-0.330,0.961,0.010
42.445,-0.330,0.967,0.018
42.455,-0.332,0.963,0.018
42.465,-0.334,0.953,0.006
42.475,-0.340,0.951,0.008
42.485,-0.342,0.961,0.014
42.495,-0.338,0.959,0.012
42.505,-0.342,0.961,0.014
42.515,-0.342,0.965,0.016
42.525,-0.336,0.963,0.016
42.535,-0.336,0.959,0.014
42.545,-0.334,0.951,0.014
42.554,-0.328,0.955,0.012
42.564,-0.328,0.955,0.010
42.574,-0.328,0.959,0.012
42.584,-0.328,0.961,0.016
42.594,-0.332,0.963,0.010
42.604,-0.336,0.963,0.014
42.614,-0.336,0.963,0.008
42.624,-0.336,0.965,0.006
42.634,-0.338,0.961,0.010
42.644,-0.342,0.959,0.008
42.654,-0.340,0.957,0.008
42.664,-0.340,0.965,0.012
42.674,-0.338,0.967,0.012
42.684,-0.336,0.965,0.006
42.694,-0.336,0.959,0.004
42.704,-0.336,0.967,0.010
42.713,-0.332,0.965,0.010
42.723,-0.330,0.965,0.010
42.733,-0.330,0.965,0.012
42.743,-0.324,0.965,0.016
42.753,-0.322,0.961,0.010
42.763,-0.326,0.965,0.008
42.773,-0.324,0.963,0.010
42.783,-0.326,0.963,0.008
42.793,-0.326,0.965,0.010
42.803,-0.328,0.965,0.012
42.813,-0.330,0.965,0.010
42.823,-0.332,0.963,0.010
42.833,-0.332,0.959,0.006
42.843,-0.330,0.961,0.006
42.853,-0.330,0.963,0.010
42.863,-0.326,0.965,0.004
42.872,-0.330,0.961,0.006
42.882,-0.328,0.963,0.006
42.892,-0.330,0.967,0.012
42.902,-0.328,0.967,0.008
42.912,-0.330,0.961,0.008
42.922,-0.328,0.961,0.008
42.932,-0.328,0.961,0.008
42.942,-0.332,0.965,0.008
42.952,-0.332,0.967,0.010
42.962,-0.332,0.965,0.012
42.972,-0.334,0.965,0.012
42.982,-0.334,0.961,0.010
42.992,-0.330,0.961,0.008
43.002,-0.332,0.963,0.010
43.012,-0.326,0.951,0.010
43.022,-0.326,0.961,0.014
43.031,-0.328,0.973,0.018
43.041,-0.328,0.967,0.014
43.051,-0.330,0.967,0.014
43.061,-0.334,0.969,0.018
43.071,-0.338,0.963,0.010
43.081,-0.340,0.955,0.010
43.091,-0.340,0.963,0.012
43.101,-0.336,0.961,0.014
43.111,-0.336,0.955,0.012
43.121,-0.338,0.957,0.010
43.131,-0.338,0.959,0.012
43.141,-0.336,0.961,0.014
43.151,-0.336,0.961,0.016
43.161,-0.332,0.953,0.016
43.171,-0.330,0.955,0.012
43.181,-0.328,0.955,0.012
43.190,-0.330,0.957,0.012
43.200,-0.332,0.961,0.010
43.210,-0.332,0.963,0.014
43.220,-0.336,0.969,0.012
43.230,-0.336,0.967,0.010
43.240,-0.342,0.965,0.010
43.250,-0.340,0.961,0.006
43.260,-0.336,0.955,0.010
43.270,-0.332,0.959,0.004
43.280,-0.332,0.969,0.012
43.290,-0.332,0.967,0.010
43.300,-0.332,0.959,0.002
43.310,-0.332,0.961,0.010
43.320,-0.330,0.965,0.014
43.330,-0.328,0.967,0.012
43.340,-0.328,0.967,0.008
43.349,-0.326,0.965,0.010
43.359,-0.322,0.963,0.008
43.369,-0.322,0.963,0.012
43.379,-0.324,0.963,0.010
43.389,-0.324,0.969,0.010
43.399,-0.328,0.969,0.014
43.409,-0.334,0.963,0.010
43.419,-0.330,0.955,0.008
43.429,-0.328,0.959,0.008
43.439,-0.330,0.965,0.014
43.449,-0.330,0.967,0.010
43.459,-0.334,0.965,0.010
43.469,-0.328,0.955,0.010
43.479,-0.328,0.955,0.010
43.489,-0.332,0.959,0.008
43.499,-0.332,0.961,0.012
43.508,-0.338,0.961,0.012
43.518,-0.336,0.959,0.008
43.528,-0.336,0.961,0.004
43.538,-0.336,0.963,0.008
43.548,-0.334,0.971,0.006
43.558,-0.338,0.969,0.008
43.568,-0.338,0.971,0.010
43.578,-0.338,0.965,0.012
43.588,-0.334,0.963,0.004
43.598,-0.334,0.961,0.006
43.608,-0.328,0.957,0.008
43.618,-0.328,0.953,0.010
43.628,-0.328,0.967,0.016
43.638,-0.326,0.967,0.012
43.648,-0.326,0.967,0.012
43.658,-0.328,0.971,0.014
43.667,-0.330,0.963,0.014
43.677,-0.334,0.955,0.008
43.687,-0.340,0.957,0.008
43.697,-0.344,0.955,0.016
43.707,-0.342,0.955,0.006
43.717,-0.344,0.957,0.010
43.727,-0.340,0.963,0.008
43.737,-0.346,0.961,0.010
43.747,-0.340,0.961,0.008
43.757,-0.342,0.957,0.008
43.767,-0.334,0.959,0.010
43.777,-0.334,0.953,0.008
43.787,-0.328,0.953,0.010
43.797,-0.330,0.957,0.008
43.807,-0.328,0.959,0.008
43.817,-0.334,0.963,0.010
43.826,-0.334,0.969,0.000
43.836,-0.338,0.967,0.004
43.846,-0.340,0.965,0.004
43.856,-0.340,0.963,0.004
43.866,-0.338,0.957,-0.002
43.876,-0.336,0.961,0.000
43.886,-0.334,0.971,0.006
43.896,-0.334,0.975,0.006
43.906,-0.334,0.967,0.006
43.916,-0.332,0.961,0.002
43.926,-0.330,0.963,0.002
43.936,-0.328,0.965,0.006
43.946,-0.326,0.959,0.008
43.956,-0.326,0.961,0.010
43.966,-0.326,0.961,0.012
43.976,-0.326,0.963,0.010
43.986,-0.328,0.959,0.006
43.995,-0.332,0.961,0.008
44.005,-0.330,0.959,0.006
44.015,-0.330,0.959,0.008
44.025,-0.330,0.963,0.008
44.035,-0.326,0.961,0.008
44.045,-0.328,0.961,0.006
44.055,-0.328,0.963,0.004
44.065,-0.328,0.963,0.004
44.075,-0.328,0.961,0.004
44.085,-0.334,0.963,0.002
44.095,-0.332,0.967,0.004
44.105,-0.328,0.969,0.006
44.115,-0.326,0.963,0.006
44.125,-0.328,0.965,0.002
44.135,-0.328,0.967,0.002
44.145,-0.330,0.965,0.004
44.154,-0.334,0.969,0.002
44.164,-0.330,0.969,0.006
44.174,-0.332,0.965,0.010
44.184,-0.332,0.963,0.006
44.194,-0.334,0.963,0.006
44.204,-0.334,0.957,0.006
44.214,-0.336,0.953,0.008
44.224,-0.328,0.961,0.010
44.234,-0.326,0.963,0.014
44.244,-0.328,0.967,0.010
44.254,-0.332,0.971,0.016
44.264,-0.334,0.971,0.016
44.274,-0.334,0.955,0.010
44.284,-0.340,0.951,0.004
44.294,-0.336,0.957,0.014
44.304,-0.340,0.959,0.016
44.313,-0.336,0.963,0.014
44.323,-0.338,0.963,0.012
44.333,-0.336,0.965,0.012
44.343,-0.334,0.961,0.014
44.353,-0.336,0.957,0.014
44.363,-0.332,0.955,0.016
44.373,-0.332,0.961,0.014
44.383,-0.330,0.959,0.018
44.393,-0.328,0.959,0.014
44.403,-0.330,0.959,0.014
44.413,-0.332,0.963,0.016
44.423,-0.334,0.963,0.014
44.433,-0.330,0.961,0.012
44.443,-0.334,0.961,0.012
44.453,-0.332,0.963,0.014
44.463,-0.334,0.965,0.014
44.472,-0.336,0.961,0.010
44.482,-0.332,0.961,0.012
44.492,-0.334,0.969,0.014
44.502,-0.332,0.973,0.010
44.512,-0.330,0.965,0.014
44.522,-0.332,0.959,0.014
44.532,-0.328,0.963,0.012
44.542,-0.326,0.969,0.014
44.552,-0.328,0.967,0.014
44.562,-0.330,0.969,0.014
44.572,-0.330,0.965,0.018
44.582,-0.330,0.965,0.016
44.592,-0.328,0.961,0.010
44.602,-0.330,0.963,0.016
44.612,-0.330,0.959,0.014
44.622,-0.332,0.959,0.014
44.631,-0.330,0.963,0.014
44.641,-0.332,0.961,0.014
44.651,-0.332,0.961,0.014
44.661,-0.332,0.959,0.014
44.671,-0.332,0.961,0.012
44.681,-0.334,0.961,0.012
44.691,-0.334,0.961,0.006
44.701,-0.336,0.963,0.008
44.711,-0.334,0.961,0.010
44.721,-0.328,0.963,0.008
44.731,-0.330,0.963,0.008
44.741,-0.330,0.963,0.008
44.751,-0.332,0.965,0.010
44.761,-0.332,0.967,0.010
44.771,-0.334,0.967,0.010
44.781,-0.332,0.965,0.012
44.790,-0.332,0.965,0.012
44.800,-0.332,0.963,0.006
44.810,-0.330,0.961,0.008
44.820,-0.328,0.965,0.014
44.830,-0.326,0.965,0.012
44.840,-0.324,0.967,0.012
44.850,-0.326,0.975,0.012
44.860,-0.328,0.967,0.012
44.870,-0.334,0.953,0.010
44.880,-0.334,0.953,0.002
44.890,-0.332,0.957,0.008
44.900,-0.330,0.961,0.012
44.910,-0.336,0.967,0.010
44.920,-0.338,0.967,0.010
44.930,-0.332,0.963,0.014
44.940,-0.334,0.961,0.014
44.949,-0.334,0.957,0.008
44.959,-0.330,0.957,0.010
44.969,-0.330,0.961,0.010
44.979,-0.328,0.965,0.010
44.989,-0.326,0.965,0.014
44.999,-0.326,0.969,0.012
45.009,-0.328,0.967,0.012
45.019,-0.328,0.959,0.014
45.029,-0.330,0.963,0.012
45.039,-0.328,0.963,0.014
45.049,-0.330,0.961,0.010
45.059,-0.332,0.963,0.008
45.069,-0.332,0.959,0.008
45.079,-0.332,0.961,0.010
45.089,-0.332,0.969,0.014
45.099,-0.328,0.975,0.016
45.108,-0.328,0.969,0.016
45.118,-0.328,0.963,0.006
45.128,-0.330,0.961,0.010
45.138,-0.326,0.965,0.010
45.148,-0.324,0.965,0.014
45.158,-0.322,0.969,0.016
45.168,-0.322,0.969,0.012
45.178,-0.318,0.969,0.018
45.188,-0.320,0.967,0.014
45.198,-0.322,0.963,0.012
45.208,-0.322,0.963,0.014
45.218,-0.320,0.959,0.012
45.228,-0.324,0.965,0.014
45.238,-0.324,0.959,0.016
45.248,-0.324,0.961,0.012
45.258,-0.328,0.967,0.016
45.267,-0.328,0.965,0.016
45.277,-0.330,0.961,0.012
45.287,-0.332,0.963,0.008
45.297,-0.332,0.961,0.010
45.307,-0.330,0.959,0.010
45.317,-0.330,0.961,0.010
45.327,-0.328,0.963,0.010
45.337,-0.330,0.967,0.012
45.347,-0.330,0.971,0.008
45.357,-0.334,0.973,0.010
45.367,-0.330,0.969,0.014
45.377,-0.328,0.967,0.008
45.387,-0.326,0.963,0.012
45.397,-0.326,0.963,0.016
45.407,-0.330,0.959,0.012
45.417,-0.326,0.969,0.016
45.426,-0.324,0.965,0.016
45.436,-0.326,0.961,0.016
45.446,-0.330,0.969,0.018
45.456,-0.326,0.967,0.020
45.466,-0.334,0.955,0.008
45.476,-0.334,0.951,0.008
45.486,-0.334,0.955,0.012
45.496,-0.332,0.961,0.014
45.506,-0.340,0.969,0.018
45.516,-0.342,0.969,0.016
45.526,-0.338,0.963,0.010
45.536,-0.334,0.963,0.014
45.546,-0.336,0.957,0.010
45.556,-0.332,0.955,0.012
45.566,-0.328,0.959,0.014
45.576,-0.326,0.965,0.012
45.585,-0.326,0.965,0.016
45.595,-0.326,0.967,0.016
45.605,-0.326,0.965,0.016
45.615,-0.326,0.963,0.016
45.625,-0.330,0.961,0.014
45.635,-0.330,0.961,0.010
45.645,-0.332,0.959,0.016
45.655,-0.338,0.965,0.012
45.665,-0.336,0.957,0.010
45.675,-0.336,0.969,0.014
45.685,-0.336,0.971,0.014
45.695,-0.334,0.971,0.016
45.705,-0.330,0.965,0.012
45.715,-0.330,0.959,0.006
45.725,-0.328,0.961,0.012
45.735,-0.324,0.969,0.012
45.744,-0.324,0.969,0.014
45.754,-0.324,0.971,0.016
45.764,-0.324,0.971,0.016
45.774,-0.320,0.969,0.018
45.784,-0.320,0.963,0.012
45.794,-0.318,0.961,0.016
45.804,-0.318,0.961,0.016
45.814,-0.322,0.957,0.014
45.824,-0.322,0.959,0.012
45.834,-0.324,0.963,0.012
45.844,-0.328,0.965,0.014
45.854,-0.332,0.963,0.016
45.864,-0.332,0.963,0.014
45.874,-0.332,0.961,0.012
45.884,-0.336,0.959,0.010
45.894,-0.336,0.961,0.008
45.903,-0.332,0.963,0.010
45.913,-0.330,0.961,0.012
45.923,-0.330,0.961,0.010
45.933,-0.332,0.965,0.012
45.943,-0.330,0.969,0.014
45.953,-0.330,0.971,0.014
45.963,-0.328,0.969,0.016
45.973,-0.328,0.969,0.014
45.983,-0.326,0.965,0.012
45.993,-0.328,0.963,0.016
46.003,-0.328,0.955,0.012
46.013,-0.328,0.959,0.014
46.023,-0.328,0.967,0.018
46.033,-0.326,0.961,0.016
46.043,-0.328,0.967,0.018
46.053,-0.328,0.973,0.020
46.063,-0.330,0.965,0.014
46.072,-0.338,0.951,0.008
46.082,-0.338,0.949,0.008
46.092,-0.334,0.957,0.012
46.102,-0.338,0.963,0.010
46.112,-0.338,0.969,0.012
46.122,-0.342,0.971,0.010
46.132,-0.338,0.963,0.014
46.142,-0.334,0.961,0.008
46.152,-0.330,0.961,0.010
46.162,-0.328,0.957,0.006
46.172,-0.326,0.957,0.012
46.182,-0.326,0.963,0.012
46.192,-0.326,0.963,0.014
46.202,-0.326,0.967,0.008
46.212,-0.326,0.965,0.012
46.222,-0.326,0.965,0.012
46.231,-0.330,0.965,0.008
46.241,-0.332,0.961,0.008
46.251,-0.336,0.963,0.008
46.261,-0.338,0.963,0.008
46.271,-0.336,0.965,0.008
46.281,-0.334,0.973,0.010
46.291,-0.336,0.971,0.008
46.301,-0.328,0.965,0.006
46.311,-0.328,0.961,0.006
46.321,-0.326,0.963,0.008
46.331,-0.326,0.961,0.010
46.341,-0.324,0.967,0.008
46.351,-0.322,0.969,0.016
46.361,-0.322,0.969,0.014
46.371,-0.322,0.967,0.012
46.381,-0.324,0.961,0.008
46.390,-0.320,0.963,0.010
46.400,-0.318,0.957,0.008
46.410,-0.320,0.957,0.012
46.420,-0.320,0.959,0.010
46.430,-0.324,0.963,0.006
46.440,-0.328,0.969,0.010
46.450,-0.330,0.967,0.010
46.460,-0.328,0.963,0.008
46.470,-0.330,0.963,0.008
46.480,-0.332,0.963,0.008
46.490,-0.334,0.961,0.006
46.500,-0.330,0.963,0.006
46.510,-0.330,0.963,0.010
46.520,-0.330,0.963,0.010
46.530,-0.326,0.961,0.006
46.540,-0.324,0.967,0.008
46.549,-0.326,0.967,0.010
46.559,-0.326,0.965,0.010
46.569,-0.324,0.967,0.012
46.579,-0.326,0.965,0.010
46.589,-0.328,0.965,0.010
46.599,-0.332,0.959,0.006
46.609,-0.332,0.959,0.004
46.619,-0.330,0.969,0.012
46.629,-0.322,0.963,0.010
46.639,-0.326,0.967,0.010
46.649,-0.326,0.971,0.016
46.659,-0.330,0.967,0.012
46.669,-0.336,0.959,0.010
46.679,-0.336,0.957,0.002
46.689,-0.338,0.957,0.008
46.699,-0.332,0.961,0.010
46.708,-0.336,0.963,0.016
46.718,-0.336,0.963,0.014
46.728,-0.332,0.965,0.010
46.738,-0.334,0.961,0.010
46.748,-0.330,0.953,0.010
46.758,-0.328,0.955,0.006
46.768,-0.326,0.955,0.010
46.778,-0.328,0.957,0.012
46.788,-0.334,0.963,0.012
46.798,-0.332,0.963,0.010
46.808,-0.330,0.969,0.012
46.818,-0.328,0.963,0.010
46.828,-0.332,0.965,0.004
46.838,-0.334,0.963,0.008
46.848,-0.336,0.957,0.004
46.858,-0.334,0.961,0.008
46.867,-0.332,0.977,0.010
46.877,-0.334,0.971,0.014
46.887,-0.330,0.965,0.008
46.897,-0.328,0.963,0.008
46.907,-0.326,0.961,0.006
46.917,-0.330,0.959,0.006
46.927,-0.326,0.963,0.012
46.937,-0.326,0.965,0.012
46.947,-0.324,0.971,0.012
46.957,-0.324,0.967,0.010
46.967,-0.322,0.965,0.010
46.977,-0.324,0.963,0.008
46.987,-0.324,0.961,0.008
46.997,-0.324,0.961,0.010
47.007,-0.324,0.963,0.010
47.017,-0.324,0.965,0.012
47.026,-0.326,0.965,0.010
47.036,-0.328,0.961,0.008
47.046,-0.326,0.965,0.006
47.056,-0.330,0.963,0.008
47.066,-0.328,0.963,0.006
47.076,-0.328,0.961,0.006
47.086,-0.326,0.963,0.008
47.096,-0.330,0.963,0.006
47.106,-0.330,0.961,0.006
47.116,-0.330,0.963,0.000
47.126,-0.332,0.969,0.002
47.136,-0.334,0.967,0.008
47.146,-0.332,0.967,0.006
47.156,-0.334,0.965,0.002
47.166,-0.332,0.965,0.006
47.176,-0.328,0.967,0.010
47.185,-0.326,0.957,0.000
47.195,-0.328,0.963,0.006
47.205,-0.326,0.971,0.012
47.215,-0.324,0.971,0.008
47.225,-0.328,0.969,0.008
47.235,-0.328,0.971,0.008
47.245,-0.336,0.967,0.006
47.255,-0.338,0.957,0.006
47.265,-0.340,0.959,0.004
47.275,-0.340,0.963,0.006
47.285,-0.334,0.965,0.010
47.295,-0.338,0.967,0.008
47.305,-0.336,0.961,0.010
47.315,-0.336,0.955,0.006
47.325,-0.332,0.955,0.010
47.335,-0.330,0.953,0.008
47.344,-0.332,0.953,0.012
47.354,-0.330,0.955,0.010
47.364,-0.328,0.957,0.010
47.374,-0.330,0.957,0.012
47.384,-0.334,0.963,0.012
47.394,-0.338,0.959,0.010
47.404,-0.340,0.961,0.008
47.414,-0.340,0.963,0.006
47.424,-0.338,0.953,0.010
47.434,-0.338,0.957,0.006
47.444,-0.332,0.961,0.008
47.454,-0.334,0.973,0.010
47.464,-0.332,0.973,0.008
47.474,-0.332,0.959,0.006
47.484,-0.330,0.957,0.006
47.494,-0.326,0.965,0.014
47.503,-0.324,0.965,0.012
47.513,-0.328,0.969,0.012
47.523,-0.324,0.969,0.010
47.533,-0.320,0.967,0.010
47.543,-0.322,0.961,0.008
47.553,-0.322,0.963,0.008
47.563,-0.324,0.965,0.010
47.573,-0.324,0.963,0.012
47.583,-0.328,0.965,0.010
47.593,-0.326,0.961,0.010
47.603,-0.328,0.967,0.010
47.613,-0.326,0.963,0.008
47.623,-0.328,0.965,0.010
47.633,-0.328,0.965,0.006
47.643,-0.330,0.969,0.004
47.653,-0.328,0.963,0.006
47.662,-0.332,0.965,0.006
47.672,-0.328,0.963,0.008
47.682,-0.326,0.961,0.010
47.692,-0.330,0.963,0.008
47.702,-0.328,0.965,0.010
47.712,-0.330,0.967,0.010
47.722,-0.330,0.963,0.010
47.732,-0.328,0.961,0.008
47.742,-0.328,0.961,0.010
47.752,-0.328,0.965,0.010
47.762,-0.332,0.955,0.008
47.772,-0.330,0.957,0.010
47.782,-0.330,0.973,0.018
47.792,-0.328,0.969,0.012
47.802,-0.328,0.965,0.008
47.812,-0.328,0.965,0.014
47.821,-0.330,0.961,0.010
47.831,-0.336,0.955,0.006
47.841,-0.336,0.955,0.008
47.851,-0.342,0.965,0.010
47.861,-0.342,0.967,0.006
47.871,-0.344,0.963,0.006
47.881,-0.342,0.961,0.006
47.891,-0.338,0.965,0.006
47.901,-0.336,0.965,0.010
47.911,-0.332,0.959,0.010
47.921,-0.330,0.957,0.008
47.931,-0.328,0.953,0.008
47.941,-0.330,0.961,0.008
47.951,-0.330,0.961,0.010
47.961,-0.330,0.963,0.014
47.971,-0.330,0.965,0.012
47.980,-0.332,0.965,0.008
47.990,-0.336,0.965,0.008
48.000,-0.338,0.961,0.006
48.010,-0.338,0.959,0.008
48.020,-0.340,0.955,0.006
48.030,-0.338,0.961,0.008
48.040,-0.336,0.971,0.010
48.050,-0.336,0.969,0.012
48.060,-0.334,0.959,0.004
48.070,-0.332,0.959,0.006
48.080,-0.330,0.963,0.010
48.090,-0.326,0.965,0.010
48.100,-0.328,0.967,0.012
48.110,-0.320,0.963,0.014
48.120,-0.320,0.967,0.012
48.130,-0.322,0.959,0.012
48.140,-0.322,0.957,0.014
48.149,-0.322,0.965,0.014
48.159,-0.322,0.961,0.008
48.169,-0.322,0.963,0.010
48.179,-0.320,0.965,0.008
48.189,-0.328,0.965,0.012
48.199,-0.328,0.961,0.010
48.209,-0.328,0.961,0.008
48.219,-0.330,0.959,0.006
48.229,-0.332,0.957,0.008
48.239,-0.334,0.961,0.002
48.249,-0.332,0.963,0.010
48.259,-0.332,0.963,0.006
48.269,-0.334,0.967,0.004
48.279,-0.330,0.967,0.008
48.289,-0.332,0.967,0.008
48.299,-0.330,0.969,0.006
48.308,-0.328,0.967,0.012
48.318,-0.326,0.969,0.004
48.328,-0.326,0.965,0.006
48.338,-0.320,0.955,0.006
48.348,-0.324,0.961,0.012
48.358,-0.322,0.965,0.016
48.368,-0.322,0.965,0.014
48.378,-0.326,0.969,0.018
48.388,-0.328,0.969,0.018
48.398,-0.330,0.957,0.012
48.408,-0.332,0.947,0.008
48.418,-0.332,0.953,0.008
48.428,-0.338,0.957,0.012
48.438,-0.338,0.961,0.012
48.448,-0.346,0.965,0.010
48.458,-0.348,0.967,0.010
48.467,-0.342,0.967,0.006
48.477,-0.344,0.967,0.004
48.487,-0.338,0.959,0.008
48.497,-0.334,0.963,0.006
48.507,-0.332,0.963,0.010
48.517,-0.328,0.965,0.014
48.527,-0.326,0.959,0.010
48.537,-0.328,0.959,0.012
48.547,-0.326,0.959,0.010
48.557,-0.328,0.957,0.012
48.567,-0.332,0.957,0.012
48.577,-0.336,0.961,0.010
48.587,-0.336,0.957,0.012
48.597,-0.340,0.957,0.010
48.607,-0.340,0.961,0.006
48.617,-0.338,0.965,0.012
48.626,-0.340,0.969,0.012
48.636,-0.340,0.959,0.012
48.646,-0.338,0.959,0.004
48.656,-0.336,0.963,0.006
48.666,-0.332,0.967,0.010
48.676,-0.334,0.965,0.010
48.686,-0.330,0.969,0.012
48.696,-0.324,0.971,0.012
48.706,-0.324,0.963,0.016
48.716,-0.324,0.963,0.012
48.726,-0.320,0.961,0.014
48.736,-0.320,0.963,0.014
48.746,-0.322,0.963,0.010
48.756,-0.324,0.965,0.012
48.766,-0.326,0.963,0.014
48.776,-0.324,0.967,0.012
48.785,-0.324,0.963,0.016
48.795,-0.332,0.959,0.012
48.805,-0.332,0.961,0.010
48.815,-0.330,0.961,0.012
48.825,-0.330,0.963,0.012
48.835,-0.336,0.969,0.012
48.845,-0.330,0.965,0.012
48.855,-0.330,0.967,0.010
48.865,-0.330,0.965,0.012
48.875,-0.330,0.969,0.012
48.885,-0.328,0.963,0.014
48.895,-0.328,0.963,0.014
48.905,-0.328,0.961,0.012
48.915,-0.330,0.961,0.014
48.925,-0.328,0.965,0.016
48.935,-0.332,0.957,0.016
48.944,-0.332,0.963,0.018
48.954,-0.330,0.967,0.021
48.964,-0.326,0.961,0.018
48.974,-0.330,0.967,0.021
48.984,-0.328,0.971,0.021
48.994,-0.332,0.959,0.018
49.004,-0.336,0.951,0.012
49.014,-0.334,0.955,0.016
49.024,-0.336,0.961,0.018
49.034,-0.332,0.961,0.020
49.044,-0.338,0.967,0.018
49.054,-0.336,0.971,0.016
49.064,-0.334,0.967,0.014
49.074,-0.334,0.965,0.014
49.084,-0.334,0.961,0.020
49.094,-0.334,0.961,0.016
49.103,-0.330,0.959,0.014
49.113,-0.330,0.959,0.016
49.123,-0.330,0.965,0.021
49.133,-0.328,0.965,0.018
49.143,-0.326,0.967,0.018
49.153,-0.328,0.963,0.016
49.163,-0.328,0.963,0.016
49.173,-0.330,0.961,0.016
49.183,-0.330,0.963,0.014
49.193,-0.330,0.963,0.014
49.203,-0.330,0.959,0.010
49.213,-0.332,0.965,0.012
49.223,-0.330,0.971,0.016
49.233,-0.330,0.980,0.016
49.243,-0.328,0.969,0.018
49.253,-0.326,0.965,0.008
49.262,-0.324,0.967,0.014
49.272,-0.320,0.971,0.008
49.282,-0.320,0.969,0.016
49.292,-0.322,0.969,0.014
49.302,-0.322,0.971,0.018
49.312,-0.320,0.967,0.014
49.322,-0.320,0.963,0.012
49.332,-0.320,0.965,0.016
49.342,-0.318,0.965,0.016
49.352,-0.318,0.963,0.016
49.362,-0.320,0.961,0.014
49.372,-0.322,0.963,0.016
49.382,-0.328,0.963,0.016
49.392,-0.330,0.965,0.016
49.402,-0.328,0.965,0.016
49.412,-0.330,0.965,0.014
49.421,-0.328,0.963,0.014
49.431,-0.330,0.965,0.014
49.441,-0.328,0.963,0.018
49.451,-0.328,0.961,0.012
49.461,-0.330,0.961,0.012
49.471,-0.326,0.963,0.014
49.481,-0.330,0.963,0.016
49.491,-0.328,0.969,0.016
49.501,-0.332,0.967,0.016
49.511,-0.328,0.963,0.016
49.521,-0.328,0.965,0.018
49.531,-0.330,0.965,0.014
49.541,-0.330,0.959,0.016
49.551,-0.330,0.967,0.020
49.561,-0.328,0.967,0.020
49.571,-0.326,0.963,0.020
49.580,-0.330,0.969,0.021
49.590,-0.326,0.967,0.023
49.600,-0.334,0.953,0.018
49.610,-0.336,0.949,0.012
49.620,-0.334,0.957,0.010
49.630,-0.332,0.963,0.018
49.640,-0.338,0.967,0.018
49.650,-0.338,0.971,0.018
49.660,-0.336,0.965,0.020
49.670,-0.336,0.959,0.018
49.680,-0.334,0.957,0.014
49.690,-0.336,0.955,0.014
49.700,-0.328,0.959,0.021
49.710,-0.330,0.965,0.018
49.720,-0.324,0.965,0.020
49.730,-0.326,0.969,0.021
49.739,-0.324,0.967,0.020
49.749,-0.322,0.965,0.020
49.759,-0.326,0.961,0.021
49.769,-0.326,0.961,0.018
49.779,-0.326,0.961,0.018
49.789,-0.328,0.963,0.016
49.799,-0.332,0.961,0.016
49.809,-0.332,0.961,0.014
49.819,-0.330,0.969,0.018
49.829,-0.330,0.973,0.018
49.839,-0.328,0.965,0.016
49.849,-0.328,0.961,0.012
49.859,-0.328,0.961,0.014
49.869,-0.324,0.965,0.016
49.879,-0.326,0.969,0.014
49.889,-0.324,0.967,0.018
49.898,-0.320,0.971,0.018
49.908,-0.314,0.967,0.020
49.918,-0.318,0.963,0.014
49.928,-0.316,0.961,0.016
49.938,-0.316,0.959,0.016
49.948,-0.320,0.965,0.018
49.958,-0.320,0.963,0.016
49.968,-0.322,0.961,0.018
49.978,-0.326,0.967,0.016
49.988,-0.328,0.965,0.016
49.998,-0.330,0.967,0.014
50.008,-0.328,0.967,0.016
50.018,-0.332,0.961,0.014
50.028,-0.330,0.959,0.012
50.038,-0.328,0.963,0.012
50.048,-0.330,0.965,0.012
50.057,-0.330,0.965,0.014
50.067,-0.326,0.969,0.016
50.077,-0.326,0.971,0.014
50.087,-0.326,0.965,0.014
50.097,-0.326,0.965,0.012
50.107,-0.328,0.965,0.012
50.117,-0.332,0.967,0.014
50.127,-0.328,0.963,0.018
50.137,-0.330,0.965,0.016
50.147,-0.332,0.967,0.016
50.157,-0.332,0.961,0.018
50.167,-0.330,0.963,0.016
50.177,-0.332,0.971,0.020
50.187,-0.326,0.959,0.016
50.197,-0.328,0.963,0.020
50.207,-0.328,0.971,0.025
50.217,-0.332,0.959,0.021
50.226,-0.334,0.949,0.010
50.236,-0.330,0.953,0.012
50.246,-0.330,0.955,0.020
50.256,-0.328,0.963,0.020
50.266,-0.332,0.967,0.018
50.276,-0.334,0.967,0.012
50.286,-0.338,0.963,0.014
