df_hash,22ZHK4.8GUL1J
device,HZ2X61
project_hash,29R7
project_name,istanbul_aydin_university
person_hash,29R7.KJ8S
person_label,V80
date_time_start,2025-11-03_15-40-52.460000_+03
date_time_start_unix,1762170052.46
date_time_end,2025-11-03_15-49-11.895000_+03
length_difference_noticed,no

time,acc_x,acc_y,acc_z
4.689,-0.422,0.904,0.037
4.699,-0.422,0.906,0.033
4.709,-0.422,0.904,0.037
4.719,-0.420,0.902,0.037
4.729,-0.424,0.904,0.035
4.739,-0.422,0.904,0.037
4.749,-0.424,0.904,0.033
4.758,-0.422,0.902,0.035
4.768,-0.422,0.904,0.033
4.778,-0.422,0.906,0.035
4.788,-0.420,0.906,0.035
4.798,-0.420,0.902,0.033
4.808,-0.422,0.904,0.033
4.818,-0.422,0.906,0.035
4.828,-0.422,0.902,0.031
4.838,-0.420,0.906,0.033
4.848,-0.422,0.906,0.035
4.858,-0.422,0.904,0.033
4.868,-0.424,0.906,0.033
4.878,-0.420,0.904,0.033
4.888,-0.424,0.904,0.033
4.898,-0.422,0.904,0.031
4.907,-0.422,0.904,0.037
4.917,-0.422,0.904,0.035
4.927,-0.422,0.904,0.039
4.937,-0.424,0.904,0.039
4.947,-0.422,0.904,0.035
4.957,-0.424,0.904,0.033
4.967,-0.424,0.900,0.037
4.977,-0.424,0.900,0.037
4.987,-0.422,0.900,0.037
4.997,-0.424,0.904,0.033
5.007,-0.428,0.902,0.033
5.017,-0.428,0.904,0.039
5.027,-0.426,0.898,0.037
5.037,-0.426,0.902,0.035
5.047,-0.426,0.904,0.033
5.056,-0.422,0.904,0.035
5.066,-0.422,0.904,0.039
5.076,-0.420,0.902,0.037
5.086,-0.420,0.904,0.039
5.096,-0.420,0.904,0.035
5.106,-0.422,0.902,0.035
5.116,-0.420,0.904,0.041
5.126,-0.422,0.904,0.037
5.136,-0.424,0.902,0.037
5.146,-0.424,0.902,0.033
5.156,-0.426,0.900,0.035
5.166,-0.428,0.906,0.037
5.176,-0.426,0.904,0.035
5.186,-0.424,0.906,0.035
5.196,-0.424,0.906,0.037
5.205,-0.424,0.902,0.037
5.215,-0.424,0.900,0.039
5.225,-0.424,0.900,0.037
5.235,-0.422,0.898,0.037
5.245,-0.420,0.896,0.037
5.255,-0.420,0.902,0.035
5.265,-0.422,0.900,0.035
5.275,-0.420,0.902,0.039
5.285,-0.422,0.902,0.037
5.295,-0.424,0.902,0.039
5.305,-0.424,0.900,0.037
5.315,-0.422,0.904,0.033
5.325,-0.426,0.906,0.035
5.335,-0.424,0.908,0.033
5.345,-0.422,0.908,0.035
5.354,-0.426,0.908,0.037
5.364,-0.426,0.910,0.039
5.374,-0.424,0.906,0.033
5.384,-0.424,0.904,0.039
5.394,-0.420,0.902,0.037
5.404,-0.418,0.902,0.041
5.414,-0.416,0.900,0.037
5.424,-0.416,0.896,0.035
5.434,-0.420,0.902,0.035
5.444,-0.422,0.902,0.035
5.454,-0.422,0.904,0.035
5.464,-0.424,0.904,0.039
5.474,-0.424,0.906,0.035
5.484,-0.424,0.906,0.037
5.494,-0.424,0.904,0.037
5.503,-0.422,0.906,0.035
5.513,-0.426,0.902,0.033
5.523,-0.426,0.904,0.031
5.533,-0.426,0.900,0.033
5.543,-0.424,0.902,0.033
5.553,-0.424,0.904,0.037
5.563,-0.428,0.904,0.035
5.573,-0.422,0.902,0.037
5.583,-0.426,0.900,0.037
5.593,-0.422,0.900,0.031
5.603,-0.424,0.898,0.033
5.613,-0.428,0.900,0.033
5.623,-0.424,0.900,0.035
5.633,-0.426,0.900,0.031
5.643,-0.428,0.900,0.037
5.652,-0.426,0.902,0.035
5.662,-0.426,0.904,0.033
5.672,-0.426,0.904,0.035
5.682,-0.424,0.902,0.035
5.692,-0.426,0.904,0.037
5.702,-0.426,0.904,0.035
5.712,-0.426,0.904,0.033
5.722,-0.426,0.902,0.033
5.732,-0.424,0.902,0.037
5.742,-0.424,0.904,0.035
5.752,-0.422,0.902,0.037
5.762,-0.426,0.900,0.035
5.772,-0.426,0.900,0.037
5.782,-0.426,0.902,0.035
5.792,-0.424,0.900,0.035
5.801,-0.426,0.900,0.037
5.811,-0.424,0.902,0.037
5.821,-0.426,0.904,0.037
5.831,-0.428,0.898,0.039
5.841,-0.428,0.900,0.037
5.851,-0.424,0.904,0.035
5.861,-0.424,0.902,0.035
5.871,-0.420,0.900,0.033
5.881,-0.420,0.902,0.033
5.891,-0.420,0.906,0.031
5.901,-0.418,0.902,0.035
5.911,-0.420,0.902,0.035
5.921,-0.420,0.908,0.037
5.931,-0.424,0.906,0.035
5.941,-0.424,0.906,0.035
5.950,-0.426,0.908,0.033
5.960,-0.426,0.902,0.035
5.970,-0.430,0.908,0.035
5.980,-0.428,0.906,0.037
5.990,-0.428,0.906,0.037
6.000,-0.428,0.906,0.037
6.010,-0.428,0.902,0.035
6.020,-0.426,0.900,0.037
6.030,-0.428,0.900,0.037
6.040,-0.424,0.900,0.041
6.050,-0.422,0.898,0.037
6.060,-0.422,0.896,0.035
6.070,-0.420,0.900,0.037
6.080,-0.422,0.902,0.037
6.090,-0.426,0.900,0.037
6.099,-0.426,0.900,0.035
6.109,-0.426,0.902,0.035
6.119,-0.428,0.902,0.035
6.129,-0.428,0.906,0.039
6.139,-0.428,0.908,0.039
6.149,-0.428,0.904,0.037
6.159,-0.428,0.904,0.035
6.169,-0.428,0.906,0.037
6.179,-0.432,0.908,0.041
6.189,-0.428,0.902,0.041
6.199,-0.428,0.900,0.037
6.209,-0.428,0.898,0.039
6.219,-0.422,0.896,0.035
6.229,-0.426,0.895,0.035
6.239,-0.428,0.902,0.037
6.248,-0.430,0.904,0.039
6.258,-0.430,0.904,0.039
6.268,-0.426,0.908,0.037
6.278,-0.428,0.906,0.037
6.288,-0.430,0.904,0.039
6.298,-0.424,0.904,0.037
6.308,-0.426,0.900,0.039
6.318,-0.428,0.900,0.039
6.328,-0.428,0.900,0.037
6.338,-0.428,0.898,0.041
6.348,-0.426,0.898,0.035
6.358,-0.428,0.896,0.041
6.368,-0.428,0.904,0.039
6.378,-0.424,0.902,0.037
6.388,-0.428,0.902,0.037
6.397,-0.428,0.902,0.037
6.407,-0.426,0.900,0.033
6.417,-0.426,0.904,0.037
6.427,-0.424,0.904,0.033
6.437,-0.424,0.902,0.033
6.447,-0.424,0.900,0.031
6.457,-0.424,0.904,0.031
6.467,-0.426,0.908,0.033
6.477,-0.424,0.904,0.033
6.487,-0.422,0.906,0.033
6.497,-0.424,0.906,0.033
6.507,-0.424,0.904,0.033
6.517,-0.424,0.902,0.033
6.527,-0.422,0.904,0.033
6.537,-0.424,0.902,0.033
6.546,-0.426,0.906,0.031
6.556,-0.422,0.904,0.035
6.566,-0.424,0.904,0.035
6.576,-0.424,0.904,0.033
6.586,-0.424,0.902,0.035
6.596,-0.424,0.902,0.035
6.606,-0.428,0.902,0.035
6.616,-0.428,0.900,0.035
6.626,-0.424,0.900,0.035
6.636,-0.424,0.900,0.035
6.646,-0.426,0.902,0.031
6.656,-0.420,0.898,0.033
6.666,-0.420,0.896,0.035
6.676,-0.418,0.900,0.035
6.686,-0.422,0.906,0.039
6.695,-0.422,0.904,0.035
6.705,-0.424,0.904,0.033
6.715,-0.426,0.910,0.033
6.725,-0.424,0.908,0.031
6.735,-0.424,0.910,0.031
6.745,-0.424,0.908,0.033
6.755,-0.428,0.904,0.031
6.765,-0.428,0.908,0.031
6.775,-0.428,0.906,0.033
6.785,-0.430,0.902,0.035
6.795,-0.424,0.902,0.033
6.805,-0.424,0.900,0.035
6.815,-0.422,0.896,0.039
6.825,-0.422,0.898,0.039
6.835,-0.424,0.900,0.039
6.844,-0.426,0.896,0.031
6.854,-0.426,0.900,0.033
6.864,-0.424,0.896,0.037
6.874,-0.428,0.900,0.031
6.884,-0.428,0.900,0.033
6.894,-0.428,0.898,0.029
6.904,-0.430,0.902,0.033
6.914,-0.430,0.900,0.033
6.924,-0.432,0.904,0.033
6.934,-0.430,0.904,0.035
6.944,-0.432,0.906,0.033
6.954,-0.430,0.908,0.037
6.964,-0.430,0.904,0.039
6.974,-0.428,0.908,0.033
6.984,-0.426,0.904,0.039
6.993,-0.424,0.900,0.035
7.003,-0.428,0.896,0.031
7.013,-0.428,0.900,0.033
7.023,-0.428,0.906,0.037
7.033,-0.430,0.904,0.039
7.043,-0.432,0.908,0.037
7.053,-0.430,0.904,0.037
7.063,-0.428,0.904,0.037
7.073,-0.430,0.902,0.039
7.083,-0.432,0.898,0.037
7.093,-0.428,0.896,0.037
7.103,-0.426,0.895,0.033
7.113,-0.428,0.896,0.035
7.123,-0.426,0.898,0.035
7.133,-0.422,0.900,0.035
7.142,-0.426,0.904,0.037
7.152,-0.426,0.902,0.035
7.162,-0.426,0.902,0.035
7.172,-0.430,0.908,0.035
7.182,-0.428,0.904,0.031
7.192,-0.426,0.904,0.037
7.202,-0.426,0.904,0.035
7.212,-0.426,0.902,0.035
7.222,-0.430,0.904,0.033
7.232,-0.432,0.902,0.033
7.242,-0.428,0.906,0.035
7.252,-0.428,0.902,0.035
7.262,-0.428,0.902,0.035
7.272,-0.424,0.904,0.037
7.282,-0.426,0.902,0.037
7.291,-0.426,0.902,0.035
7.301,-0.426,0.904,0.035
7.311,-0.426,0.902,0.039
7.321,-0.428,0.902,0.037
7.331,-0.430,0.902,0.037
7.341,-0.430,0.904,0.037
7.351,-0.430,0.900,0.039
7.361,-0.430,0.900,0.041
7.371,-0.434,0.895,0.037
7.381,-0.430,0.898,0.037
7.391,-0.430,0.898,0.039
7.401,-0.428,0.896,0.035
7.411,-0.424,0.898,0.039
7.421,-0.426,0.902,0.037
7.431,-0.424,0.902,0.037
7.440,-0.426,0.902,0.035
7.450,-0.424,0.906,0.041
7.460,-0.424,0.902,0.035
7.470,-0.428,0.906,0.037
7.480,-0.428,0.906,0.039
7.490,-0.428,0.904,0.037
7.500,-0.428,0.904,0.035
7.510,-0.432,0.904,0.039
7.520,-0.432,0.904,0.037
7.530,-0.432,0.902,0.039
7.540,-0.428,0.900,0.037
7.550,-0.430,0.902,0.039
7.560,-0.428,0.898,0.035
7.570,-0.426,0.900,0.039
7.580,-0.428,0.898,0.037
7.589,-0.426,0.900,0.037
7.599,-0.424,0.900,0.039
7.609,-0.426,0.902,0.037
7.619,-0.424,0.902,0.039
7.629,-0.426,0.902,0.035
7.639,-0.426,0.902,0.035
7.649,-0.426,0.904,0.033
7.659,-0.426,0.904,0.037
7.669,-0.424,0.904,0.035
7.679,-0.424,0.902,0.035
7.689,-0.426,0.904,0.037
7.699,-0.430,0.908,0.039
7.709,-0.428,0.906,0.035
7.719,-0.426,0.906,0.039
7.729,-0.428,0.902,0.041
7.738,-0.420,0.900,0.037
7.748,-0.420,0.898,0.037
7.758,-0.418,0.902,0.037
7.768,-0.426,0.902,0.037
7.778,-0.424,0.906,0.039
7.788,-0.424,0.908,0.041
7.798,-0.422,0.908,0.039
7.808,-0.422,0.906,0.037
7.818,-0.422,0.906,0.039
7.828,-0.422,0.906,0.037
7.838,-0.424,0.900,0.037
7.848,-0.424,0.902,0.037
7.858,-0.428,0.898,0.039
7.868,-0.426,0.900,0.035
7.878,-0.426,0.902,0.039
7.887,-0.424,0.904,0.039
7.897,-0.424,0.906,0.037
7.907,-0.424,0.904,0.039
7.917,-0.424,0.904,0.039
7.927,-0.424,0.902,0.039
7.937,-0.422,0.904,0.035
7.947,-0.422,0.906,0.037
7.957,-0.422,0.904,0.037
7.967,-0.422,0.904,0.037
7.977,-0.426,0.904,0.035
7.987,-0.426,0.906,0.037
7.997,-0.424,0.906,0.039
8.007,-0.426,0.902,0.041
8.017,-0.424,0.904,0.039
8.027,-0.424,0.906,0.035
8.036,-0.426,0.904,0.039
8.046,-0.424,0.904,0.039
8.056,-0.424,0.904,0.039
8.066,-0.422,0.904,0.039
8.076,-0.426,0.902,0.041
8.086,-0.426,0.902,0.041
8.096,-0.424,0.902,0.039
8.106,-0.424,0.904,0.039
8.116,-0.422,0.904,0.041
8.126,-0.424,0.902,0.043
8.136,-0.424,0.904,0.041
8.146,-0.424,0.900,0.041
8.156,-0.426,0.900,0.041
8.166,-0.424,0.902,0.037
8.176,-0.422,0.902,0.041
8.185,-0.422,0.898,0.039
8.195,-0.420,0.906,0.043
8.205,-0.420,0.904,0.043
8.215,-0.420,0.902,0.045
8.225,-0.420,0.904,0.045
8.235,-0.422,0.906,0.039
8.245,-0.418,0.904,0.041
8.255,-0.428,0.904,0.043
8.265,-0.426,0.904,0.043
8.275,-0.428,0.904,0.043
8.285,-0.428,0.906,0.043
8.295,-0.428,0.906,0.045
8.305,-0.426,0.906,0.045
8.315,-0.426,0.904,0.045
8.325,-0.426,0.904,0.043
8.334,-0.424,0.902,0.047
8.344,-0.424,0.902,0.047
8.354,-0.422,0.900,0.043
8.364,-0.420,0.898,0.045
8.374,-0.424,0.900,0.043
8.384,-0.426,0.900,0.045
8.394,-0.424,0.900,0.045
8.404,-0.428,0.902,0.043
8.414,-0.424,0.902,0.045
8.424,-0.426,0.906,0.041
8.434,-0.426,0.904,0.045
8.444,-0.422,0.908,0.043
8.454,-0.422,0.908,0.045
8.464,-0.424,0.906,0.045
8.474,-0.426,0.906,0.045
8.483,-0.428,0.906,0.043
8.493,-0.428,0.902,0.047
8.503,-0.428,0.904,0.049
8.513,-0.422,0.902,0.043
8.523,-0.420,0.904,0.043
8.533,-0.426,0.902,0.047
8.543,-0.422,0.898,0.045
8.553,-0.424,0.900,0.045
8.563,-0.426,0.900,0.047
8.573,-0.426,0.902,0.045
8.583,-0.426,0.904,0.049
8.593,-0.426,0.902,0.049
8.603,-0.424,0.904,0.045
8.613,-0.426,0.904,0.049
8.623,-0.428,0.900,0.043
8.632,-0.426,0.902,0.041
8.642,-0.430,0.900,0.045
8.652,-0.428,0.902,0.041
8.662,-0.428,0.902,0.041
8.672,-0.430,0.902,0.043
8.682,-0.426,0.906,0.043
8.692,-0.426,0.906,0.041
8.702,-0.426,0.900,0.041
8.712,-0.426,0.904,0.041
8.722,-0.426,0.906,0.043
8.732,-0.426,0.904,0.039
8.742,-0.428,0.906,0.043
8.752,-0.426,0.904,0.045
8.762,-0.426,0.904,0.043
8.772,-0.426,0.904,0.043
8.781,-0.424,0.900,0.047
8.791,-0.428,0.902,0.041
8.801,-0.424,0.902,0.041
8.811,-0.424,0.908,0.045
8.821,-0.424,0.902,0.041
8.831,-0.426,0.904,0.043
8.841,-0.422,0.906,0.043
8.851,-0.422,0.906,0.045
8.861,-0.424,0.904,0.043
8.871,-0.424,0.904,0.043
8.881,-0.422,0.900,0.045
8.891,-0.426,0.902,0.043
8.901,-0.424,0.902,0.045
8.911,-0.424,0.902,0.045
8.921,-0.428,0.900,0.047
8.930,-0.426,0.904,0.045
8.940,-0.430,0.900,0.047
8.950,-0.426,0.902,0.041
8.960,-0.424,0.908,0.043
8.970,-0.426,0.902,0.041
8.980,-0.422,0.906,0.047
8.990,-0.422,0.906,0.043
9.000,-0.424,0.904,0.045
9.010,-0.420,0.904,0.047
9.020,-0.420,0.908,0.045
9.030,-0.426,0.906,0.043
9.040,-0.424,0.902,0.043
9.050,-0.426,0.904,0.043
9.060,-0.426,0.904,0.045
9.070,-0.428,0.904,0.043
9.079,-0.424,0.906,0.045
9.089,-0.426,0.906,0.045
9.099,-0.426,0.904,0.043
9.109,-0.424,0.904,0.045
9.119,-0.426,0.902,0.043
9.129,-0.422,0.900,0.043
9.139,-0.426,0.900,0.047
9.149,-0.424,0.902,0.043
9.159,-0.426,0.900,0.045
9.169,-0.428,0.902,0.047
9.179,-0.426,0.906,0.043
9.189,-0.424,0.902,0.045
9.199,-0.424,0.902,0.047
9.209,-0.424,0.906,0.049
9.219,-0.422,0.904,0.045
9.228,-0.426,0.902,0.047
9.238,-0.424,0.906,0.043
9.248,-0.426,0.904,0.043
9.258,-0.426,0.906,0.045
9.268,-0.426,0.908,0.047
9.278,-0.426,0.906,0.047
9.288,-0.426,0.902,0.045
9.298,-0.424,0.902,0.047
9.308,-0.422,0.906,0.047
9.318,-0.422,0.904,0.045
9.328,-0.422,0.902,0.045
9.338,-0.422,0.900,0.045
9.348,-0.424,0.902,0.045
9.358,-0.424,0.906,0.043
9.368,-0.422,0.904,0.047
9.377,-0.422,0.908,0.049
9.387,-0.420,0.906,0.041
9.397,-0.422,0.906,0.049
9.407,-0.422,0.904,0.049
9.417,-0.424,0.898,0.047
9.427,-0.424,0.902,0.043
9.437,-0.424,0.902,0.047
9.447,-0.426,0.902,0.045
9.457,-0.426,0.904,0.043
9.467,-0.424,0.904,0.045
9.477,-0.424,0.906,0.047
9.487,-0.426,0.904,0.043
9.497,-0.428,0.906,0.043
9.507,-0.426,0.902,0.041
9.517,-0.428,0.902,0.043
9.526,-0.430,0.904,0.041
9.536,-0.430,0.900,0.047
9.546,-0.424,0.904,0.043
9.556,-0.424,0.904,0.043
9.566,-0.426,0.904,0.043
9.576,-0.426,0.904,0.043
9.586,-0.422,0.904,0.047
9.596,-0.424,0.904,0.041
9.606,-0.422,0.902,0.045
9.616,-0.424,0.902,0.047
9.626,-0.426,0.902,0.043
9.636,-0.426,0.904,0.041
9.646,-0.428,0.902,0.045
9.656,-0.424,0.902,0.045
9.666,-0.428,0.904,0.043
9.675,-0.426,0.904,0.041
9.685,-0.424,0.902,0.045
9.695,-0.426,0.902,0.045
9.705,-0.424,0.900,0.043
9.715,-0.424,0.902,0.041
9.725,-0.426,0.900,0.045
9.735,-0.428,0.900,0.043
9.745,-0.424,0.900,0.043
9.755,-0.428,0.902,0.041
9.765,-0.424,0.906,0.045
9.775,-0.424,0.904,0.043
9.785,-0.422,0.902,0.043
9.795,-0.424,0.904,0.043
9.805,-0.422,0.902,0.045
9.815,-0.422,0.902,0.047
9.824,-0.424,0.908,0.043
9.834,-0.424,0.908,0.045
9.844,-0.426,0.904,0.043
9.854,-0.426,0.902,0.043
9.864,-0.430,0.906,0.043
9.874,-0.428,0.904,0.043
9.884,-0.426,0.908,0.043
9.894,-0.426,0.906,0.047
9.904,-0.428,0.908,0.049
9.914,-0.428,0.904,0.049
9.924,-0.424,0.900,0.045
9.934,-0.426,0.902,0.045
9.944,-0.422,0.900,0.045
9.954,-0.424,0.902,0.049
9.964,-0.422,0.898,0.047
9.973,-0.422,0.898,0.047
9.983,-0.426,0.902,0.047
9.993,-0.428,0.900,0.047
10.003,-0.426,0.902,0.043
10.013,-0.428,0.902,0.043
10.023,-0.424,0.904,0.045
10.033,-0.426,0.908,0.045
10.043,-0.426,0.908,0.047
10.053,-0.426,0.908,0.047
10.063,-0.426,0.908,0.047
10.073,-0.426,0.906,0.045
10.083,-0.426,0.906,0.043
10.093,-0.426,0.904,0.047
10.103,-0.426,0.904,0.045
10.113,-0.424,0.902,0.047
10.122,-0.422,0.900,0.045
10.132,-0.424,0.900,0.045
10.142,-0.426,0.900,0.045
10.152,-0.424,0.900,0.045
10.162,-0.426,0.904,0.045
10.172,-0.426,0.908,0.045
10.182,-0.426,0.906,0.045
10.192,-0.424,0.902,0.045
10.202,-0.422,0.902,0.049
10.212,-0.424,0.900,0.043
10.222,-0.428,0.896,0.045
10.232,-0.430,0.900,0.047
10.242,-0.428,0.898,0.043
10.252,-0.430,0.900,0.045
10.262,-0.428,0.902,0.045
10.271,-0.428,0.904,0.043
10.281,-0.426,0.906,0.041
10.291,-0.428,0.904,0.045
10.301,-0.426,0.908,0.043
10.311,-0.428,0.904,0.041
10.321,-0.424,0.902,0.041
10.331,-0.422,0.906,0.043
10.341,-0.426,0.906,0.041
10.351,-0.422,0.906,0.037
10.361,-0.424,0.906,0.041
10.371,-0.424,0.902,0.041
10.381,-0.424,0.906,0.041
10.391,-0.424,0.906,0.041
10.401,-0.426,0.906,0.041
10.411,-0.426,0.904,0.043
10.420,-0.428,0.906,0.039
10.430,-0.424,0.908,0.043
10.440,-0.424,0.906,0.043
10.450,-0.426,0.902,0.041
10.460,-0.428,0.898,0.043
10.470,-0.428,0.898,0.045
10.480,-0.430,0.898,0.043
10.490,-0.430,0.902,0.043
10.500,-0.432,0.896,0.041
10.510,-0.430,0.900,0.041
10.520,-0.430,0.902,0.041
10.530,-0.428,0.908,0.043
10.540,-0.426,0.910,0.041
10.550,-0.428,0.908,0.043
10.560,-0.428,0.906,0.041
10.569,-0.428,0.904,0.043
10.579,-0.424,0.900,0.039
10.589,-0.418,0.898,0.045
10.599,-0.422,0.902,0.045
10.609,-0.422,0.906,0.043
10.619,-0.422,0.902,0.041
10.629,-0.420,0.902,0.045
10.639,-0.424,0.902,0.043
10.649,-0.428,0.904,0.041
10.659,-0.428,0.902,0.043
10.669,-0.432,0.904,0.039
10.679,-0.430,0.904,0.041
10.689,-0.428,0.908,0.041
10.699,-0.426,0.904,0.043
10.709,-0.424,0.904,0.043
10.718,-0.422,0.900,0.045
10.728,-0.420,0.898,0.045
10.738,-0.420,0.900,0.047
10.748,-0.420,0.902,0.043
10.758,-0.422,0.900,0.043
10.768,-0.420,0.900,0.041
10.778,-0.420,0.900,0.039
10.788,-0.422,0.906,0.043
10.798,-0.422,0.906,0.041
10.808,-0.424,0.908,0.041
10.818,-0.422,0.904,0.039
10.828,-0.420,0.906,0.041
10.838,-0.426,0.902,0.041
10.848,-0.422,0.908,0.039
10.858,-0.424,0.906,0.041
10.867,-0.430,0.908,0.043
10.877,-0.430,0.906,0.037
10.887,-0.426,0.910,0.039
10.897,-0.424,0.902,0.047
10.907,-0.424,0.904,0.043
10.917,-0.422,0.902,0.045
10.927,-0.426,0.896,0.037
10.937,-0.424,0.898,0.041
10.947,-0.424,0.902,0.039
10.957,-0.428,0.906,0.041
10.967,-0.424,0.906,0.043
10.977,-0.426,0.910,0.045
10.987,-0.426,0.904,0.045
10.997,-0.422,0.906,0.045
11.007,-0.424,0.904,0.041
11.016,-0.420,0.900,0.043
11.026,-0.418,0.898,0.041
11.036,-0.418,0.898,0.041
11.046,-0.416,0.902,0.043
11.056,-0.418,0.898,0.039
11.066,-0.420,0.900,0.041
11.076,-0.424,0.904,0.041
11.086,-0.422,0.904,0.041
11.096,-0.426,0.904,0.041
11.106,-0.424,0.908,0.041
11.116,-0.426,0.908,0.037
11.126,-0.426,0.908,0.035
11.136,-0.426,0.910,0.039
11.146,-0.422,0.908,0.039
11.156,-0.424,0.910,0.039
11.165,-0.424,0.908,0.037
11.175,-0.418,0.910,0.039
11.185,-0.420,0.908,0.039
11.195,-0.420,0.908,0.041
11.205,-0.420,0.908,0.039
11.215,-0.418,0.906,0.039
11.225,-0.418,0.908,0.041
11.235,-0.420,0.904,0.045
11.245,-0.422,0.902,0.041
11.255,-0.426,0.900,0.043
11.265,-0.422,0.904,0.045
11.275,-0.428,0.900,0.041
11.285,-0.424,0.900,0.045
11.295,-0.422,0.902,0.039
11.305,-0.420,0.904,0.043
11.314,-0.422,0.904,0.045
11.324,-0.414,0.902,0.039
11.334,-0.418,0.904,0.043
11.344,-0.416,0.902,0.047
11.354,-0.416,0.904,0.045
11.364,-0.416,0.908,0.041
11.374,-0.420,0.906,0.043
11.384,-0.416,0.904,0.037
11.394,-0.420,0.912,0.043
11.404,-0.422,0.910,0.041
11.414,-0.422,0.908,0.043
11.424,-0.422,0.912,0.045
11.434,-0.420,0.908,0.045
11.444,-0.422,0.908,0.043
11.454,-0.416,0.906,0.045
11.463,-0.420,0.900,0.045
11.473,-0.416,0.902,0.047
11.483,-0.418,0.904,0.043
11.493,-0.418,0.902,0.047
11.503,-0.420,0.904,0.045
11.513,-0.420,0.904,0.045
11.523,-0.418,0.904,0.045
11.533,-0.418,0.906,0.043
11.543,-0.418,0.906,0.043
11.553,-0.420,0.906,0.043
11.563,-0.418,0.906,0.043
11.573,-0.422,0.908,0.043
11.583,-0.422,0.910,0.045
11.593,-0.424,0.912,0.045
11.603,-0.422,0.910,0.045
11.612,-0.422,0.904,0.043
11.622,-0.422,0.904,0.045
11.632,-0.422,0.910,0.047
11.642,-0.414,0.908,0.049
11.652,-0.418,0.900,0.045
11.662,-0.418,0.896,0.043
11.672,-0.420,0.900,0.045
11.682,-0.416,0.904,0.045
11.692,-0.422,0.908,0.049
11.702,-0.420,0.908,0.047
11.712,-0.422,0.908,0.047
11.722,-0.420,0.902,0.045
11.732,-0.420,0.904,0.045
11.742,-0.426,0.902,0.043
11.752,-0.422,0.902,0.043
11.761,-0.422,0.900,0.041
11.771,-0.422,0.904,0.043
11.781,-0.420,0.906,0.041
11.791,-0.418,0.908,0.043
11.801,-0.418,0.906,0.041
11.811,-0.422,0.906,0.045
11.821,-0.420,0.904,0.043
11.831,-0.420,0.906,0.045
11.841,-0.424,0.904,0.043
11.851,-0.422,0.906,0.041
11.861,-0.418,0.906,0.041
11.871,-0.424,0.904,0.043
11.881,-0.422,0.904,0.041
11.891,-0.422,0.902,0.041
11.901,-0.424,0.904,0.043
11.910,-0.426,0.906,0.041
11.920,-0.424,0.904,0.045
11.930,-0.424,0.906,0.045
11.940,-0.420,0.908,0.045
11.950,-0.420,0.906,0.045
11.960,-0.420,0.906,0.045
11.970,-0.420,0.904,0.043
11.980,-0.422,0.904,0.047
11.990,-0.424,0.906,0.043
12.000,-0.420,0.904,0.047
12.010,-0.420,0.904,0.047
12.020,-0.422,0.904,0.045
12.030,-0.426,0.904,0.047
12.040,-0.424,0.904,0.047
12.050,-0.422,0.904,0.045
12.059,-0.422,0.904,0.047
12.069,-0.422,0.904,0.043
12.079,-0.420,0.902,0.047
12.089,-0.418,0.906,0.047
12.099,-0.416,0.904,0.047
12.109,-0.418,0.904,0.047
12.119,-0.420,0.904,0.047
12.129,-0.420,0.906,0.049
12.139,-0.420,0.908,0.045
12.149,-0.422,0.906,0.043
12.159,-0.422,0.904,0.045
12.169,-0.424,0.910,0.047
12.179,-0.422,0.910,0.049
12.189,-0.422,0.908,0.051
12.199,-0.422,0.906,0.047
12.208,-0.420,0.904,0.051
12.218,-0.418,0.906,0.051
12.228,-0.418,0.902,0.047
12.238,-0.420,0.900,0.051
12.248,-0.424,0.902,0.047
12.258,-0.420,0.904,0.051
12.268,-0.418,0.904,0.051
12.278,-0.422,0.906,0.049
12.288,-0.424,0.910,0.051
12.298,-0.424,0.904,0.051
12.308,-0.422,0.902,0.047
12.318,-0.422,0.908,0.049
12.328,-0.422,0.904,0.047
12.338,-0.420,0.906,0.045
12.348,-0.424,0.906,0.047
12.357,-0.420,0.910,0.053
12.367,-0.420,0.910,0.051
12.377,-0.424,0.910,0.051
12.387,-0.420,0.906,0.049
12.397,-0.422,0.906,0.049
12.407,-0.418,0.902,0.051
12.417,-0.414,0.908,0.049
12.427,-0.414,0.902,0.049
12.437,-0.416,0.904,0.045
12.447,-0.418,0.900,0.047
12.457,-0.420,0.904,0.049
12.467,-0.422,0.908,0.049
12.477,-0.420,0.906,0.049
12.487,-0.422,0.908,0.049
12.497,-0.422,0.908,0.049
12.506,-0.420,0.904,0.051
12.516,-0.424,0.904,0.051
12.526,-0.422,0.902,0.047
12.536,-0.422,0.900,0.047
12.546,-0.422,0.900,0.047
12.556,-0.422,0.906,0.047
12.566,-0.424,0.902,0.049
12.576,-0.418,0.904,0.049
12.586,-0.424,0.906,0.043
12.596,-0.424,0.906,0.049
12.606,-0.424,0.906,0.045
12.616,-0.422,0.906,0.047
12.626,-0.422,0.906,0.047
12.636,-0.422,0.904,0.047
12.646,-0.420,0.904,0.045
12.655,-0.424,0.908,0.045
12.665,-0.420,0.908,0.045
12.675,-0.424,0.910,0.047
12.685,-0.420,0.906,0.045
12.695,-0.422,0.906,0.047
12.705,-0.422,0.904,0.041
12.715,-0.420,0.908,0.043
12.725,-0.418,0.904,0.043
12.735,-0.420,0.906,0.049
12.745,-0.424,0.908,0.047
12.755,-0.422,0.904,0.043
12.765,-0.422,0.904,0.045
12.775,-0.418,0.906,0.047
12.785,-0.420,0.906,0.047
12.795,-0.424,0.908,0.045
12.804,-0.422,0.906,0.045
12.814,-0.424,0.906,0.047
12.824,-0.424,0.906,0.043
12.834,-0.424,0.902,0.043
12.844,-0.420,0.908,0.049
12.854,-0.418,0.906,0.045
12.864,-0.420,0.904,0.045
12.874,-0.418,0.908,0.047
12.884,-0.418,0.906,0.045
12.894,-0.416,0.908,0.047
12.904,-0.416,0.904,0.047
12.914,-0.418,0.910,0.047
12.924,-0.416,0.910,0.041
12.934,-0.422,0.908,0.047
12.944,-0.422,0.908,0.045
12.953,-0.424,0.906,0.049
12.963,-0.422,0.912,0.045
12.973,-0.420,0.908,0.047
12.983,-0.422,0.910,0.049
12.993,-0.422,0.908,0.049
13.003,-0.422,0.904,0.049
13.013,-0.422,0.902,0.047
13.023,-0.422,0.898,0.047
13.033,-0.420,0.902,0.047
13.043,-0.420,0.904,0.045
13.053,-0.418,0.902,0.045
13.063,-0.422,0.906,0.051
13.073,-0.420,0.906,0.051
13.083,-0.420,0.906,0.047
13.093,-0.422,0.904,0.047
13.102,-0.422,0.904,0.045
13.112,-0.426,0.908,0.045
13.122,-0.420,0.906,0.047
13.132,-0.422,0.908,0.047
13.142,-0.424,0.906,0.051
13.152,-0.424,0.910,0.045
13.162,-0.422,0.908,0.049
13.172,-0.422,0.906,0.047
13.182,-0.420,0.906,0.049
13.192,-0.418,0.906,0.049
13.202,-0.416,0.906,0.047
13.212,-0.420,0.902,0.047
13.222,-0.418,0.902,0.047
13.232,-0.420,0.904,0.049
13.242,-0.420,0.904,0.049
13.251,-0.422,0.906,0.045
13.261,-0.418,0.910,0.045
13.271,-0.422,0.906,0.053
13.281,-0.422,0.908,0.045
13.291,-0.420,0.904,0.053
13.301,-0.420,0.906,0.047
13.311,-0.422,0.904,0.045
13.321,-0.422,0.902,0.049
13.331,-0.420,0.906,0.045
13.341,-0.418,0.906,0.049
13.351,-0.422,0.906,0.049
13.361,-0.424,0.908,0.045
13.371,-0.422,0.910,0.047
13.381,-0.422,0.906,0.047
13.391,-0.426,0.906,0.043
13.400,-0.424,0.904,0.047
13.410,-0.426,0.904,0.043
13.420,-0.424,0.904,0.041
13.430,-0.424,0.906,0.041
13.440,-0.424,0.902,0.045
13.450,-0.422,0.910,0.045
13.460,-0.426,0.908,0.047
13.470,-0.422,0.906,0.047
13.480,-0.422,0.906,0.045
13.490,-0.422,0.904,0.045
13.500,-0.424,0.908,0.047
13.510,-0.424,0.908,0.047
13.520,-0.422,0.906,0.045
13.530,-0.422,0.906,0.045
13.540,-0.424,0.906,0.047
13.549,-0.424,0.904,0.045
13.559,-0.424,0.904,0.045
13.569,-0.422,0.904,0.045
13.579,-0.420,0.900,0.047
13.589,-0.426,0.904,0.045
13.599,-0.424,0.902,0.047
13.609,-0.426,0.904,0.045
13.619,-0.426,0.902,0.043
13.629,-0.424,0.902,0.045
13.639,-0.424,0.904,0.049
13.649,-0.420,0.906,0.045
13.659,-0.418,0.904,0.047
13.669,-0.418,0.904,0.045
13.679,-0.418,0.906,0.043
13.689,-0.420,0.902,0.043
13.698,-0.422,0.908,0.043
13.708,-0.426,0.908,0.047
13.718,-0.426,0.912,0.045
13.728,-0.426,0.912,0.045
13.738,-0.428,0.908,0.041
13.748,-0.426,0.906,0.047
13.758,-0.424,0.910,0.045
13.768,-0.424,0.910,0.045
13.778,-0.426,0.906,0.047
13.788,-0.424,0.906,0.045
13.798,-0.424,0.904,0.047
13.808,-0.422,0.902,0.047
13.818,-0.420,0.900,0.045
13.828,-0.420,0.900,0.049
13.838,-0.420,0.904,0.045
13.847,-0.418,0.904,0.049
13.857,-0.420,0.906,0.047
13.867,-0.420,0.904,0.051
13.877,-0.418,0.908,0.045
13.887,-0.422,0.906,0.045
13.897,-0.426,0.908,0.045
13.907,-0.424,0.908,0.041
13.917,-0.424,0.908,0.047
13.927,-0.422,0.910,0.043
13.937,-0.422,0.906,0.043
13.947,-0.422,0.908,0.045
13.957,-0.420,0.908,0.041
13.967,-0.422,0.908,0.041
13.977,-0.422,0.902,0.045
13.987,-0.422,0.904,0.049
13.996,-0.418,0.906,0.047
14.006,-0.418,0.904,0.045
14.016,-0.420,0.902,0.043
14.026,-0.422,0.904,0.047
14.036,-0.420,0.908,0.049
14.046,-0.422,0.906,0.043
14.056,-0.420,0.908,0.043
14.066,-0.422,0.908,0.045
14.076,-0.420,0.908,0.047
14.086,-0.420,0.908,0.041
14.096,-0.420,0.906,0.043
14.106,-0.422,0.908,0.043
14.116,-0.424,0.902,0.047
14.126,-0.426,0.902,0.043
14.136,-0.426,0.906,0.041
14.145,-0.424,0.906,0.041
14.155,-0.422,0.908,0.039
14.165,-0.422,0.908,0.043
14.175,-0.424,0.904,0.041
14.185,-0.424,0.908,0.045
14.195,-0.424,0.904,0.043
14.205,-0.422,0.904,0.041
14.215,-0.420,0.904,0.043
14.225,-0.422,0.908,0.043
14.235,-0.422,0.906,0.043
14.245,-0.422,0.908,0.039
14.255,-0.424,0.908,0.041
14.265,-0.424,0.908,0.041
14.275,-0.426,0.908,0.043
14.285,-0.424,0.906,0.047
14.294,-0.424,0.906,0.043
14.304,-0.422,0.908,0.043
14.314,-0.420,0.906,0.043
14.324,-0.418,0.902,0.041
14.334,-0.424,0.904,0.041
14.344,-0.422,0.906,0.041
14.354,-0.422,0.906,0.045
14.364,-0.424,0.906,0.045
14.374,-0.422,0.904,0.045
14.384,-0.424,0.906,0.045
14.394,-0.424,0.906,0.043
14.404,-0.426,0.904,0.047
14.414,-0.426,0.908,0.043
14.424,-0.422,0.908,0.041
14.434,-0.424,0.906,0.041
14.443,-0.426,0.904,0.043
14.453,-0.422,0.906,0.043
14.463,-0.424,0.908,0.043
14.473,-0.422,0.906,0.043
14.483,-0.420,0.904,0.043
14.493,-0.422,0.908,0.043
14.503,-0.418,0.902,0.041
14.513,-0.422,0.906,0.045
14.523,-0.424,0.908,0.047
14.533,-0.424,0.908,0.043
14.543,-0.426,0.908,0.043
14.553,-0.428,0.908,0.045
14.563,-0.426,0.906,0.045
14.573,-0.426,0.908,0.045
14.583,-0.426,0.910,0.045
14.592,-0.422,0.910,0.047
14.602,-0.426,0.904,0.049
14.612,-0.426,0.906,0.047
14.622,-0.424,0.902,0.045
14.632,-0.422,0.900,0.045
14.642,-0.422,0.898,0.049
14.652,-0.422,0.902,0.045
14.662,-0.422,0.898,0.045
14.672,-0.420,0.902,0.049
14.682,-0.420,0.904,0.045
14.692,-0.424,0.904,0.045
14.702,-0.424,0.904,0.045
14.712,-0.422,0.904,0.045
14.722,-0.424,0.906,0.041
14.732,-0.426,0.906,0.043
14.741,-0.430,0.906,0.045
14.751,-0.426,0.904,0.043
14.761,-0.426,0.906,0.041
14.771,-0.432,0.906,0.043
14.781,-0.428,0.906,0.043
14.791,-0.428,0.906,0.043
14.801,-0.426,0.906,0.047
14.811,-0.424,0.904,0.049
14.821,-0.426,0.908,0.047
14.831,-0.422,0.900,0.043
14.841,-0.422,0.904,0.045
14.851,-0.426,0.902,0.045
14.861,-0.422,0.902,0.043
14.871,-0.426,0.908,0.049
14.881,-0.422,0.908,0.043
14.890,-0.424,0.906,0.045
14.900,-0.424,0.904,0.047
14.910,-0.426,0.910,0.045
14.920,-0.426,0.908,0.047
14.930,-0.428,0.904,0.045
14.940,-0.424,0.904,0.041
14.950,-0.426,0.904,0.045
14.960,-0.428,0.900,0.043
14.970,-0.426,0.904,0.043
14.980,-0.426,0.904,0.043
14.990,-0.428,0.906,0.043
15.000,-0.426,0.904,0.045
15.010,-0.426,0.902,0.041
15.020,-0.426,0.902,0.047
15.030,-0.426,0.904,0.043
15.039,-0.426,0.906,0.041
15.049,-0.424,0.904,0.041
15.059,-0.426,0.906,0.045
15.069,-0.422,0.906,0.041
15.079,-0.424,0.908,0.045
15.089,-0.424,0.904,0.045
15.099,-0.424,0.906,0.043
15.109,-0.422,0.904,0.045
15.119,-0.424,0.906,0.043
15.129,-0.422,0.904,0.039
15.139,-0.422,0.904,0.045
15.149,-0.422,0.904,0.047
15.159,-0.426,0.904,0.043
15.169,-0.426,0.904,0.045
15.179,-0.422,0.904,0.045
15.188,-0.424,0.902,0.045
15.198,-0.424,0.904,0.045
15.208,-0.424,0.902,0.045
15.218,-0.424,0.906,0.045
15.228,-0.424,0.906,0.045
15.238,-0.422,0.904,0.049
15.248,-0.424,0.904,0.043
15.258,-0.424,0.906,0.045
15.268,-0.420,0.910,0.043
15.278,-0.418,0.908,0.043
15.288,-0.416,0.908,0.043
15.298,-0.414,0.906,0.045
15.308,-0.418,0.908,0.045
15.318,-0.420,0.906,0.043
15.328,-0.416,0.908,0.045
15.337,-0.420,0.910,0.045
15.347,-0.424,0.908,0.043
15.357,-0.422,0.912,0.041
15.367,-0.424,0.914,0.041
15.377,-0.424,0.908,0.043
15.387,-0.418,0.912,0.043
15.397,-0.418,0.908,0.045
15.407,-0.422,0.908,0.047
15.417,-0.420,0.904,0.045
15.427,-0.418,0.902,0.045
15.437,-0.416,0.902,0.043
15.447,-0.416,0.902,0.045
15.457,-0.420,0.902,0.043
15.467,-0.420,0.902,0.041
15.477,-0.420,0.906,0.043
15.486,-0.418,0.908,0.047
15.496,-0.418,0.906,0.045
15.506,-0.420,0.908,0.045
15.516,-0.418,0.906,0.039
15.526,-0.420,0.908,0.047
15.536,-0.420,0.908,0.047
15.546,-0.422,0.910,0.041
15.556,-0.424,0.908,0.043
15.566,-0.422,0.912,0.041
15.576,-0.424,0.910,0.041
15.586,-0.424,0.908,0.043
15.596,-0.422,0.908,0.045
15.606,-0.422,0.910,0.045
15.616,-0.414,0.906,0.047
15.626,-0.416,0.904,0.041
15.635,-0.416,0.904,0.043
15.645,-0.416,0.904,0.043
15.655,-0.418,0.906,0.043
15.665,-0.422,0.906,0.045
15.675,-0.422,0.906,0.043
15.685,-0.422,0.908,0.045
15.695,-0.420,0.904,0.043
15.705,-0.420,0.906,0.043
15.715,-0.420,0.906,0.041
15.725,-0.420,0.906,0.039
15.735,-0.422,0.906,0.043
15.745,-0.424,0.904,0.041
15.755,-0.424,0.908,0.039
15.765,-0.422,0.906,0.041
15.775,-0.422,0.910,0.039
15.784,-0.420,0.908,0.041
15.794,-0.418,0.910,0.041
15.804,-0.420,0.904,0.043
15.814,-0.420,0.908,0.041
15.824,-0.422,0.902,0.043
15.834,-0.422,0.904,0.039
15.844,-0.422,0.906,0.039
15.854,-0.424,0.906,0.041
15.864,-0.422,0.908,0.039
15.874,-0.418,0.908,0.041
15.884,-0.420,0.904,0.045
15.894,-0.420,0.906,0.041
15.904,-0.422,0.910,0.043
15.914,-0.424,0.908,0.045
15.924,-0.424,0.906,0.043
15.933,-0.424,0.904,0.045
15.943,-0.424,0.908,0.043
15.953,-0.424,0.906,0.047
15.963,-0.426,0.906,0.045
15.973,-0.426,0.906,0.045
15.983,-0.428,0.906,0.045
15.993,-0.426,0.904,0.045
16.003,-0.430,0.904,0.045
16.013,-0.432,0.906,0.049
16.023,-0.428,0.904,0.047
16.033,-0.428,0.904,0.047
16.043,-0.430,0.902,0.049
16.053,-0.428,0.906,0.047
16.063,-0.426,0.904,0.047
16.073,-0.424,0.900,0.045
16.082,-0.426,0.904,0.047
16.092,-0.426,0.900,0.049
16.102,-0.428,0.902,0.049
16.112,-0.426,0.904,0.049
16.122,-0.426,0.908,0.051
16.132,-0.428,0.908,0.047
16.142,-0.430,0.906,0.043
16.152,-0.432,0.908,0.045
16.162,-0.432,0.910,0.045
16.172,-0.430,0.910,0.045
16.182,-0.426,0.910,0.049
16.192,-0.424,0.906,0.047
16.202,-0.424,0.904,0.049
16.212,-0.422,0.904,0.049
16.222,-0.420,0.900,0.049
16.231,-0.424,0.900,0.047
16.241,-0.424,0.898,0.047
16.251,-0.424,0.896,0.045
16.261,-0.418,0.900,0.047
16.271,-0.424,0.902,0.045
16.281,-0.420,0.902,0.049
16.291,-0.420,0.900,0.043
16.301,-0.422,0.904,0.045
16.311,-0.426,0.908,0.045
16.321,-0.428,0.906,0.049
16.331,-0.428,0.910,0.049
16.341,-0.426,0.906,0.043
16.351,-0.428,0.906,0.045
16.361,-0.428,0.908,0.045
16.371,-0.426,0.906,0.045
16.380,-0.424,0.904,0.045
16.390,-0.424,0.904,0.043
16.400,-0.422,0.906,0.047
16.410,-0.420,0.902,0.043
16.420,-0.420,0.906,0.041
16.430,-0.422,0.906,0.041
16.440,-0.424,0.910,0.039
16.450,-0.424,0.912,0.041
16.460,-0.422,0.914,0.041
16.470,-0.420,0.912,0.045
16.480,-0.418,0.912,0.045
16.490,-0.416,0.902,0.047
16.500,-0.418,0.902,0.043
16.510,-0.416,0.904,0.043
16.520,-0.422,0.904,0.039
16.529,-0.418,0.898,0.041
16.539,-0.422,0.902,0.043
16.549,-0.422,0.906,0.041
16.559,-0.426,0.904,0.041
16.569,-0.418,0.906,0.037
16.579,-0.424,0.910,0.039
16.589,-0.424,0.904,0.037
16.599,-0.424,0.908,0.039
16.609,-0.424,0.906,0.037
16.619,-0.422,0.906,0.039
16.629,-0.420,0.908,0.037
16.639,-0.424,0.912,0.037
16.649,-0.428,0.914,0.037
16.659,-0.428,0.918,0.037
16.669,-0.426,0.918,0.039
16.678,-0.422,0.918,0.035
16.688,-0.416,0.914,0.037
16.698,-0.418,0.908,0.041
16.708,-0.418,0.902,0.041
16.718,-0.420,0.904,0.041
16.728,-0.422,0.906,0.043
16.738,-0.420,0.902,0.043
16.748,-0.418,0.910,0.043
16.758,-0.418,0.906,0.043
16.768,-0.420,0.902,0.041
16.778,-0.420,0.898,0.041
16.788,-0.416,0.902,0.039
16.798,-0.418,0.902,0.043
16.808,-0.416,0.902,0.043
16.818,-0.414,0.908,0.047
16.827,-0.420,0.906,0.045
16.837,-0.420,0.906,0.043
16.847,-0.424,0.908,0.043
16.857,-0.422,0.910,0.045
16.867,-0.424,0.910,0.041
16.877,-0.416,0.910,0.041
16.887,-0.416,0.908,0.041
16.897,-0.418,0.912,0.041
16.907,-0.414,0.912,0.041
16.917,-0.410,0.912,0.043
16.927,-0.414,0.912,0.045
16.937,-0.412,0.912,0.047
16.947,-0.414,0.902,0.045
16.957,-0.408,0.904,0.041
16.967,-0.414,0.906,0.045
16.976,-0.414,0.908,0.043
16.986,-0.412,0.908,0.041
16.996,-0.410,0.906,0.043
17.006,-0.408,0.910,0.045
17.016,-0.412,0.912,0.045
17.026,-0.404,0.912,0.045
17.036,-0.406,0.912,0.041
17.046,-0.410,0.908,0.043
17.056,-0.406,0.910,0.045
17.066,-0.410,0.910,0.043
17.076,-0.408,0.914,0.045
17.086,-0.408,0.914,0.043
17.096,-0.406,0.914,0.045
17.106,-0.402,0.914,0.045
17.116,-0.406,0.914,0.045
17.125,-0.402,0.908,0.041
17.135,-0.404,0.908,0.043
17.145,-0.406,0.910,0.045
17.155,-0.410,0.914,0.045
17.165,-0.406,0.916,0.047
17.175,-0.408,0.914,0.047
17.185,-0.406,0.914,0.045
17.195,-0.406,0.914,0.051
17.205,-0.406,0.914,0.049
17.215,-0.410,0.914,0.047
17.225,-0.410,0.910,0.049
17.235,-0.410,0.910,0.051
17.245,-0.410,0.910,0.047
17.255,-0.410,0.908,0.049
17.265,-0.406,0.908,0.053
17.274,-0.410,0.908,0.051
17.284,-0.410,0.908,0.051
17.294,-0.414,0.908,0.049
17.304,-0.408,0.908,0.049
17.314,-0.410,0.906,0.049
17.324,-0.412,0.908,0.045
17.334,-0.412,0.904,0.047
17.344,-0.410,0.908,0.049
17.354,-0.414,0.910,0.051
17.364,-0.414,0.912,0.049
17.374,-0.414,0.908,0.051
17.384,-0.414,0.912,0.045
17.394,-0.414,0.916,0.049
17.404,-0.414,0.910,0.049
17.414,-0.414,0.906,0.049
17.423,-0.416,0.908,0.049
17.433,-0.414,0.906,0.051
17.443,-0.414,0.906,0.049
17.453,-0.418,0.912,0.053
17.463,-0.420,0.910,0.053
17.473,-0.422,0.912,0.051
17.483,-0.418,0.906,0.049
17.493,-0.424,0.908,0.051
17.503,-0.416,0.906,0.053
17.513,-0.418,0.900,0.047
17.523,-0.414,0.902,0.051
17.533,-0.420,0.908,0.051
17.543,-0.418,0.906,0.055
17.553,-0.416,0.910,0.053
17.563,-0.414,0.910,0.053
17.572,-0.418,0.914,0.051
17.582,-0.416,0.908,0.051
17.592,-0.414,0.912,0.049
17.602,-0.414,0.912,0.049
17.612,-0.412,0.912,0.047
17.622,-0.414,0.912,0.049
17.632,-0.414,0.912,0.051
17.642,-0.418,0.908,0.047
17.652,-0.414,0.908,0.049
17.662,-0.416,0.908,0.053
17.672,-0.420,0.908,0.053
17.682,-0.420,0.906,0.051
17.692,-0.422,0.908,0.049
17.702,-0.420,0.906,0.049
17.712,-0.418,0.908,0.049
17.721,-0.412,0.910,0.049
17.731,-0.416,0.910,0.047
17.741,-0.416,0.910,0.049
17.751,-0.416,0.906,0.051
17.761,-0.418,0.910,0.043
17.771,-0.420,0.912,0.049
17.781,-0.416,0.906,0.051
17.791,-0.412,0.908,0.051
17.801,-0.414,0.906,0.053
17.811,-0.416,0.908,0.047
17.821,-0.422,0.914,0.047
17.831,-0.416,0.910,0.051
17.841,-0.414,0.918,0.049
17.851,-0.412,0.918,0.055
17.861,-0.408,0.910,0.049
17.870,-0.404,0.906,0.049
17.880,-0.410,0.908,0.051
17.890,-0.414,0.908,0.053
17.900,-0.414,0.912,0.053
17.910,-0.408,0.912,0.055
17.920,-0.412,0.912,0.053
17.930,-0.416,0.912,0.051
17.940,-0.416,0.910,0.051
17.950,-0.412,0.904,0.051
17.960,-0.418,0.910,0.051
17.970,-0.414,0.908,0.047
17.980,-0.414,0.908,0.049
17.990,-0.418,0.906,0.047
18.000,-0.416,0.908,0.049
18.010,-0.418,0.910,0.049
18.019,-0.416,0.910,0.049
18.029,-0.418,0.912,0.053
18.039,-0.420,0.908,0.047
18.049,-0.414,0.908,0.051
18.059,-0.414,0.906,0.051
18.069,-0.414,0.906,0.047
18.079,-0.414,0.908,0.051
18.089,-0.414,0.910,0.051
18.099,-0.418,0.908,0.049
18.109,-0.418,0.910,0.047
18.119,-0.416,0.908,0.045
18.129,-0.416,0.908,0.049
18.139,-0.418,0.908,0.045
18.149,-0.420,0.910,0.049
18.159,-0.424,0.908,0.047
18.168,-0.422,0.918,0.049
18.178,-0.422,0.912,0.047
18.188,-0.426,0.912,0.045
18.198,-0.422,0.906,0.047
18.208,-0.422,0.908,0.051
18.218,-0.420,0.908,0.049
18.228,-0.418,0.910,0.045
18.238,-0.414,0.906,0.047
18.248,-0.414,0.906,0.053
18.258,-0.414,0.906,0.049
18.268,-0.416,0.908,0.049
18.278,-0.416,0.904,0.047
18.288,-0.412,0.906,0.047
18.298,-0.412,0.910,0.047
18.308,-0.414,0.910,0.045
18.317,-0.414,0.910,0.047
18.327,-0.416,0.908,0.047
18.337,-0.412,0.914,0.051
18.347,-0.414,0.914,0.047
18.357,-0.416,0.914,0.049
18.367,-0.414,0.912,0.047
18.377,-0.412,0.910,0.051
18.387,-0.414,0.908,0.049
18.397,-0.414,0.910,0.047
18.407,-0.416,0.908,0.045
18.417,-0.408,0.908,0.047
18.427,-0.408,0.906,0.045
18.437,-0.410,0.912,0.047
18.447,-0.404,0.910,0.049
18.457,-0.410,0.912,0.049
18.466,-0.412,0.910,0.049
18.476,-0.414,0.910,0.047
18.486,-0.414,0.908,0.043
18.496,-0.416,0.912,0.047
18.506,-0.416,0.910,0.051
18.516,-0.418,0.912,0.045
18.526,-0.416,0.912,0.049
18.536,-0.416,0.912,0.051
18.546,-0.416,0.912,0.051
18.556,-0.416,0.914,0.051
18.566,-0.416,0.906,0.051
18.576,-0.412,0.906,0.051
18.586,-0.412,0.910,0.053
18.596,-0.412,0.906,0.053
18.606,-0.410,0.906,0.051
18.615,-0.414,0.906,0.051
18.625,-0.414,0.904,0.049
18.635,-0.416,0.910,0.053
18.645,-0.416,0.910,0.051
18.655,-0.414,0.912,0.051
18.665,-0.412,0.912,0.053
18.675,-0.418,0.912,0.051
18.685,-0.418,0.908,0.051
18.695,-0.416,0.904,0.053
18.705,-0.412,0.904,0.051
18.715,-0.414,0.904,0.051
18.725,-0.418,0.904,0.049
18.735,-0.418,0.912,0.049
18.745,-0.416,0.914,0.049
18.755,-0.418,0.910,0.049
18.764,-0.418,0.910,0.049
18.774,-0.416,0.910,0.047
18.784,-0.414,0.908,0.051
18.794,-0.414,0.908,0.049
18.804,-0.414,0.908,0.051
18.814,-0.414,0.910,0.049
18.824,-0.416,0.908,0.049
18.834,-0.416,0.910,0.049
18.844,-0.418,0.912,0.051
18.854,-0.416,0.910,0.051
18.864,-0.414,0.912,0.053
18.874,-0.418,0.912,0.055
18.884,-0.418,0.912,0.049
18.894,-0.416,0.910,0.049
18.904,-0.414,0.912,0.049
18.913,-0.416,0.910,0.051
18.923,-0.414,0.912,0.047
18.933,-0.416,0.910,0.049
18.943,-0.414,0.908,0.047
18.953,-0.416,0.908,0.055
18.963,-0.418,0.904,0.049
18.973,-0.412,0.906,0.051
18.983,-0.412,0.912,0.049
18.993,-0.412,0.908,0.051
19.003,-0.414,0.910,0.051
19.013,-0.414,0.914,0.049
19.023,-0.412,0.912,0.053
19.033,-0.410,0.906,0.051
19.043,-0.410,0.910,0.051
19.053,-0.408,0.912,0.051
19.062,-0.404,0.914,0.047
19.072,-0.408,0.908,0.049
19.082,-0.408,0.910,0.051
19.092,-0.418,0.912,0.049
19.102,-0.414,0.916,0.049
19.112,-0.406,0.918,0.049
19.122,-0.404,0.920,0.051
19.132,-0.404,0.924,0.053
19.142,-0.410,0.914,0.053
19.152,-0.410,0.906,0.049
19.162,-0.410,0.906,0.049
19.172,-0.412,0.904,0.051
19.182,-0.422,0.916,0.049
19.192,-0.418,0.914,0.047
19.202,-0.416,0.912,0.049
19.211,-0.410,0.916,0.051
19.221,-0.414,0.912,0.051
19.231,-0.408,0.912,0.051
19.241,-0.406,0.914,0.055
19.251,-0.408,0.908,0.055
19.261,-0.410,0.912,0.057
19.271,-0.412,0.912,0.057
19.281,-0.414,0.914,0.057
19.291,-0.406,0.918,0.057
19.301,-0.406,0.918,0.057
19.311,-0.404,0.914,0.059
19.321,-0.395,0.906,0.053
19.331,-0.396,0.910,0.057
19.341,-0.402,0.912,0.057
19.351,-0.408,0.914,0.055
19.360,-0.410,0.914,0.057
19.370,-0.416,0.912,0.053
19.380,-0.414,0.918,0.051
19.390,-0.410,0.914,0.055
19.400,-0.406,0.920,0.057
19.410,-0.404,0.914,0.059
19.420,-0.402,0.914,0.055
19.430,-0.398,0.914,0.059
19.440,-0.402,0.910,0.059
19.450,-0.398,0.912,0.059
19.460,-0.393,0.916,0.059
19.470,-0.396,0.916,0.057
19.480,-0.395,0.918,0.057
19.490,-0.395,0.920,0.057
19.500,-0.395,0.918,0.055
19.509,-0.395,0.916,0.055
19.519,-0.400,0.914,0.051
19.529,-0.400,0.916,0.055
19.539,-0.402,0.916,0.057
19.549,-0.398,0.918,0.057
19.559,-0.402,0.918,0.057
19.569,-0.396,0.916,0.055
19.579,-0.400,0.916,0.057
19.589,-0.402,0.916,0.057
19.599,-0.396,0.916,0.059
19.609,-0.398,0.914,0.062
19.619,-0.398,0.916,0.061
19.629,-0.398,0.912,0.061
19.639,-0.400,0.912,0.061
19.649,-0.404,0.914,0.062
19.658,-0.402,0.908,0.064
19.668,-0.404,0.908,0.062
19.678,-0.408,0.912,0.061
19.688,-0.408,0.910,0.062
19.698,-0.408,0.910,0.062
19.708,-0.412,0.910,0.064
19.718,-0.412,0.908,0.068
19.728,-0.414,0.910,0.061
19.738,-0.412,0.906,0.059
19.748,-0.412,0.912,0.064
19.758,-0.410,0.910,0.068
19.768,-0.408,0.912,0.062
19.778,-0.418,0.912,0.066
19.788,-0.414,0.912,0.064
19.798,-0.408,0.914,0.066
19.807,-0.406,0.912,0.062
19.817,-0.412,0.912,0.064
19.827,-0.410,0.918,0.061
19.837,-0.410,0.914,0.061
19.847,-0.410,0.910,0.062
19.857,-0.414,0.916,0.064
19.867,-0.416,0.914,0.061
19.877,-0.420,0.910,0.066
19.887,-0.422,0.912,0.064
19.897,-0.422,0.908,0.061
19.907,-0.422,0.904,0.062
19.917,-0.420,0.904,0.061
19.927,-0.416,0.908,0.059
19.937,-0.416,0.910,0.062
19.947,-0.414,0.910,0.066
19.956,-0.412,0.912,0.064
19.966,-0.414,0.910,0.061
19.976,-0.408,0.908,0.062
19.986,-0.408,0.908,0.061
19.996,-0.408,0.908,0.061
20.006,-0.406,0.912,0.061
20.016,-0.408,0.912,0.064
20.026,-0.410,0.912,0.059
20.036,-0.408,0.912,0.061
20.046,-0.406,0.916,0.059
20.056,-0.410,0.914,0.061
20.066,-0.410,0.912,0.055
20.076,-0.412,0.912,0.059
20.086,-0.408,0.912,0.061
20.096,-0.408,0.910,0.061
20.105,-0.410,0.912,0.057
20.115,-0.408,0.914,0.059
20.125,-0.408,0.916,0.059
20.135,-0.410,0.914,0.061
20.145,-0.410,0.914,0.059
20.155,-0.412,0.912,0.061
20.165,-0.410,0.912,0.061
20.175,-0.410,0.910,0.061
20.185,-0.410,0.910,0.059
20.195,-0.412,0.910,0.059
20.205,-0.410,0.908,0.061
20.215,-0.414,0.906,0.061
20.225,-0.412,0.906,0.061
20.235,-0.416,0.910,0.057
20.245,-0.414,0.912,0.061
20.254,-0.416,0.910,0.059
20.264,-0.414,0.910,0.059
20.274,-0.414,0.910,0.061
20.284,-0.416,0.908,0.062
20.294,-0.416,0.908,0.061
20.304,-0.416,0.910,0.059
20.314,-0.416,0.910,0.057
20.324,-0.418,0.910,0.057
20.334,-0.418,0.914,0.059
20.344,-0.416,0.912,0.059
20.354,-0.418,0.910,0.059
20.364,-0.418,0.912,0.061
20.374,-0.416,0.914,0.057
20.384,-0.418,0.912,0.057
20.394,-0.418,0.912,0.061
20.403,-0.418,0.910,0.062
20.413,-0.418,0.910,0.057
20.423,-0.422,0.908,0.061
20.433,-0.422,0.910,0.061
20.443,-0.420,0.906,0.062
20.453,-0.416,0.906,0.059
20.463,-0.414,0.908,0.059
20.473,-0.414,0.906,0.059
20.483,-0.414,0.912,0.061
20.493,-0.414,0.906,0.061
20.503,-0.414,0.904,0.061
20.513,-0.418,0.904,0.059
20.523,-0.414,0.908,0.061
20.533,-0.416,0.910,0.062
20.543,-0.416,0.912,0.055
20.552,-0.414,0.914,0.055
20.562,-0.416,0.912,0.059
20.572,-0.420,0.916,0.057
20.582,-0.418,0.914,0.061
20.592,-0.416,0.914,0.061
20.602,-0.414,0.914,0.061
20.612,-0.412,0.914,0.059
20.622,-0.414,0.912,0.062
20.632,-0.412,0.912,0.062
20.642,-0.416,0.908,0.061
20.652,-0.414,0.908,0.057
20.662,-0.414,0.908,0.062
20.672,-0.414,0.908,0.059
20.682,-0.416,0.906,0.061
20.692,-0.414,0.906,0.061
20.701,-0.416,0.904,0.059
20.711,-0.418,0.906,0.057
20.721,-0.418,0.906,0.057
20.731,-0.418,0.908,0.059
20.741,-0.416,0.912,0.061
20.751,-0.418,0.912,0.057
20.761,-0.416,0.914,0.059
20.771,-0.418,0.914,0.057
20.781,-0.416,0.910,0.059
20.791,-0.418,0.908,0.059
20.801,-0.416,0.906,0.062
20.811,-0.414,0.910,0.059
20.821,-0.416,0.908,0.059
20.831,-0.416,0.906,0.057
20.841,-0.416,0.912,0.059
20.850,-0.418,0.906,0.055
20.860,-0.414,0.910,0.059
20.870,-0.416,0.914,0.057
20.880,-0.418,0.912,0.059
20.890,-0.416,0.910,0.059
20.900,-0.420,0.912,0.059
20.910,-0.416,0.908,0.057
20.920,-0.422,0.908,0.059
20.930,-0.420,0.906,0.059
20.940,-0.418,0.906,0.057
20.950,-0.418,0.906,0.057
20.960,-0.414,0.910,0.059
20.970,-0.416,0.910,0.055
20.980,-0.418,0.910,0.055
20.990,-0.416,0.910,0.055
20.999,-0.416,0.908,0.061
21.009,-0.416,0.906,0.057
21.019,-0.418,0.910,0.057
21.029,-0.418,0.910,0.057
21.039,-0.416,0.908,0.057
21.049,-0.416,0.910,0.055
21.059,-0.414,0.906,0.055
21.069,-0.414,0.908,0.055
21.079,-0.412,0.906,0.059
21.089,-0.414,0.910,0.057
21.099,-0.416,0.912,0.055
21.109,-0.410,0.908,0.055
21.119,-0.416,0.908,0.055
21.129,-0.416,0.910,0.055
21.139,-0.416,0.912,0.059
21.148,-0.418,0.910,0.057
21.158,-0.418,0.910,0.055
21.168,-0.416,0.908,0.053
21.178,-0.416,0.912,0.057
21.188,-0.420,0.908,0.055
21.198,-0.418,0.908,0.053
21.208,-0.418,0.910,0.057
21.218,-0.418,0.908,0.061
21.228,-0.420,0.904,0.053
21.238,-0.418,0.906,0.057
21.248,-0.416,0.906,0.059
21.258,-0.420,0.906,0.059
21.268,-0.424,0.908,0.057
21.278,-0.420,0.908,0.057
21.288,-0.418,0.914,0.055
21.297,-0.418,0.916,0.061
21.307,-0.416,0.914,0.062
21.317,-0.416,0.910,0.061
21.327,-0.418,0.910,0.062
21.337,-0.416,0.906,0.059
21.347,-0.420,0.904,0.061
21.357,-0.420,0.914,0.059
21.367,-0.420,0.912,0.059
21.377,-0.418,0.910,0.061
21.387,-0.418,0.910,0.062
21.397,-0.416,0.910,0.062
21.407,-0.420,0.904,0.061
21.417,-0.420,0.902,0.061
21.427,-0.420,0.902,0.061
21.437,-0.422,0.904,0.059
21.446,-0.422,0.908,0.059
21.456,-0.422,0.910,0.061
21.466,-0.420,0.914,0.062
21.476,-0.424,0.912,0.059
21.486,-0.420,0.916,0.059
21.496,-0.418,0.912,0.061
21.506,-0.414,0.908,0.059
21.516,-0.416,0.908,0.062
21.526,-0.410,0.906,0.061
21.536,-0.412,0.906,0.059
21.546,-0.416,0.908,0.057
21.556,-0.416,0.910,0.059
21.566,-0.416,0.912,0.057
21.576,-0.414,0.914,0.059
21.586,-0.418,0.912,0.059
21.595,-0.416,0.914,0.059
21.605,-0.414,0.912,0.059
21.615,-0.416,0.910,0.057
21.625,-0.416,0.914,0.059
21.635,-0.410,0.910,0.059
21.645,-0.416,0.906,0.055
21.655,-0.410,0.906,0.055
21.665,-0.416,0.908,0.057
21.675,-0.418,0.916,0.057
21.685,-0.416,0.914,0.055
21.695,-0.414,0.916,0.055
21.705,-0.410,0.912,0.055
21.715,-0.412,0.910,0.053
21.725,-0.414,0.910,0.053
21.735,-0.412,0.908,0.051
21.744,-0.412,0.910,0.053
21.754,-0.414,0.910,0.055
21.764,-0.416,0.908,0.053
21.774,-0.412,0.906,0.055
21.784,-0.414,0.914,0.057
21.794,-0.422,0.912,0.055
21.804,-0.414,0.914,0.055
21.814,-0.416,0.910,0.055
21.824,-0.412,0.912,0.057
21.834,-0.414,0.914,0.055
21.844,-0.416,0.916,0.055
21.854,-0.414,0.910,0.057
21.864,-0.416,0.910,0.055
21.874,-0.412,0.906,0.055
21.884,-0.412,0.908,0.057
21.893,-0.412,0.906,0.061
21.903,-0.416,0.908,0.059
21.913,-0.412,0.906,0.053
21.923,-0.412,0.904,0.057
21.933,-0.416,0.908,0.061
21.943,-0.418,0.908,0.055
21.953,-0.416,0.910,0.055
21.963,-0.416,0.914,0.057
21.973,-0.414,0.914,0.057
21.983,-0.412,0.916,0.057
21.993,-0.408,0.920,0.057
22.003,-0.408,0.918,0.057
22.013,-0.410,0.910,0.061
22.023,-0.406,0.906,0.059
22.033,-0.406,0.900,0.057
22.042,-0.400,0.900,0.055
22.052,-0.404,0.904,0.057
22.062,-0.408,0.912,0.055
22.072,-0.410,0.914,0.057
22.082,-0.412,0.918,0.055
22.092,-0.410,0.918,0.057
22.102,-0.414,0.918,0.057
22.112,-0.410,0.920,0.057
22.122,-0.410,0.920,0.057
22.132,-0.410,0.914,0.059
22.142,-0.408,0.914,0.062
22.152,-0.406,0.914,0.057
22.162,-0.406,0.914,0.059
22.172,-0.406,0.912,0.055
22.182,-0.406,0.906,0.059
22.191,-0.406,0.914,0.062
22.201,-0.404,0.912,0.061
22.211,-0.408,0.910,0.059
22.221,-0.408,0.906,0.055
22.231,-0.412,0.906,0.057
22.241,-0.410,0.914,0.055
22.251,-0.408,0.910,0.059
22.261,-0.412,0.914,0.057
22.271,-0.406,0.914,0.057
22.281,-0.406,0.914,0.061
22.291,-0.410,0.914,0.059
22.301,-0.410,0.912,0.059
22.311,-0.408,0.910,0.061
22.321,-0.410,0.912,0.059
22.331,-0.410,0.914,0.057
22.340,-0.408,0.914,0.057
22.350,-0.406,0.918,0.057
22.360,-0.410,0.918,0.057
22.370,-0.408,0.912,0.059
22.380,-0.406,0.916,0.059
22.390,-0.406,0.906,0.059
22.400,-0.404,0.908,0.055
22.410,-0.410,0.914,0.059
22.420,-0.406,0.912,0.057
22.430,-0.406,0.912,0.055
22.440,-0.412,0.914,0.055
22.450,-0.408,0.916,0.055
22.460,-0.408,0.914,0.057
22.470,-0.410,0.914,0.057
22.480,-0.414,0.914,0.059
22.489,-0.408,0.918,0.061
22.499,-0.410,0.918,0.061
22.509,-0.416,0.908,0.057
22.519,-0.412,0.912,0.059
22.529,-0.406,0.914,0.057
22.539,-0.406,0.916,0.059
22.549,-0.404,0.916,0.059
22.559,-0.404,0.912,0.059
22.569,-0.402,0.912,0.059
22.579,-0.402,0.910,0.061
22.589,-0.402,0.916,0.057
22.599,-0.404,0.914,0.057
22.609,-0.400,0.914,0.055
22.619,-0.404,0.914,0.057
22.629,-0.404,0.916,0.057
22.638,-0.408,0.918,0.057
22.648,-0.408,0.920,0.057
22.658,-0.408,0.918,0.061
22.668,-0.408,0.916,0.059
22.678,-0.406,0.918,0.061
22.688,-0.406,0.912,0.062
22.698,-0.406,0.912,0.057
22.708,-0.408,0.910,0.062
22.718,-0.406,0.912,0.059
22.728,-0.406,0.912,0.062
22.738,-0.410,0.910,0.061
22.748,-0.410,0.914,0.062
22.758,-0.412,0.910,0.061
22.768,-0.414,0.912,0.059
22.778,-0.416,0.910,0.061
22.787,-0.416,0.912,0.061
22.797,-0.414,0.912,0.061
22.807,-0.414,0.908,0.061
22.817,-0.416,0.910,0.062
22.827,-0.414,0.912,0.061
22.837,-0.422,0.914,0.064
22.847,-0.420,0.914,0.061
22.857,-0.416,0.910,0.066
22.867,-0.414,0.914,0.066
22.877,-0.410,0.912,0.066
22.887,-0.410,0.906,0.061
22.897,-0.410,0.906,0.064
22.907,-0.414,0.906,0.062
22.917,-0.414,0.910,0.066
22.927,-0.420,0.910,0.066
22.936,-0.418,0.914,0.064
22.946,-0.418,0.914,0.062
22.956,-0.416,0.914,0.066
22.966,-0.414,0.910,0.064
22.976,-0.416,0.910,0.062
22.986,-0.416,0.906,0.064
22.996,-0.414,0.904,0.066
23.006,-0.414,0.906,0.064
23.016,-0.414,0.910,0.066
23.026,-0.414,0.912,0.066
23.036,-0.416,0.912,0.064
23.046,-0.416,0.912,0.062
23.056,-0.414,0.910,0.062
23.066,-0.414,0.912,0.066
23.076,-0.418,0.914,0.064
23.085,-0.416,0.910,0.062
23.095,-0.414,0.912,0.062
23.105,-0.414,0.912,0.061
23.115,-0.414,0.914,0.062
23.125,-0.414,0.912,0.062
23.135,-0.412,0.914,0.064
23.145,-0.414,0.914,0.066
23.155,-0.410,0.914,0.062
23.165,-0.408,0.916,0.066
23.175,-0.412,0.912,0.061
23.185,-0.414,0.912,0.064
23.195,-0.414,0.914,0.064
23.205,-0.414,0.908,0.064
23.215,-0.416,0.910,0.064
23.225,-0.418,0.912,0.062
23.234,-0.416,0.910,0.066
23.244,-0.414,0.914,0.068
23.254,-0.414,0.912,0.066
23.264,-0.414,0.908,0.066
23.274,-0.410,0.904,0.066
23.284,-0.410,0.908,0.068
23.294,-0.412,0.906,0.062
23.304,-0.414,0.906,0.061
23.314,-0.418,0.908,0.062
23.324,-0.416,0.910,0.066
23.334,-0.416,0.914,0.062
23.344,-0.416,0.916,0.061
23.354,-0.414,0.918,0.061
23.364,-0.410,0.916,0.062
23.374,-0.408,0.912,0.062
23.383,-0.408,0.908,0.061
23.393,-0.406,0.910,0.057
23.403,-0.408,0.910,0.062
23.413,-0.410,0.912,0.059
23.423,-0.410,0.916,0.059
23.433,-0.412,0.912,0.059
23.443,-0.410,0.912,0.059
23.453,-0.410,0.914,0.057
23.463,-0.414,0.910,0.051
23.473,-0.412,0.910,0.055
23.483,-0.414,0.914,0.051
23.493,-0.414,0.910,0.053
23.503,-0.414,0.912,0.053
23.513,-0.412,0.912,0.051
23.523,-0.414,0.916,0.053
23.532,-0.414,0.914,0.051
23.542,-0.412,0.912,0.053
23.552,-0.412,0.908,0.053
23.562,-0.408,0.910,0.057
23.572,-0.408,0.912,0.053
23.582,-0.412,0.912,0.049
23.592,-0.408,0.912,0.051
23.602,-0.408,0.914,0.051
23.612,-0.408,0.914,0.053
23.622,-0.412,0.914,0.051
23.632,-0.408,0.914,0.049
23.642,-0.408,0.916,0.047
23.652,-0.412,0.916,0.053
23.662,-0.412,0.912,0.049
23.672,-0.412,0.908,0.047
23.681,-0.412,0.912,0.047
23.691,-0.412,0.910,0.049
23.701,-0.414,0.910,0.045
23.711,-0.412,0.912,0.045
23.721,-0.410,0.912,0.047
23.731,-0.408,0.912,0.049
23.741,-0.408,0.912,0.051
23.751,-0.408,0.910,0.049
23.761,-0.410,0.914,0.045
23.771,-0.412,0.912,0.045
23.781,-0.410,0.914,0.047
23.791,-0.408,0.916,0.047
23.801,-0.406,0.912,0.047
23.811,-0.408,0.912,0.047
23.821,-0.410,0.916,0.049
23.830,-0.410,0.914,0.049
23.840,-0.410,0.912,0.047
23.850,-0.410,0.916,0.051
23.860,-0.412,0.914,0.049
23.870,-0.410,0.912,0.049
23.880,-0.410,0.918,0.049
23.890,-0.410,0.914,0.053
23.900,-0.410,0.914,0.053
23.910,-0.408,0.912,0.053
23.920,-0.410,0.914,0.053
23.930,-0.408,0.916,0.053
23.940,-0.410,0.914,0.053
23.950,-0.412,0.910,0.051
23.960,-0.412,0.908,0.053
23.970,-0.412,0.910,0.055
23.979,-0.408,0.908,0.057
23.989,-0.410,0.910,0.057
23.999,-0.408,0.912,0.055
24.009,-0.408,0.912,0.057
24.019,-0.410,0.910,0.057
24.029,-0.410,0.912,0.057
24.039,-0.408,0.912,0.059
24.049,-0.408,0.908,0.059
24.059,-0.408,0.912,0.057
24.069,-0.408,0.916,0.057
24.079,-0.410,0.910,0.053
24.089,-0.412,0.914,0.059
24.099,-0.412,0.916,0.059
24.109,-0.414,0.912,0.059
24.119,-0.410,0.908,0.057
24.128,-0.410,0.908,0.061
24.138,-0.408,0.910,0.061
24.148,-0.412,0.904,0.059
24.158,-0.410,0.910,0.057
24.168,-0.412,0.902,0.057
24.178,-0.404,0.895,0.047
24.188,-0.398,0.889,0.045
24.198,-0.395,0.885,0.047
24.208,-0.385,0.887,0.047
24.218,-0.371,0.893,0.053
24.228,-0.371,0.900,0.053
24.238,-0.377,0.918,0.055
24.248,-0.389,0.926,0.055
24.258,-0.393,0.936,0.053
24.268,-0.400,0.938,0.055
24.277,-0.414,0.939,0.062
24.287,-0.418,0.947,0.062
24.297,-0.432,0.957,0.064
24.307,-0.443,0.959,0.068
24.317,-0.455,0.955,0.070
24.327,-0.455,0.943,0.070
24.337,-0.455,0.928,0.068
24.347,-0.451,0.914,0.070
24.357,-0.443,0.896,0.074
24.367,-0.436,0.887,0.072
24.377,-0.428,0.885,0.076
24.387,-0.424,0.889,0.076
24.397,-0.426,0.893,0.082
24.407,-0.428,0.895,0.086
24.417,-0.438,0.898,0.084
24.426,-0.445,0.896,0.084
24.436,-0.443,0.889,0.080
24.446,-0.443,0.889,0.074
24.456,-0.445,0.887,0.068
24.466,-0.441,0.891,0.068
24.476,-0.439,0.889,0.062
24.486,-0.439,0.896,0.059
24.496,-0.443,0.896,0.051
24.506,-0.445,0.893,0.045
24.516,-0.443,0.896,0.043
24.526,-0.453,0.891,0.035
24.536,-0.467,0.900,0.041
24.546,-0.467,0.914,0.043
24.556,-0.475,0.906,0.047
24.566,-0.475,0.908,0.045
24.575,-0.467,0.904,0.047
24.585,-0.461,0.895,0.045
24.595,-0.457,0.889,0.041
24.605,-0.449,0.889,0.035
24.615,-0.449,0.879,0.031
24.625,-0.443,0.877,0.029
24.635,-0.438,0.873,0.035
24.645,-0.441,0.879,0.037
24.655,-0.451,0.885,0.041
24.665,-0.461,0.879,0.041
24.675,-0.475,0.883,0.041
24.685,-0.486,0.875,0.037
24.695,-0.492,0.869,0.035
24.705,-0.498,0.869,0.035
24.715,-0.498,0.873,0.045
24.724,-0.494,0.879,0.041
24.734,-0.490,0.883,0.049
24.744,-0.486,0.891,0.045
24.754,-0.475,0.893,0.049
24.764,-0.471,0.896,0.053
24.774,-0.465,0.898,0.047
24.784,-0.463,0.900,0.053
24.794,-0.465,0.898,0.053
24.804,-0.469,0.895,0.049
24.814,-0.480,0.891,0.053
24.824,-0.480,0.887,0.055
24.834,-0.482,0.881,0.062
24.844,-0.484,0.879,0.061
24.854,-0.482,0.879,0.064
24.864,-0.480,0.883,0.061
24.873,-0.482,0.885,0.062
24.883,-0.482,0.885,0.059
24.893,-0.484,0.887,0.061
24.903,-0.486,0.885,0.061
24.913,-0.488,0.885,0.061
24.923,-0.488,0.883,0.066
24.933,-0.484,0.879,0.066
24.943,-0.477,0.879,0.066
24.953,-0.477,0.881,0.068
24.963,-0.475,0.877,0.066
24.973,-0.473,0.877,0.070
24.983,-0.471,0.877,0.068
24.993,-0.469,0.877,0.070
25.003,-0.475,0.877,0.066
25.013,-0.484,0.883,0.066
25.022,-0.490,0.881,0.064
25.032,-0.492,0.883,0.068
25.042,-0.488,0.879,0.070
25.052,-0.484,0.883,0.074
25.062,-0.484,0.887,0.072
25.072,-0.486,0.881,0.068
25.082,-0.477,0.881,0.070
25.092,-0.477,0.881,0.072
25.102,-0.480,0.881,0.064
25.112,-0.484,0.879,0.068
25.122,-0.484,0.875,0.066
25.132,-0.486,0.875,0.068
25.142,-0.488,0.879,0.068
25.152,-0.492,0.879,0.070
25.162,-0.496,0.879,0.072
25.171,-0.494,0.881,0.072
25.181,-0.486,0.877,0.068
25.191,-0.475,0.881,0.072
25.201,-0.465,0.879,0.072
25.211,-0.461,0.885,0.072
25.221,-0.461,0.895,0.066
25.231,-0.465,0.896,0.068
25.241,-0.465,0.898,0.066
25.251,-0.473,0.896,0.062
25.261,-0.479,0.896,0.062
25.271,-0.486,0.895,0.062
25.281,-0.494,0.889,0.059
25.291,-0.498,0.889,0.055
25.301,-0.502,0.885,0.057
25.311,-0.504,0.879,0.055
25.320,-0.500,0.877,0.057
25.330,-0.498,0.875,0.059
25.340,-0.496,0.875,0.057
25.350,-0.488,0.871,0.059
25.360,-0.488,0.875,0.061
25.370,-0.488,0.869,0.057
25.380,-0.480,0.873,0.059
25.390,-0.480,0.873,0.059
25.400,-0.479,0.877,0.062
25.410,-0.473,0.877,0.064
25.420,-0.471,0.879,0.064
25.430,-0.467,0.875,0.061
25.440,-0.469,0.879,0.061
25.450,-0.471,0.873,0.055
25.460,-0.471,0.885,0.051
25.469,-0.473,0.885,0.057
25.479,-0.459,0.869,0.053
25.489,-0.447,0.885,0.059
25.499,-0.443,0.910,0.066
25.509,-0.439,0.922,0.066
25.519,-0.434,0.928,0.068
25.529,-0.439,0.926,0.072
25.539,-0.453,0.926,0.070
25.549,-0.449,0.893,0.062
25.559,-0.434,0.834,0.049
25.569,-0.422,0.842,0.057
25.579,-0.404,0.873,0.068
25.589,-0.395,0.904,0.080
25.599,-0.396,0.932,0.090
25.609,-0.408,0.949,0.094
25.618,-0.422,0.953,0.094
25.628,-0.430,0.932,0.090
25.638,-0.422,0.889,0.082
25.648,-0.420,0.877,0.084
25.658,-0.420,0.896,0.086
25.668,-0.408,0.896,0.092
25.678,-0.400,0.916,0.094
25.688,-0.408,0.932,0.094
25.698,-0.424,0.938,0.090
25.708,-0.438,0.936,0.088
25.718,-0.449,0.930,0.090
25.728,-0.447,0.898,0.080
25.738,-0.438,0.877,0.076
25.748,-0.434,0.887,0.076
25.758,-0.432,0.908,0.084
25.767,-0.428,0.934,0.084
25.777,-0.428,0.943,0.080
25.787,-0.436,0.949,0.080
25.797,-0.439,0.953,0.080
25.807,-0.441,0.947,0.076
25.817,-0.434,0.924,0.076
25.827,-0.420,0.902,0.070
25.837,-0.404,0.891,0.068
25.847,-0.395,0.893,0.066
25.857,-0.387,0.896,0.064
25.867,-0.381,0.910,0.068
25.877,-0.383,0.922,0.068
25.887,-0.391,0.932,0.070
25.897,-0.396,0.928,0.076
25.907,-0.408,0.928,0.078
25.916,-0.410,0.920,0.070
25.926,-0.414,0.918,0.076
25.936,-0.414,0.910,0.068
25.946,-0.420,0.906,0.066
25.956,-0.418,0.898,0.064
25.966,-0.414,0.895,0.066
25.976,-0.414,0.895,0.066
25.986,-0.414,0.893,0.061
25.996,-0.412,0.895,0.062
26.006,-0.412,0.904,0.059
26.016,-0.410,0.902,0.061
26.026,-0.412,0.906,0.055
26.036,-0.412,0.908,0.055
26.046,-0.410,0.910,0.053
26.056,-0.410,0.908,0.051
26.065,-0.406,0.910,0.053
26.075,-0.410,0.908,0.047
26.085,-0.402,0.906,0.049
26.095,-0.402,0.906,0.051
26.105,-0.400,0.908,0.049
26.115,-0.402,0.908,0.051
26.125,-0.400,0.910,0.047
26.135,-0.396,0.914,0.047
26.145,-0.396,0.914,0.049
26.155,-0.395,0.918,0.049
26.165,-0.391,0.926,0.047
26.175,-0.391,0.932,0.049
26.185,-0.389,0.932,0.047
26.195,-0.389,0.934,0.049
26.205,-0.391,0.934,0.051
26.214,-0.391,0.934,0.053
26.224,-0.391,0.932,0.051
26.234,-0.393,0.928,0.051
26.244,-0.395,0.924,0.051
26.254,-0.396,0.922,0.051
26.264,-0.395,0.920,0.049
26.274,-0.400,0.914,0.053
26.284,-0.400,0.916,0.055
26.294,-0.402,0.912,0.055
26.304,-0.398,0.912,0.055
26.314,-0.404,0.910,0.055
26.324,-0.400,0.910,0.055
26.334,-0.404,0.910,0.055
26.344,-0.398,0.908,0.057
26.354,-0.402,0.910,0.057
26.363,-0.398,0.908,0.057
26.373,-0.402,0.912,0.057
26.383,-0.400,0.912,0.053
26.393,-0.400,0.916,0.053
26.403,-0.398,0.916,0.055
26.413,-0.400,0.914,0.055
26.423,-0.396,0.918,0.055
26.433,-0.395,0.920,0.059
26.443,-0.396,0.916,0.051
26.453,-0.396,0.916,0.053
26.463,-0.398,0.920,0.059
26.473,-0.402,0.922,0.057
26.483,-0.402,0.922,0.061
26.493,-0.406,0.922,0.061
26.503,-0.410,0.918,0.057
26.512,-0.414,0.916,0.059
26.522,-0.412,0.912,0.059
26.532,-0.414,0.916,0.061
26.542,-0.418,0.916,0.059
26.552,-0.418,0.914,0.059
26.562,-0.414,0.916,0.062
26.572,-0.420,0.910,0.061
26.582,-0.418,0.912,0.062
26.592,-0.418,0.910,0.062
26.602,-0.420,0.910,0.061
26.612,-0.416,0.910,0.059
26.622,-0.414,0.904,0.062
26.632,-0.410,0.904,0.062
26.642,-0.414,0.908,0.064
26.652,-0.410,0.908,0.068
26.661,-0.410,0.908,0.062
26.671,-0.410,0.910,0.066
26.681,-0.414,0.916,0.062
26.691,-0.408,0.916,0.064
26.701,-0.412,0.922,0.062
26.711,-0.408,0.924,0.064
26.721,-0.406,0.920,0.064
26.731,-0.406,0.916,0.064
26.741,-0.406,0.914,0.064
26.751,-0.408,0.906,0.059
26.761,-0.408,0.904,0.061
26.771,-0.408,0.908,0.062
26.781,-0.408,0.912,0.062
26.791,-0.412,0.912,0.064
26.801,-0.412,0.916,0.062
26.810,-0.414,0.910,0.062
26.820,-0.410,0.910,0.059
26.830,-0.408,0.908,0.057
26.840,-0.408,0.908,0.057
26.850,-0.410,0.914,0.059
26.860,-0.408,0.914,0.059
26.870,-0.410,0.912,0.061
26.880,-0.410,0.914,0.055
26.890,-0.412,0.914,0.055
26.900,-0.408,0.910,0.055
26.910,-0.410,0.912,0.053
26.920,-0.414,0.914,0.055
26.930,-0.406,0.914,0.053
26.940,-0.406,0.918,0.055
26.950,-0.404,0.918,0.055
26.959,-0.406,0.920,0.055
26.969,-0.408,0.920,0.051
26.979,-0.408,0.916,0.055
26.989,-0.410,0.912,0.051
26.999,-0.404,0.914,0.053
27.009,-0.410,0.918,0.051
27.019,-0.408,0.916,0.055
27.029,-0.408,0.916,0.051
27.039,-0.406,0.914,0.053
27.049,-0.406,0.914,0.053
27.059,-0.408,0.914,0.057
27.069,-0.404,0.912,0.053
27.079,-0.402,0.906,0.055
27.089,-0.402,0.906,0.055
27.099,-0.404,0.912,0.055
27.108,-0.400,0.908,0.057
27.118,-0.404,0.916,0.053
27.128,-0.404,0.918,0.055
27.138,-0.404,0.918,0.055
27.148,-0.404,0.918,0.053
27.158,-0.404,0.920,0.055
27.168,-0.404,0.918,0.053
27.178,-0.404,0.918,0.055
27.188,-0.406,0.916,0.055
27.198,-0.402,0.916,0.053
27.208,-0.400,0.914,0.057
27.218,-0.400,0.914,0.057
27.228,-0.402,0.912,0.055
27.238,-0.400,0.910,0.055
27.248,-0.400,0.914,0.057
27.257,-0.402,0.914,0.051
27.267,-0.402,0.912,0.053
27.277,-0.402,0.916,0.053
27.287,-0.404,0.916,0.053
27.297,-0.406,0.912,0.051
27.307,-0.402,0.910,0.053
27.317,-0.402,0.912,0.047
27.327,-0.400,0.912,0.051
27.337,-0.402,0.914,0.055
27.347,-0.406,0.916,0.049
27.357,-0.406,0.918,0.049
27.367,-0.406,0.922,0.051
27.377,-0.408,0.918,0.053
27.387,-0.406,0.918,0.059
27.397,-0.404,0.918,0.057
27.406,-0.404,0.916,0.051
27.416,-0.402,0.910,0.049
27.426,-0.402,0.908,0.049
27.436,-0.406,0.916,0.053
27.446,-0.408,0.920,0.057
27.456,-0.406,0.922,0.049
27.466,-0.404,0.924,0.055
27.476,-0.404,0.924,0.055
27.486,-0.402,0.920,0.055
27.496,-0.404,0.914,0.053
27.506,-0.404,0.912,0.051
27.516,-0.404,0.908,0.055
27.526,-0.402,0.912,0.055
27.536,-0.404,0.912,0.055
27.546,-0.402,0.912,0.055
27.555,-0.402,0.914,0.055
27.565,-0.402,0.914,0.053
27.575,-0.402,0.914,0.051
27.585,-0.406,0.914,0.051
27.595,-0.406,0.916,0.051
27.605,-0.406,0.916,0.047
27.615,-0.404,0.918,0.051
27.625,-0.404,0.916,0.051
27.635,-0.406,0.918,0.049
27.645,-0.406,0.918,0.051
27.655,-0.408,0.918,0.053
27.665,-0.406,0.916,0.055
27.675,-0.404,0.914,0.055
27.685,-0.404,0.910,0.051
27.695,-0.406,0.914,0.053
27.704,-0.404,0.916,0.053
27.714,-0.406,0.914,0.055
27.724,-0.402,0.916,0.053
27.734,-0.404,0.918,0.055
27.744,-0.408,0.918,0.053
27.754,-0.406,0.916,0.053
27.764,-0.408,0.916,0.057
27.774,-0.406,0.914,0.055
27.784,-0.406,0.912,0.053
27.794,-0.406,0.914,0.053
27.804,-0.404,0.916,0.057
27.814,-0.406,0.912,0.055
27.824,-0.408,0.910,0.055
27.834,-0.402,0.908,0.057
27.844,-0.400,0.914,0.057
27.853,-0.406,0.916,0.057
27.863,-0.406,0.918,0.057
27.873,-0.406,0.914,0.057
27.883,-0.408,0.918,0.057
27.893,-0.410,0.918,0.057
27.903,-0.406,0.912,0.057
27.913,-0.408,0.918,0.057
27.923,-0.408,0.916,0.057
27.933,-0.406,0.912,0.057
27.943,-0.406,0.910,0.059
27.953,-0.410,0.910,0.059
27.963,-0.410,0.912,0.059
27.973,-0.408,0.912,0.059
27.983,-0.408,0.912,0.059
27.993,-0.406,0.912,0.059
28.002,-0.408,0.912,0.061
28.012,-0.406,0.912,0.057
28.022,-0.406,0.910,0.057
28.032,-0.408,0.910,0.057
28.042,-0.408,0.912,0.057
28.052,-0.414,0.914,0.059
28.062,-0.412,0.916,0.059
28.072,-0.412,0.916,0.061
28.082,-0.412,0.918,0.062
28.092,-0.412,0.920,0.057
28.102,-0.412,0.914,0.057
28.112,-0.410,0.916,0.059
28.122,-0.408,0.914,0.062
28.132,-0.406,0.912,0.061
28.142,-0.408,0.912,0.059
28.151,-0.404,0.910,0.062
28.161,-0.408,0.910,0.059
28.171,-0.408,0.914,0.062
28.181,-0.410,0.918,0.062
28.191,-0.408,0.916,0.059
28.201,-0.410,0.916,0.059
28.211,-0.406,0.914,0.061
28.221,-0.408,0.912,0.061
28.231,-0.410,0.908,0.061
28.241,-0.410,0.908,0.059
28.251,-0.408,0.908,0.062
28.261,-0.410,0.908,0.059
28.271,-0.410,0.914,0.061
28.281,-0.414,0.912,0.059
28.291,-0.414,0.916,0.059
28.300,-0.410,0.916,0.059
28.310,-0.410,0.914,0.059
28.320,-0.410,0.914,0.055
28.330,-0.408,0.916,0.057
28.340,-0.406,0.918,0.057
28.350,-0.408,0.916,0.053
28.360,-0.410,0.918,0.057
28.370,-0.408,0.920,0.059
28.380,-0.410,0.918,0.059
28.390,-0.408,0.916,0.059
28.400,-0.406,0.916,0.059
28.410,-0.404,0.914,0.059
28.420,-0.406,0.912,0.061
28.430,-0.404,0.910,0.059
28.440,-0.408,0.910,0.057
28.449,-0.408,0.914,0.059
28.459,-0.410,0.912,0.059
28.469,-0.412,0.916,0.059
28.479,-0.412,0.916,0.059
28.489,-0.414,0.910,0.059
28.499,-0.412,0.908,0.057
28.509,-0.408,0.910,0.059
28.519,-0.410,0.914,0.059
28.529,-0.410,0.912,0.057
28.539,-0.408,0.912,0.059
28.549,-0.410,0.912,0.059
28.559,-0.412,0.914,0.059
28.569,-0.408,0.912,0.061
28.579,-0.406,0.908,0.057
28.589,-0.408,0.912,0.059
28.598,-0.410,0.916,0.055
28.608,-0.410,0.916,0.053
28.618,-0.410,0.918,0.057
28.628,-0.408,0.916,0.051
28.638,-0.412,0.920,0.055
28.648,-0.406,0.918,0.055
28.658,-0.408,0.920,0.055
28.668,-0.404,0.918,0.059
28.678,-0.404,0.912,0.059
28.688,-0.406,0.914,0.057
28.698,-0.404,0.912,0.061
28.708,-0.406,0.910,0.055
28.718,-0.408,0.914,0.057
28.728,-0.408,0.912,0.055
28.738,-0.406,0.916,0.055
28.747,-0.412,0.918,0.057
28.757,-0.412,0.914,0.057
28.767,-0.414,0.914,0.057
28.777,-0.412,0.910,0.057
28.787,-0.408,0.910,0.057
28.797,-0.406,0.914,0.057
28.807,-0.404,0.916,0.055
28.817,-0.402,0.916,0.053
28.827,-0.402,0.918,0.055
28.837,-0.408,0.918,0.053
28.847,-0.408,0.914,0.059
28.857,-0.410,0.914,0.061
28.867,-0.408,0.918,0.057
28.877,-0.408,0.912,0.057
28.887,-0.404,0.908,0.055
28.896,-0.406,0.910,0.053
28.906,-0.404,0.912,0.055
28.916,-0.398,0.912,0.055
28.926,-0.396,0.916,0.057
28.936,-0.402,0.916,0.053
28.946,-0.400,0.916,0.059
28.956,-0.402,0.916,0.055
28.966,-0.404,0.918,0.053
28.976,-0.408,0.918,0.055
28.986,-0.406,0.914,0.051
28.996,-0.404,0.912,0.053
29.006,-0.402,0.918,0.051
29.016,-0.400,0.916,0.051
29.026,-0.395,0.918,0.053
29.036,-0.398,0.920,0.053
29.045,-0.396,0.922,0.053
29.055,-0.395,0.920,0.051
29.065,-0.393,0.920,0.047
29.075,-0.393,0.922,0.049
29.085,-0.391,0.924,0.049
29.095,-0.391,0.922,0.051
29.105,-0.389,0.922,0.055
29.115,-0.387,0.924,0.051
29.125,-0.383,0.924,0.049
29.135,-0.385,0.920,0.049
29.145,-0.383,0.920,0.047
29.155,-0.381,0.924,0.049
29.165,-0.379,0.928,0.047
29.175,-0.379,0.928,0.053
29.185,-0.379,0.928,0.049
29.194,-0.381,0.926,0.053
29.204,-0.381,0.930,0.049
29.214,-0.383,0.928,0.051
29.224,-0.383,0.926,0.049
29.234,-0.383,0.924,0.051
29.244,-0.379,0.924,0.051
29.254,-0.381,0.920,0.049
29.264,-0.377,0.926,0.053
29.274,-0.377,0.926,0.051
29.284,-0.373,0.922,0.049
29.294,-0.373,0.922,0.055
29.304,-0.373,0.924,0.051
29.314,-0.371,0.922,0.051
29.324,-0.373,0.922,0.051
29.334,-0.371,0.924,0.051
29.343,-0.373,0.928,0.053
29.353,-0.369,0.928,0.053
29.363,-0.373,0.926,0.047
29.373,-0.369,0.926,0.049
29.383,-0.371,0.926,0.049
29.393,-0.373,0.928,0.049
29.403,-0.365,0.928,0.053
29.413,-0.371,0.930,0.051
29.423,-0.369,0.930,0.053
29.433,-0.371,0.930,0.053
29.443,-0.371,0.928,0.053
29.453,-0.371,0.926,0.049
29.463,-0.369,0.924,0.051
29.473,-0.371,0.924,0.049
29.483,-0.375,0.922,0.051
29.492,-0.371,0.924,0.049
29.502,-0.369,0.924,0.053
29.512,-0.371,0.928,0.049
29.522,-0.369,0.926,0.051
29.532,-0.367,0.926,0.053
29.542,-0.371,0.928,0.053
29.552,-0.367,0.924,0.053
29.562,-0.367,0.928,0.051
29.572,-0.367,0.924,0.049
29.582,-0.371,0.930,0.051
29.592,-0.375,0.930,0.051
29.602,-0.373,0.926,0.051
29.612,-0.375,0.926,0.053
29.622,-0.377,0.926,0.053
29.632,-0.373,0.928,0.047
29.641,-0.377,0.924,0.053
29.651,-0.375,0.928,0.053
29.661,-0.377,0.926,0.053
29.671,-0.375,0.928,0.055
29.681,-0.373,0.928,0.049
29.691,-0.373,0.932,0.053
29.701,-0.373,0.928,0.053
29.711,-0.377,0.928,0.053
29.721,-0.381,0.924,0.053
29.731,-0.381,0.922,0.051
29.741,-0.381,0.920,0.051
29.751,-0.381,0.920,0.051
29.761,-0.381,0.918,0.049
29.771,-0.383,0.920,0.053
29.781,-0.381,0.926,0.051
29.790,-0.381,0.926,0.049
29.800,-0.377,0.924,0.051
29.810,-0.381,0.924,0.049
29.820,-0.383,0.922,0.053
29.830,-0.383,0.922,0.051
29.840,-0.387,0.922,0.051
29.850,-0.383,0.922,0.051
29.860,-0.385,0.922,0.053
29.870,-0.385,0.924,0.051
29.880,-0.387,0.924,0.053
29.890,-0.387,0.924,0.053
29.900,-0.381,0.924,0.053
29.910,-0.381,0.924,0.053
29.920,-0.385,0.924,0.053
29.930,-0.385,0.924,0.055
29.939,-0.385,0.924,0.055
29.949,-0.383,0.924,0.053
29.959,-0.385,0.924,0.057
29.969,-0.383,0.924,0.051
29.979,-0.385,0.926,0.057
29.989,-0.385,0.926,0.053
29.999,-0.385,0.926,0.053
30.009,-0.385,0.926,0.057
30.019,-0.385,0.924,0.057
30.029,-0.383,0.924,0.057
30.039,-0.383,0.922,0.057
30.049,-0.385,0.924,0.053
30.059,-0.381,0.922,0.055
30.069,-0.383,0.920,0.055
30.079,-0.379,0.924,0.055
30.088,-0.379,0.926,0.059
30.098,-0.377,0.920,0.059
30.108,-0.379,0.926,0.059
30.118,-0.377,0.926,0.059
30.128,-0.381,0.924,0.059
30.138,-0.381,0.924,0.059
30.148,-0.383,0.924,0.057
30.158,-0.383,0.926,0.059
30.168,-0.381,0.928,0.061
30.178,-0.381,0.928,0.059
30.188,-0.383,0.924,0.059
30.198,-0.383,0.926,0.057
30.208,-0.383,0.928,0.061
30.218,-0.381,0.924,0.057
30.228,-0.383,0.922,0.059
30.237,-0.379,0.922,0.059
30.247,-0.381,0.924,0.055
30.257,-0.379,0.926,0.061
30.267,-0.381,0.928,0.061
30.277,-0.381,0.926,0.059
30.287,-0.383,0.926,0.062
30.297,-0.383,0.926,0.057
30.307,-0.383,0.926,0.061
30.317,-0.383,0.926,0.059
30.327,-0.385,0.926,0.057
30.337,-0.379,0.924,0.059
30.347,-0.381,0.926,0.059
30.357,-0.385,0.924,0.061
30.367,-0.383,0.922,0.057
30.377,-0.387,0.924,0.062
30.386,-0.389,0.922,0.062
30.396,-0.387,0.924,0.062
30.406,-0.387,0.918,0.059
30.416,-0.387,0.918,0.061
30.426,-0.387,0.924,0.061
30.436,-0.391,0.924,0.059
30.446,-0.389,0.922,0.057
30.456,-0.389,0.926,0.061
30.466,-0.389,0.928,0.061
30.476,-0.395,0.924,0.059
30.486,-0.395,0.924,0.061
30.496,-0.395,0.916,0.061
30.506,-0.402,0.912,0.057
30.516,-0.404,0.916,0.061
30.526,-0.406,0.916,0.059
30.535,-0.402,0.918,0.061
30.545,-0.400,0.922,0.062
30.555,-0.398,0.924,0.064
30.565,-0.391,0.922,0.066
30.575,-0.387,0.918,0.066
30.585,-0.387,0.912,0.066
30.595,-0.385,0.910,0.061
30.605,-0.383,0.902,0.059
30.615,-0.385,0.896,0.059
30.625,-0.391,0.891,0.055
30.635,-0.393,0.895,0.055
30.645,-0.393,0.895,0.057
30.655,-0.395,0.902,0.057
30.665,-0.395,0.910,0.059
30.675,-0.395,0.910,0.059
30.684,-0.393,0.912,0.057
30.694,-0.391,0.912,0.059
30.704,-0.391,0.910,0.057
30.714,-0.389,0.908,0.059
30.724,-0.389,0.920,0.057
30.734,-0.383,0.918,0.057
30.744,-0.383,0.916,0.057
30.754,-0.385,0.918,0.061
30.764,-0.389,0.918,0.059
30.774,-0.381,0.916,0.059
30.784,-0.381,0.922,0.059
30.794,-0.379,0.928,0.061
30.804,-0.385,0.926,0.061
30.814,-0.383,0.924,0.061
30.824,-0.389,0.924,0.055
30.833,-0.387,0.912,0.057
30.843,-0.379,0.918,0.057
30.853,-0.383,0.926,0.057
30.863,-0.379,0.936,0.057
30.873,-0.375,0.936,0.057
30.883,-0.373,0.934,0.055
30.893,-0.377,0.932,0.053
30.903,-0.379,0.934,0.053
30.913,-0.381,0.932,0.051
30.923,-0.383,0.922,0.053
30.933,-0.383,0.924,0.053
30.943,-0.385,0.926,0.055
30.953,-0.381,0.932,0.061
30.963,-0.385,0.926,0.061
30.973,-0.385,0.924,0.061
30.982,-0.383,0.920,0.061
30.992,-0.379,0.918,0.061
31.002,-0.377,0.912,0.057
31.012,-0.371,0.904,0.051
31.022,-0.369,0.902,0.049
31.032,-0.371,0.902,0.047
31.042,-0.375,0.908,0.047
31.052,-0.375,0.912,0.049
31.062,-0.381,0.922,0.049
31.072,-0.391,0.926,0.049
31.082,-0.396,0.930,0.047
31.092,-0.396,0.926,0.045
31.102,-0.395,0.924,0.043
31.112,-0.393,0.926,0.043
31.122,-0.391,0.924,0.041
31.131,-0.389,0.932,0.041
31.141,-0.381,0.930,0.043
31.151,-0.377,0.938,0.041
31.161,-0.371,0.938,0.041
31.171,-0.365,0.939,0.045
31.181,-0.363,0.936,0.043
31.191,-0.369,0.930,0.041
31.201,-0.371,0.934,0.043
31.211,-0.369,0.930,0.041
31.221,-0.369,0.932,0.043
31.231,-0.367,0.926,0.043
31.241,-0.361,0.910,0.045
31.251,-0.361,0.904,0.043
31.261,-0.361,0.906,0.049
31.271,-0.365,0.916,0.049
31.280,-0.375,0.922,0.043
31.290,-0.383,0.922,0.047
31.300,-0.389,0.912,0.035
31.310,-0.393,0.920,0.039
31.320,-0.396,0.922,0.041
31.330,-0.398,0.914,0.039
31.340,-0.398,0.916,0.043
31.350,-0.395,0.916,0.039
31.360,-0.398,0.922,0.043
31.370,-0.400,0.936,0.041
31.380,-0.402,0.943,0.047
31.390,-0.410,0.951,0.043
31.400,-0.416,0.945,0.047
31.410,-0.416,0.939,0.051
31.420,-0.418,0.932,0.051
31.429,-0.414,0.934,0.053
31.439,-0.408,0.928,0.053
31.449,-0.410,0.930,0.057
31.459,-0.412,0.936,0.051
31.469,-0.410,0.936,0.051
31.479,-0.416,0.949,0.049
31.489,-0.418,0.957,0.053
31.499,-0.416,0.967,0.051
31.509,-0.408,0.971,0.051
31.519,-0.402,0.971,0.053
31.529,-0.395,0.979,0.055
31.539,-0.389,0.967,0.055
31.549,-0.375,0.957,0.051
31.559,-0.371,0.955,0.051
31.569,-0.367,0.951,0.051
31.578,-0.361,0.947,0.051
31.588,-0.357,0.953,0.053
31.598,-0.357,0.967,0.055
31.608,-0.357,0.973,0.059
31.618,-0.352,0.965,0.057
31.628,-0.338,0.955,0.059
31.638,-0.332,0.949,0.061
31.648,-0.326,0.936,0.057
31.658,-0.320,0.930,0.059
31.668,-0.314,0.932,0.061
31.678,-0.318,0.939,0.059
31.688,-0.312,0.934,0.061
31.698,-0.316,0.936,0.061
31.708,-0.314,0.932,0.061
31.718,-0.309,0.922,0.062
31.727,-0.307,0.920,0.062
31.737,-0.305,0.916,0.062
31.747,-0.295,0.910,0.062
31.757,-0.287,0.910,0.062
31.767,-0.283,0.910,0.066
31.777,-0.279,0.914,0.061
31.787,-0.279,0.912,0.057
31.797,-0.283,0.916,0.055
31.807,-0.285,0.916,0.051
31.817,-0.283,0.912,0.045
31.827,-0.281,0.914,0.045
31.837,-0.281,0.914,0.039
31.847,-0.279,0.922,0.041
31.857,-0.279,0.938,0.037
31.867,-0.279,0.947,0.039
31.876,-0.275,0.951,0.037
31.886,-0.273,0.967,0.045
31.896,-0.271,0.971,0.043
31.906,-0.273,0.971,0.043
31.916,-0.271,0.967,0.037
31.926,-0.275,0.971,0.043
31.936,-0.277,0.975,0.045
31.946,-0.275,0.973,0.043
31.956,-0.281,0.967,0.045
31.966,-0.279,0.967,0.055
31.976,-0.281,0.963,0.055
31.986,-0.275,0.969,0.062
31.996,-0.275,0.965,0.061
32.006,-0.275,0.963,0.057
32.016,-0.277,0.955,0.059
32.025,-0.281,0.953,0.057
32.035,-0.283,0.947,0.051
32.045,-0.289,0.959,0.053
32.055,-0.299,0.961,0.051
32.065,-0.305,0.961,0.053
32.075,-0.309,0.963,0.053
32.085,-0.312,0.957,0.051
32.095,-0.314,0.957,0.055
32.105,-0.314,0.959,0.055
32.115,-0.316,0.961,0.053
32.125,-0.314,0.949,0.049
32.135,-0.312,0.947,0.045
32.145,-0.312,0.945,0.043
32.155,-0.311,0.945,0.041
32.165,-0.316,0.939,0.041
32.174,-0.318,0.936,0.043
32.184,-0.320,0.938,0.041
32.194,-0.320,0.945,0.041
32.204,-0.322,0.941,0.039
32.214,-0.322,0.939,0.039
32.224,-0.322,0.941,0.039
32.234,-0.320,0.934,0.037
32.244,-0.318,0.932,0.039
32.254,-0.320,0.932,0.037
32.264,-0.320,0.934,0.035
32.274,-0.322,0.938,0.037
32.284,-0.322,0.949,0.041
32.294,-0.324,0.949,0.039
32.304,-0.320,0.943,0.043
32.314,-0.316,0.945,0.041
32.323,-0.318,0.941,0.045
32.333,-0.318,0.943,0.037
32.343,-0.322,0.951,0.041
32.353,-0.324,0.957,0.039
32.363,-0.324,0.961,0.043
32.373,-0.322,0.955,0.045
32.383,-0.324,0.951,0.043
32.393,-0.322,0.949,0.047
32.403,-0.320,0.936,0.045
32.413,-0.324,0.938,0.047
32.423,-0.322,0.945,0.053
32.433,-0.322,0.943,0.055
32.443,-0.324,0.939,0.055
32.453,-0.326,0.932,0.049
32.463,-0.322,0.932,0.055
32.472,-0.324,0.930,0.055
32.482,-0.322,0.928,0.057
32.492,-0.316,0.922,0.061
32.502,-0.316,0.922,0.061
32.512,-0.316,0.930,0.061
32.522,-0.312,0.932,0.062
32.532,-0.309,0.934,0.064
32.542,-0.311,0.938,0.064
32.552,-0.311,0.936,0.061
32.562,-0.312,0.939,0.064
32.572,-0.311,0.938,0.072
32.582,-0.305,0.932,0.066
32.592,-0.307,0.934,0.068
32.602,-0.309,0.941,0.066
32.612,-0.303,0.943,0.064
32.621,-0.305,0.945,0.066
32.631,-0.303,0.955,0.072
32.641,-0.299,0.947,0.072
32.651,-0.297,0.943,0.074
32.661,-0.297,0.947,0.070
32.671,-0.295,0.943,0.074
32.681,-0.295,0.945,0.074
32.691,-0.295,0.941,0.078
32.701,-0.293,0.951,0.078
32.711,-0.289,0.951,0.082
32.721,-0.289,0.953,0.082
32.731,-0.295,0.957,0.082
32.741,-0.299,0.957,0.088
32.751,-0.303,0.953,0.078
32.761,-0.311,0.951,0.080
32.770,-0.314,0.953,0.084
32.780,-0.316,0.955,0.090
32.790,-0.318,0.951,0.088
32.800,-0.316,0.943,0.090
32.810,-0.309,0.949,0.090
32.820,-0.307,0.951,0.090
32.830,-0.311,0.961,0.094
32.840,-0.309,0.961,0.096
32.850,-0.307,0.959,0.096
32.860,-0.312,0.959,0.094
32.870,-0.318,0.957,0.092
32.880,-0.320,0.957,0.092
32.890,-0.320,0.957,0.096
32.900,-0.322,0.955,0.094
32.910,-0.324,0.949,0.090
32.919,-0.324,0.943,0.088
32.929,-0.326,0.939,0.086
32.939,-0.322,0.930,0.084
32.949,-0.328,0.936,0.088
32.959,-0.332,0.936,0.092
32.969,-0.334,0.936,0.092
32.979,-0.338,0.938,0.092
32.989,-0.342,0.938,0.086
32.999,-0.344,0.936,0.086
33.009,-0.346,0.943,0.088
33.019,-0.348,0.943,0.088
33.029,-0.344,0.936,0.082
33.039,-0.344,0.936,0.082
33.049,-0.344,0.936,0.084
33.059,-0.344,0.938,0.084
33.068,-0.346,0.932,0.084
33.078,-0.350,0.932,0.082
33.088,-0.350,0.930,0.080
33.098,-0.350,0.926,0.078
33.108,-0.355,0.928,0.076
33.118,-0.352,0.926,0.080
33.128,-0.348,0.922,0.074
33.138,-0.346,0.934,0.070
33.148,-0.348,0.932,0.074
33.158,-0.342,0.939,0.074
33.168,-0.348,0.941,0.070
33.178,-0.344,0.943,0.072
33.188,-0.342,0.932,0.068
33.198,-0.338,0.934,0.070
33.208,-0.340,0.941,0.070
33.217,-0.338,0.945,0.068
33.227,-0.334,0.943,0.072
33.237,-0.330,0.943,0.064
33.247,-0.330,0.941,0.066
33.257,-0.332,0.938,0.062
33.267,-0.334,0.941,0.066
33.277,-0.332,0.945,0.066
33.287,-0.338,0.939,0.062
33.297,-0.338,0.926,0.064
33.307,-0.338,0.928,0.066
33.317,-0.346,0.930,0.070
33.327,-0.346,0.936,0.064
33.337,-0.348,0.930,0.064
33.347,-0.346,0.932,0.066
33.357,-0.344,0.930,0.064
33.366,-0.348,0.938,0.064
33.376,-0.340,0.945,0.059
33.386,-0.340,0.928,0.059
33.396,-0.344,0.934,0.055
33.406,-0.352,0.936,0.055
33.416,-0.348,0.938,0.059
33.426,-0.354,0.938,0.057
33.436,-0.352,0.932,0.055
33.446,-0.352,0.943,0.059
33.456,-0.352,0.947,0.062
33.466,-0.354,0.957,0.070
33.476,-0.348,0.957,0.068
33.486,-0.346,0.949,0.066
33.496,-0.352,0.943,0.062
33.506,-0.357,0.924,0.061
33.515,-0.355,0.916,0.053
33.525,-0.361,0.922,0.061
33.535,-0.361,0.912,0.057
33.545,-0.357,0.920,0.057
33.555,-0.359,0.936,0.064
33.565,-0.355,0.941,0.061
33.575,-0.350,0.938,0.062
33.585,-0.350,0.920,0.055
33.595,-0.348,0.926,0.057
33.605,-0.350,0.922,0.059
33.615,-0.352,0.934,0.061
33.625,-0.350,0.939,0.057
33.635,-0.342,0.945,0.055
33.645,-0.338,0.943,0.057
33.655,-0.344,0.945,0.055
33.664,-0.344,0.941,0.053
33.674,-0.342,0.936,0.051
33.684,-0.342,0.943,0.053
33.694,-0.340,0.930,0.049
33.704,-0.334,0.943,0.053
33.714,-0.340,0.943,0.059
33.724,-0.336,0.939,0.055
33.734,-0.338,0.939,0.059
33.744,-0.340,0.941,0.051
33.754,-0.338,0.938,0.053
33.764,-0.342,0.928,0.049
33.774,-0.344,0.930,0.053
33.784,-0.340,0.945,0.051
33.794,-0.342,0.953,0.057
33.804,-0.344,0.957,0.055
33.813,-0.340,0.949,0.055
33.823,-0.340,0.953,0.055
33.833,-0.336,0.943,0.051
33.843,-0.336,0.934,0.055
33.853,-0.338,0.936,0.053
33.863,-0.344,0.941,0.055
33.873,-0.338,0.938,0.047
33.883,-0.338,0.936,0.051
33.893,-0.340,0.941,0.055
33.903,-0.340,0.938,0.055
33.913,-0.338,0.926,0.049
33.923,-0.340,0.934,0.047
33.933,-0.346,0.939,0.051
33.943,-0.350,0.936,0.053
33.953,-0.350,0.938,0.051
33.962,-0.348,0.930,0.047
33.972,-0.348,0.936,0.051
33.982,-0.346,0.934,0.047
33.992,-0.338,0.938,0.053
34.002,-0.338,0.934,0.051
34.012,-0.342,0.930,0.051
34.022,-0.340,0.924,0.045
34.032,-0.334,0.926,0.043
34.042,-0.330,0.936,0.047
34.052,-0.336,0.941,0.047
34.062,-0.332,0.943,0.045
34.072,-0.336,0.945,0.045
34.082,-0.336,0.945,0.045
34.092,-0.336,0.941,0.043
34.102,-0.340,0.947,0.045
34.111,-0.338,0.943,0.045
34.121,-0.340,0.943,0.045
34.131,-0.334,0.947,0.045
34.141,-0.338,0.945,0.047
34.151,-0.342,0.941,0.049
34.161,-0.342,0.938,0.047
34.171,-0.342,0.941,0.047
34.181,-0.336,0.939,0.047
34.191,-0.338,0.939,0.047
34.201,-0.340,0.941,0.049
34.211,-0.340,0.934,0.049
34.221,-0.340,0.936,0.047
34.231,-0.338,0.939,0.049
34.241,-0.338,0.930,0.049
34.251,-0.338,0.936,0.051
34.260,-0.334,0.938,0.045
34.270,-0.338,0.936,0.049
34.280,-0.336,0.939,0.053
34.290,-0.336,0.936,0.047
34.300,-0.338,0.938,0.049
34.310,-0.340,0.936,0.055
34.320,-0.340,0.936,0.051
34.330,-0.342,0.938,0.047
34.340,-0.344,0.936,0.051
34.350,-0.344,0.936,0.049
34.360,-0.346,0.932,0.047
34.370,-0.346,0.932,0.049
34.380,-0.350,0.936,0.047
34.390,-0.346,0.936,0.051
34.400,-0.348,0.939,0.049
34.409,-0.350,0.939,0.055
34.419,-0.346,0.939,0.049
34.429,-0.348,0.939,0.049
34.439,-0.344,0.941,0.045
34.449,-0.346,0.939,0.049
34.459,-0.350,0.943,0.049
34.469,-0.348,0.943,0.053
34.479,-0.348,0.943,0.051
34.489,-0.352,0.939,0.049
34.499,-0.350,0.941,0.053
34.509,-0.350,0.939,0.051
34.519,-0.352,0.936,0.051
34.529,-0.350,0.934,0.051
34.539,-0.344,0.932,0.051
34.549,-0.344,0.930,0.049
34.558,-0.346,0.934,0.047
34.568,-0.350,0.936,0.049
34.578,-0.352,0.936,0.049
34.588,-0.346,0.939,0.051
34.598,-0.344,0.941,0.049
34.608,-0.344,0.943,0.051
34.618,-0.346,0.943,0.053
34.628,-0.344,0.939,0.051
34.638,-0.340,0.936,0.051
34.648,-0.344,0.932,0.051
34.658,-0.344,0.930,0.049
34.668,-0.348,0.932,0.049
34.678,-0.350,0.932,0.055
34.688,-0.354,0.932,0.049
34.698,-0.352,0.932,0.049
34.707,-0.355,0.932,0.049
34.717,-0.357,0.930,0.049
34.727,-0.355,0.928,0.051
34.737,-0.355,0.934,0.047
34.747,-0.352,0.936,0.045
34.757,-0.355,0.932,0.047
34.767,-0.355,0.936,0.049
34.777,-0.357,0.930,0.045
34.787,-0.359,0.932,0.045
34.797,-0.359,0.930,0.045
34.807,-0.361,0.934,0.043
34.817,-0.363,0.934,0.045
34.827,-0.361,0.932,0.049
34.837,-0.359,0.934,0.047
34.847,-0.359,0.936,0.047
34.856,-0.361,0.932,0.047
34.866,-0.357,0.924,0.051
34.876,-0.355,0.930,0.049
34.886,-0.355,0.932,0.045
34.896,-0.354,0.938,0.045
34.906,-0.355,0.938,0.049
34.916,-0.354,0.936,0.051
34.926,-0.352,0.932,0.047
34.936,-0.348,0.932,0.049
34.946,-0.350,0.934,0.041
34.956,-0.348,0.936,0.043
34.966,-0.348,0.939,0.043
34.976,-0.344,0.941,0.045
34.986,-0.348,0.943,0.045
34.996,-0.350,0.943,0.047
35.005,-0.346,0.938,0.047
35.015,-0.346,0.938,0.043
35.025,-0.342,0.936,0.043
35.035,-0.346,0.938,0.043
35.045,-0.346,0.936,0.043
35.055,-0.348,0.936,0.041
35.065,-0.348,0.936,0.043
35.075,-0.350,0.934,0.041
35.085,-0.352,0.939,0.041
35.095,-0.352,0.932,0.039
35.105,-0.350,0.934,0.043
35.115,-0.352,0.936,0.041
35.125,-0.354,0.934,0.045
35.135,-0.355,0.932,0.043
35.145,-0.355,0.930,0.045
35.154,-0.361,0.932,0.039
35.164,-0.357,0.932,0.041
35.174,-0.359,0.938,0.043
35.184,-0.359,0.934,0.045
35.194,-0.363,0.936,0.041
35.204,-0.355,0.934,0.045
35.214,-0.355,0.939,0.049
35.224,-0.352,0.936,0.049
35.234,-0.354,0.934,0.041
35.244,-0.348,0.932,0.041
35.254,-0.354,0.936,0.049
35.264,-0.357,0.941,0.047
35.274,-0.357,0.936,0.049
35.284,-0.361,0.939,0.053
35.294,-0.363,0.939,0.049
35.303,-0.363,0.934,0.049
35.313,-0.357,0.930,0.053
35.323,-0.359,0.928,0.051
35.333,-0.359,0.930,0.049
35.343,-0.361,0.924,0.049
35.353,-0.363,0.928,0.049
35.363,-0.359,0.924,0.049
35.373,-0.357,0.928,0.049
35.383,-0.359,0.932,0.053
35.393,-0.357,0.936,0.053
35.403,-0.357,0.938,0.051
35.413,-0.354,0.938,0.051
35.423,-0.354,0.938,0.051
35.433,-0.352,0.934,0.051
35.443,-0.350,0.938,0.055
35.452,-0.348,0.936,0.053
35.462,-0.348,0.930,0.051
35.472,-0.350,0.926,0.053
35.482,-0.354,0.928,0.053
35.492,-0.352,0.936,0.055
35.502,-0.355,0.939,0.055
35.512,-0.352,0.938,0.057
35.522,-0.354,0.938,0.059
35.532,-0.352,0.938,0.059
35.542,-0.354,0.939,0.059
35.552,-0.352,0.936,0.059
35.562,-0.354,0.936,0.057
35.572,-0.354,0.930,0.057
35.582,-0.348,0.930,0.055
35.592,-0.346,0.934,0.061
35.601,-0.350,0.936,0.062
35.611,-0.350,0.932,0.062
35.621,-0.352,0.936,0.062
35.631,-0.348,0.934,0.061
35.641,-0.350,0.936,0.061
35.651,-0.350,0.941,0.059
35.661,-0.348,0.941,0.062
35.671,-0.352,0.943,0.061
35.681,-0.350,0.941,0.059
35.691,-0.350,0.939,0.062
35.701,-0.344,0.939,0.061
35.711,-0.346,0.939,0.061
35.721,-0.344,0.936,0.059
35.731,-0.342,0.936,0.061
35.741,-0.346,0.930,0.062
35.750,-0.348,0.932,0.064
35.760,-0.346,0.934,0.061
35.770,-0.346,0.930,0.062
35.780,-0.348,0.934,0.061
35.790,-0.354,0.938,0.064
35.800,-0.348,0.941,0.057
35.810,-0.344,0.930,0.064
35.820,-0.354,0.941,0.064
35.830,-0.350,0.938,0.064
35.840,-0.348,0.938,0.061
35.850,-0.350,0.932,0.061
35.860,-0.354,0.932,0.062
35.870,-0.352,0.930,0.066
35.880,-0.352,0.930,0.061
35.890,-0.352,0.934,0.059
35.899,-0.355,0.938,0.061
35.909,-0.352,0.938,0.062
35.919,-0.348,0.941,0.059
35.929,-0.348,0.938,0.061
35.939,-0.350,0.936,0.059
35.949,-0.346,0.936,0.059
35.959,-0.350,0.934,0.061
35.969,-0.346,0.934,0.055
35.979,-0.348,0.932,0.062
35.989,-0.354,0.934,0.059
35.999,-0.354,0.936,0.061
36.009,-0.354,0.936,0.059
36.019,-0.355,0.938,0.057
36.029,-0.355,0.932,0.057
36.039,-0.352,0.930,0.061
36.048,-0.354,0.934,0.061
36.058,-0.348,0.938,0.059
36.068,-0.350,0.934,0.057
36.078,-0.350,0.934,0.057
36.088,-0.350,0.939,0.053
36.098,-0.352,0.939,0.057
36.108,-0.352,0.938,0.057
36.118,-0.350,0.939,0.059
36.128,-0.350,0.936,0.059
36.138,-0.352,0.936,0.057
36.148,-0.352,0.934,0.057
36.158,-0.352,0.932,0.055
36.168,-0.354,0.930,0.059
36.178,-0.354,0.932,0.055
36.188,-0.354,0.936,0.057
36.197,-0.354,0.934,0.053
36.207,-0.354,0.934,0.053
36.217,-0.354,0.934,0.055
36.227,-0.352,0.936,0.055
36.237,-0.354,0.936,0.053
36.247,-0.352,0.934,0.051
36.257,-0.350,0.936,0.053
36.267,-0.350,0.936,0.051
36.277,-0.346,0.936,0.053
36.287,-0.350,0.938,0.053
36.297,-0.350,0.934,0.055
36.307,-0.350,0.936,0.055
36.317,-0.350,0.938,0.057
36.327,-0.350,0.938,0.055
36.337,-0.348,0.938,0.057
36.346,-0.350,0.938,0.055
36.356,-0.348,0.934,0.057
36.366,-0.350,0.934,0.057
36.376,-0.348,0.932,0.057
36.386,-0.352,0.934,0.057
36.396,-0.354,0.936,0.055
36.406,-0.352,0.938,0.057
36.416,-0.354,0.936,0.057
36.426,-0.350,0.941,0.053
36.436,-0.352,0.941,0.057
36.446,-0.350,0.938,0.057
36.456,-0.348,0.939,0.059
36.466,-0.350,0.938,0.059
36.476,-0.348,0.939,0.057
36.486,-0.348,0.936,0.053
36.495,-0.348,0.936,0.057
36.505,-0.348,0.934,0.057
36.515,-0.354,0.941,0.055
36.525,-0.355,0.936,0.055
36.535,-0.352,0.938,0.061
36.545,-0.357,0.936,0.055
36.555,-0.354,0.936,0.059
36.565,-0.352,0.936,0.064
36.575,-0.352,0.934,0.057
36.585,-0.350,0.934,0.059
36.595,-0.352,0.934,0.055
36.605,-0.354,0.936,0.057
36.615,-0.346,0.938,0.061
36.625,-0.348,0.938,0.062
36.635,-0.348,0.939,0.062
36.644,-0.346,0.932,0.059
36.654,-0.344,0.932,0.064
36.664,-0.344,0.934,0.061
36.674,-0.344,0.934,0.062
36.684,-0.344,0.934,0.062
36.694,-0.348,0.938,0.061
36.704,-0.348,0.938,0.061
36.714,-0.352,0.938,0.064
36.724,-0.350,0.936,0.059
36.734,-0.350,0.936,0.061
36.744,-0.350,0.934,0.061
36.754,-0.346,0.932,0.059
36.764,-0.346,0.932,0.061
36.774,-0.344,0.928,0.059
36.784,-0.346,0.930,0.057
36.793,-0.346,0.936,0.061
36.803,-0.348,0.938,0.057
36.813,-0.348,0.939,0.059
36.823,-0.348,0.941,0.061
36.833,-0.346,0.939,0.057
36.843,-0.346,0.939,0.062
36.853,-0.348,0.941,0.061
36.863,-0.344,0.938,0.061
36.873,-0.342,0.938,0.059
36.883,-0.340,0.936,0.057
36.893,-0.338,0.938,0.057
36.903,-0.346,0.938,0.059
36.913,-0.346,0.941,0.059
36.923,-0.342,0.939,0.057
36.933,-0.346,0.938,0.057
36.942,-0.348,0.941,0.059
36.952,-0.348,0.936,0.062
36.962,-0.348,0.939,0.062
36.972,-0.346,0.930,0.057
36.982,-0.346,0.934,0.059
36.992,-0.350,0.930,0.059
37.002,-0.346,0.932,0.055
37.012,-0.346,0.932,0.061
37.022,-0.346,0.936,0.059
37.032,-0.348,0.938,0.059
37.042,-0.348,0.939,0.059
37.052,-0.346,0.936,0.059
37.062,-0.346,0.939,0.057
37.072,-0.350,0.939,0.059
37.082,-0.346,0.938,0.059
37.091,-0.350,0.938,0.059
37.101,-0.350,0.934,0.057
37.111,-0.350,0.936,0.059
37.121,-0.350,0.934,0.059
37.131,-0.352,0.934,0.059
37.141,-0.350,0.936,0.057
37.151,-0.348,0.936,0.057
37.161,-0.346,0.938,0.061
37.171,-0.350,0.938,0.059
37.181,-0.346,0.939,0.062
37.191,-0.346,0.936,0.062
37.201,-0.348,0.936,0.059
37.211,-0.346,0.934,0.061
37.221,-0.350,0.932,0.061
37.231,-0.348,0.928,0.057
37.240,-0.348,0.934,0.059
37.250,-0.352,0.936,0.055
37.260,-0.350,0.938,0.061
37.270,-0.354,0.938,0.061
37.280,-0.348,0.945,0.061
37.290,-0.350,0.945,0.059
37.300,-0.350,0.943,0.062
37.310,-0.346,0.939,0.059
37.320,-0.344,0.941,0.057
37.330,-0.346,0.936,0.057
37.340,-0.340,0.936,0.059
37.350,-0.340,0.936,0.061
37.360,-0.340,0.936,0.057
37.370,-0.342,0.936,0.062
37.380,-0.342,0.936,0.061
37.389,-0.344,0.938,0.061
37.399,-0.350,0.938,0.059
37.409,-0.348,0.941,0.061
37.419,-0.350,0.934,0.057
37.429,-0.354,0.934,0.061
37.439,-0.350,0.934,0.059
37.449,-0.348,0.936,0.059
37.459,-0.350,0.938,0.062
37.469,-0.344,0.939,0.062
37.479,-0.348,0.938,0.059
37.489,-0.348,0.939,0.059
37.499,-0.346,0.936,0.059
37.509,-0.346,0.936,0.055
37.519,-0.348,0.932,0.055
37.529,-0.350,0.932,0.057
37.538,-0.350,0.936,0.057
37.548,-0.348,0.934,0.059
37.558,-0.346,0.936,0.061
37.568,-0.346,0.930,0.057
37.578,-0.348,0.934,0.059
37.588,-0.348,0.934,0.055
37.598,-0.350,0.934,0.061
37.608,-0.350,0.932,0.057
37.618,-0.352,0.938,0.057
37.628,-0.354,0.941,0.059
37.638,-0.354,0.941,0.061
37.648,-0.352,0.936,0.061
37.658,-0.348,0.938,0.062
37.668,-0.346,0.936,0.061
37.678,-0.342,0.936,0.059
37.687,-0.344,0.936,0.059
37.697,-0.346,0.936,0.055
37.707,-0.348,0.938,0.061
37.717,-0.348,0.941,0.057
37.727,-0.348,0.941,0.061
37.737,-0.346,0.941,0.064
37.747,-0.348,0.943,0.062
37.757,-0.350,0.939,0.062
37.767,-0.350,0.936,0.061
37.777,-0.352,0.930,0.059
37.787,-0.350,0.924,0.061
37.797,-0.350,0.928,0.057
37.807,-0.350,0.926,0.057
37.817,-0.350,0.932,0.057
37.827,-0.352,0.932,0.059
37.836,-0.352,0.938,0.061
37.846,-0.354,0.939,0.062
37.856,-0.352,0.939,0.064
37.866,-0.350,0.936,0.061
37.876,-0.352,0.936,0.059
37.886,-0.350,0.936,0.059
37.896,-0.350,0.941,0.062
37.906,-0.350,0.938,0.059
37.916,-0.350,0.938,0.064
37.926,-0.350,0.938,0.061
37.936,-0.352,0.936,0.062
37.946,-0.352,0.936,0.062
37.956,-0.354,0.934,0.066
37.966,-0.354,0.934,0.061
37.976,-0.354,0.934,0.062
37.985,-0.354,0.934,0.061
37.995,-0.354,0.938,0.064
38.005,-0.354,0.936,0.064
38.015,-0.354,0.936,0.062
38.025,-0.350,0.936,0.061
38.035,-0.346,0.934,0.062
38.045,-0.346,0.930,0.064
38.055,-0.346,0.936,0.066
38.065,-0.348,0.939,0.062
38.075,-0.348,0.939,0.064
38.085,-0.348,0.938,0.062
38.095,-0.348,0.939,0.066
38.105,-0.352,0.936,0.064
38.115,-0.352,0.934,0.064
38.125,-0.354,0.936,0.062
38.134,-0.352,0.932,0.064
38.144,-0.350,0.936,0.061
38.154,-0.348,0.934,0.062
38.164,-0.350,0.934,0.064
38.174,-0.350,0.938,0.064
38.184,-0.348,0.936,0.068
38.194,-0.350,0.934,0.064
38.204,-0.348,0.934,0.064
38.214,-0.348,0.938,0.062
38.224,-0.350,0.938,0.064
38.234,-0.352,0.939,0.062
38.244,-0.350,0.939,0.062
38.254,-0.350,0.939,0.064
38.264,-0.352,0.939,0.062
38.274,-0.350,0.936,0.064
38.283,-0.348,0.934,0.061
38.293,-0.348,0.934,0.064
38.303,-0.348,0.934,0.064
38.313,-0.348,0.934,0.064
38.323,-0.346,0.930,0.061
38.333,-0.350,0.932,0.064
38.343,-0.348,0.934,0.061
38.353,-0.346,0.936,0.066
38.363,-0.346,0.938,0.066
38.373,-0.348,0.938,0.062
38.383,-0.348,0.936,0.064
38.393,-0.350,0.936,0.064
38.403,-0.352,0.934,0.066
38.413,-0.354,0.936,0.064
38.423,-0.350,0.938,0.064
38.432,-0.352,0.938,0.064
38.442,-0.350,0.938,0.066
38.452,-0.354,0.939,0.066
38.462,-0.352,0.936,0.062
38.472,-0.352,0.936,0.062
38.482,-0.352,0.936,0.064
38.492,-0.348,0.936,0.061
38.502,-0.352,0.930,0.061
38.512,-0.348,0.930,0.064
38.522,-0.352,0.932,0.062
38.532,-0.348,0.934,0.066
38.542,-0.350,0.936,0.062
38.552,-0.350,0.938,0.062
38.562,-0.352,0.939,0.062
38.572,-0.350,0.938,0.059
38.581,-0.350,0.936,0.061
38.591,-0.350,0.938,0.061
38.601,-0.352,0.938,0.059
38.611,-0.350,0.936,0.061
38.621,-0.350,0.930,0.057
38.631,-0.350,0.936,0.057
38.641,-0.346,0.938,0.061
38.651,-0.350,0.936,0.059
38.661,-0.350,0.939,0.059
38.671,-0.350,0.938,0.059
38.681,-0.346,0.936,0.057
38.691,-0.346,0.930,0.053
38.701,-0.338,0.922,0.053
38.711,-0.330,0.914,0.057
38.721,-0.314,0.920,0.053
38.730,-0.309,0.928,0.053
38.740,-0.305,0.932,0.051
38.750,-0.305,0.928,0.055
38.760,-0.307,0.936,0.057
38.770,-0.307,0.941,0.061
38.780,-0.309,0.939,0.062
38.790,-0.311,0.947,0.066
38.800,-0.316,0.957,0.072
38.810,-0.324,0.969,0.074
38.820,-0.332,0.969,0.074
38.830,-0.338,0.971,0.076
38.840,-0.344,0.975,0.074
38.850,-0.342,0.967,0.076
38.860,-0.348,0.965,0.072
38.870,-0.354,0.955,0.074
38.879,-0.352,0.947,0.074
38.889,-0.354,0.945,0.074
38.899,-0.357,0.943,0.076
38.909,-0.355,0.943,0.076
38.919,-0.359,0.936,0.078
38.929,-0.361,0.939,0.078
38.939,-0.359,0.934,0.074
38.949,-0.359,0.928,0.072
38.959,-0.359,0.926,0.072
38.969,-0.355,0.922,0.066
38.979,-0.352,0.912,0.066
38.989,-0.348,0.914,0.068
38.999,-0.352,0.922,0.074
39.009,-0.355,0.930,0.070
39.019,-0.359,0.930,0.070
39.028,-0.359,0.928,0.068
39.038,-0.357,0.928,0.066
39.048,-0.357,0.930,0.068
39.058,-0.355,0.934,0.066
39.068,-0.355,0.938,0.068
39.078,-0.357,0.936,0.064
39.088,-0.354,0.934,0.062
39.098,-0.355,0.928,0.064
39.108,-0.354,0.924,0.068
39.118,-0.352,0.932,0.064
39.128,-0.357,0.930,0.066
39.138,-0.354,0.926,0.066
39.148,-0.354,0.926,0.066
39.158,-0.352,0.922,0.062
39.168,-0.350,0.926,0.061
39.177,-0.342,0.920,0.055
39.187,-0.336,0.914,0.051
39.197,-0.338,0.922,0.053
39.207,-0.352,0.934,0.053
39.217,-0.365,0.947,0.049
39.227,-0.379,0.957,0.049
39.237,-0.387,0.943,0.039
39.247,-0.393,0.932,0.035
39.257,-0.387,0.930,0.041
39.267,-0.375,0.936,0.047
39.277,-0.361,0.938,0.053
39.287,-0.354,0.959,0.066
39.297,-0.344,0.963,0.072
39.307,-0.342,0.963,0.074
39.317,-0.344,0.959,0.076
39.326,-0.332,0.955,0.072
39.336,-0.328,0.951,0.068
39.346,-0.326,0.938,0.066
39.356,-0.324,0.928,0.064
39.366,-0.326,0.928,0.066
39.376,-0.340,0.932,0.072
39.386,-0.357,0.938,0.076
39.396,-0.367,0.939,0.084
39.406,-0.373,0.938,0.086
39.416,-0.375,0.934,0.084
39.426,-0.363,0.926,0.084
39.436,-0.357,0.922,0.086
39.446,-0.352,0.922,0.090
39.456,-0.342,0.922,0.088
39.466,-0.338,0.924,0.086
39.475,-0.334,0.926,0.090
39.485,-0.338,0.928,0.090
39.495,-0.346,0.932,0.088
39.505,-0.352,0.939,0.090
39.515,-0.354,0.945,0.090
39.525,-0.357,0.941,0.092
39.535,-0.361,0.936,0.092
39.545,-0.359,0.930,0.086
39.555,-0.355,0.928,0.084
39.565,-0.348,0.926,0.088
39.575,-0.350,0.930,0.092
39.585,-0.354,0.932,0.090
39.595,-0.352,0.938,0.092
39.605,-0.354,0.938,0.094
39.615,-0.357,0.941,0.090
39.624,-0.361,0.943,0.096
39.634,-0.361,0.945,0.094
39.644,-0.361,0.943,0.098
39.654,-0.363,0.936,0.096
39.664,-0.352,0.938,0.098
39.674,-0.342,0.926,0.096
39.684,-0.332,0.922,0.096
39.694,-0.330,0.924,0.090
39.704,-0.330,0.930,0.090
39.714,-0.340,0.938,0.084
39.724,-0.348,0.938,0.082
39.734,-0.355,0.939,0.080
39.744,-0.361,0.939,0.078
39.754,-0.355,0.930,0.080
39.764,-0.348,0.934,0.080
39.773,-0.340,0.926,0.082
39.783,-0.330,0.932,0.080
39.793,-0.332,0.943,0.082
39.803,-0.330,0.951,0.086
39.813,-0.332,0.957,0.084
39.823,-0.334,0.959,0.084
39.833,-0.332,0.949,0.084
39.843,-0.330,0.947,0.082
39.853,-0.330,0.945,0.082
39.863,-0.326,0.941,0.082
39.873,-0.328,0.941,0.084
39.883,-0.330,0.941,0.088
39.893,-0.332,0.941,0.086
39.903,-0.336,0.938,0.084
39.913,-0.338,0.938,0.084
39.922,-0.342,0.938,0.082
39.932,-0.350,0.938,0.082
39.942,-0.354,0.936,0.086
39.952,-0.355,0.932,0.082
39.962,-0.352,0.932,0.084
39.972,-0.348,0.934,0.086
39.982,-0.344,0.932,0.088
39.992,-0.338,0.939,0.090
40.002,-0.336,0.938,0.086
40.012,-0.334,0.941,0.084
40.022,-0.336,0.941,0.086
40.032,-0.338,0.945,0.088
40.042,-0.344,0.941,0.088
40.052,-0.348,0.941,0.086
40.062,-0.346,0.936,0.088
40.071,-0.352,0.941,0.088
40.081,-0.350,0.941,0.088
40.091,-0.352,0.941,0.088
40.101,-0.354,0.943,0.090
40.111,-0.355,0.939,0.090
40.121,-0.354,0.932,0.090
40.131,-0.350,0.928,0.084
40.141,-0.350,0.930,0.084
40.151,-0.344,0.928,0.086
40.161,-0.340,0.934,0.090
40.171,-0.344,0.934,0.084
40.181,-0.348,0.936,0.084
40.191,-0.355,0.934,0.080
40.201,-0.361,0.934,0.080
40.211,-0.363,0.934,0.078
40.220,-0.359,0.936,0.078
40.230,-0.359,0.938,0.076
40.240,-0.357,0.938,0.076
40.250,-0.355,0.934,0.078
40.260,-0.354,0.936,0.080
40.270,-0.354,0.932,0.080
40.280,-0.350,0.932,0.078
40.290,-0.346,0.930,0.078
40.300,-0.348,0.934,0.074
40.310,-0.348,0.938,0.074
40.320,-0.348,0.943,0.076
40.330,-0.348,0.945,0.078
40.340,-0.350,0.947,0.076
40.350,-0.354,0.947,0.080
40.360,-0.354,0.945,0.078
40.369,-0.352,0.939,0.080
40.379,-0.350,0.932,0.082
40.389,-0.348,0.930,0.082
40.399,-0.348,0.934,0.084
40.409,-0.348,0.939,0.086
40.419,-0.350,0.945,0.086
40.429,-0.355,0.943,0.084
40.439,-0.363,0.938,0.082
40.449,-0.363,0.932,0.086
40.459,-0.363,0.932,0.084
40.469,-0.363,0.934,0.084
40.479,-0.365,0.938,0.088
40.489,-0.369,0.943,0.086
40.499,-0.369,0.949,0.090
40.509,-0.373,0.941,0.084
40.518,-0.373,0.926,0.078
40.528,-0.363,0.896,0.072
40.538,-0.338,0.871,0.072
40.548,-0.322,0.883,0.086
40.558,-0.316,0.914,0.090
40.568,-0.312,0.934,0.092
40.578,-0.320,0.953,0.096
40.588,-0.338,0.975,0.100
40.598,-0.361,0.984,0.096
40.608,-0.379,0.979,0.092
40.618,-0.385,0.951,0.088
40.628,-0.379,0.934,0.082
40.638,-0.367,0.900,0.082
40.648,-0.344,0.893,0.086
40.658,-0.332,0.914,0.088
40.667,-0.330,0.941,0.092
40.677,-0.340,0.959,0.090
40.687,-0.355,0.971,0.092
40.697,-0.367,0.951,0.080
40.707,-0.369,0.906,0.074
40.717,-0.361,0.895,0.076
40.727,-0.348,0.910,0.088
40.737,-0.338,0.928,0.092
40.747,-0.336,0.951,0.096
40.757,-0.338,0.967,0.096
40.767,-0.355,0.984,0.094
40.777,-0.369,0.971,0.090
40.787,-0.367,0.920,0.080
40.797,-0.350,0.895,0.080
40.807,-0.342,0.918,0.086
40.816,-0.332,0.930,0.090
40.826,-0.330,0.936,0.092
40.836,-0.334,0.951,0.092
40.846,-0.344,0.951,0.090
40.856,-0.354,0.949,0.090
40.866,-0.357,0.934,0.088
40.876,-0.352,0.924,0.088
40.886,-0.348,0.916,0.086
40.896,-0.336,0.916,0.088
40.906,-0.330,0.928,0.092
40.916,-0.332,0.941,0.086
40.926,-0.342,0.951,0.088
40.936,-0.348,0.965,0.088
40.946,-0.355,0.963,0.088
40.956,-0.357,0.951,0.084
40.965,-0.357,0.932,0.082
40.975,-0.348,0.912,0.080
40.985,-0.334,0.906,0.072
40.995,-0.330,0.924,0.072
41.005,-0.330,0.947,0.072
41.015,-0.336,0.951,0.072
41.025,-0.338,0.957,0.072
41.035,-0.344,0.967,0.080
41.045,-0.355,0.971,0.090
41.055,-0.354,0.965,0.092
41.065,-0.354,0.951,0.088
41.075,-0.354,0.936,0.086
41.085,-0.354,0.934,0.082
41.095,-0.354,0.939,0.088
41.105,-0.361,0.941,0.086
41.114,-0.369,0.941,0.084
41.124,-0.381,0.936,0.086
41.134,-0.383,0.926,0.082
41.144,-0.385,0.922,0.080
41.154,-0.387,0.918,0.078
41.164,-0.383,0.912,0.076
41.174,-0.373,0.908,0.076
41.184,-0.369,0.902,0.076
41.194,-0.357,0.906,0.074
41.204,-0.354,0.910,0.078
41.214,-0.350,0.912,0.078
41.224,-0.350,0.928,0.074
41.234,-0.348,0.932,0.078
41.244,-0.348,0.938,0.074
41.254,-0.348,0.941,0.074
41.263,-0.355,0.945,0.070
41.273,-0.355,0.945,0.074
41.283,-0.357,0.947,0.070
41.293,-0.359,0.941,0.068
41.303,-0.359,0.938,0.064
41.313,-0.357,0.938,0.066
41.323,-0.350,0.939,0.070
41.333,-0.348,0.936,0.070
41.343,-0.344,0.939,0.070
41.353,-0.344,0.939,0.068
41.363,-0.338,0.938,0.072
41.373,-0.334,0.938,0.074
41.383,-0.336,0.941,0.070
41.393,-0.330,0.939,0.066
41.403,-0.334,0.938,0.066
41.412,-0.338,0.941,0.068
41.422,-0.338,0.938,0.068
41.432,-0.338,0.939,0.072
41.442,-0.344,0.938,0.072
41.452,-0.342,0.932,0.072
41.462,-0.342,0.926,0.072
41.472,-0.336,0.932,0.076
41.482,-0.340,0.926,0.074
41.492,-0.344,0.932,0.072
41.502,-0.346,0.932,0.072
41.512,-0.348,0.941,0.074
41.522,-0.346,0.938,0.072
41.532,-0.346,0.943,0.072
41.542,-0.350,0.938,0.078
41.552,-0.346,0.934,0.070
41.561,-0.348,0.934,0.072
41.571,-0.348,0.936,0.072
41.581,-0.346,0.938,0.072
41.591,-0.346,0.938,0.072
41.601,-0.344,0.943,0.072
41.611,-0.348,0.941,0.072
41.621,-0.346,0.939,0.070
41.631,-0.342,0.939,0.074
41.641,-0.346,0.943,0.074
41.651,-0.338,0.936,0.076
41.661,-0.342,0.936,0.066
41.671,-0.340,0.934,0.066
41.681,-0.338,0.934,0.068
41.691,-0.344,0.934,0.070
41.701,-0.346,0.941,0.068
41.710,-0.346,0.945,0.072
41.720,-0.342,0.943,0.072
41.730,-0.348,0.939,0.072
41.740,-0.346,0.936,0.074
41.750,-0.350,0.932,0.072
41.760,-0.352,0.934,0.070
41.770,-0.350,0.932,0.068
41.780,-0.352,0.930,0.070
41.790,-0.354,0.934,0.068
41.800,-0.355,0.934,0.072
41.810,-0.355,0.936,0.070
41.820,-0.357,0.941,0.070
41.830,-0.355,0.936,0.068
41.840,-0.357,0.936,0.066
41.850,-0.357,0.932,0.062
41.859,-0.357,0.932,0.062
41.869,-0.354,0.934,0.062
41.879,-0.355,0.930,0.059
41.889,-0.357,0.930,0.059
41.899,-0.357,0.930,0.059
41.909,-0.357,0.932,0.059
41.919,-0.361,0.930,0.059
41.929,-0.363,0.932,0.061
41.939,-0.363,0.936,0.059
41.949,-0.365,0.936,0.057
41.959,-0.365,0.936,0.055
41.969,-0.369,0.936,0.053
41.979,-0.365,0.936,0.055
41.989,-0.365,0.934,0.053
41.999,-0.369,0.938,0.053
42.008,-0.369,0.932,0.055
42.018,-0.365,0.932,0.053
42.028,-0.369,0.932,0.053
42.038,-0.369,0.932,0.053
42.048,-0.367,0.932,0.051
42.058,-0.363,0.936,0.055
42.068,-0.365,0.934,0.055
42.078,-0.363,0.938,0.057
42.088,-0.365,0.934,0.057
42.098,-0.365,0.930,0.053
42.108,-0.361,0.928,0.057
42.118,-0.365,0.930,0.057
42.128,-0.369,0.932,0.055
42.138,-0.369,0.932,0.053
42.148,-0.369,0.934,0.057
42.157,-0.367,0.930,0.055
42.167,-0.365,0.936,0.059
42.177,-0.371,0.936,0.059
42.187,-0.369,0.934,0.055
42.197,-0.367,0.932,0.059
42.207,-0.363,0.930,0.059
42.217,-0.365,0.928,0.059
42.227,-0.367,0.928,0.059
42.237,-0.367,0.926,0.059
42.247,-0.367,0.928,0.057
42.257,-0.371,0.928,0.059
42.267,-0.371,0.930,0.055
42.277,-0.371,0.932,0.059
42.287,-0.373,0.930,0.057
42.297,-0.373,0.932,0.057
42.306,-0.373,0.932,0.053
42.316,-0.373,0.930,0.059
42.326,-0.371,0.932,0.055
42.336,-0.369,0.932,0.059
42.346,-0.367,0.930,0.057
42.356,-0.371,0.936,0.062
42.366,-0.369,0.930,0.062
42.376,-0.369,0.930,0.061
42.386,-0.369,0.930,0.062
42.396,-0.365,0.928,0.064
42.406,-0.367,0.928,0.062
42.416,-0.365,0.926,0.062
42.426,-0.367,0.928,0.061
42.436,-0.367,0.928,0.066
42.446,-0.369,0.932,0.066
42.455,-0.367,0.934,0.066
42.465,-0.365,0.934,0.062
42.475,-0.365,0.934,0.068
42.485,-0.371,0.932,0.068
42.495,-0.369,0.932,0.064
42.505,-0.369,0.924,0.062
42.515,-0.371,0.926,0.066
42.525,-0.375,0.924,0.064
42.535,-0.373,0.926,0.064
42.545,-0.373,0.928,0.062
42.555,-0.367,0.928,0.062
42.565,-0.371,0.932,0.064
42.575,-0.369,0.932,0.062
42.585,-0.367,0.930,0.062
42.595,-0.363,0.932,0.064
42.604,-0.367,0.934,0.064
42.614,-0.367,0.930,0.062
42.624,-0.367,0.932,0.064
42.634,-0.369,0.930,0.066
42.644,-0.367,0.932,0.062
42.654,-0.367,0.932,0.062
42.664,-0.365,0.934,0.059
42.674,-0.369,0.930,0.064
42.684,-0.369,0.932,0.064
42.694,-0.367,0.932,0.064
42.704,-0.363,0.932,0.062
42.714,-0.365,0.930,0.064
42.724,-0.363,0.926,0.062
42.734,-0.365,0.932,0.066
42.744,-0.367,0.932,0.064
42.753,-0.371,0.932,0.064
42.763,-0.369,0.928,0.066
42.773,-0.371,0.928,0.062
42.783,-0.373,0.930,0.062
42.793,-0.367,0.928,0.064
42.803,-0.367,0.930,0.066
42.813,-0.365,0.930,0.064
42.823,-0.367,0.926,0.064
42.833,-0.367,0.932,0.066
42.843,-0.367,0.926,0.062
42.853,-0.367,0.930,0.064
42.863,-0.367,0.932,0.066
42.873,-0.369,0.936,0.062
42.883,-0.371,0.932,0.062
42.893,-0.373,0.932,0.061
42.902,-0.369,0.934,0.062
42.912,-0.371,0.932,0.064
42.922,-0.369,0.932,0.062
42.932,-0.369,0.928,0.064
42.942,-0.369,0.930,0.062
42.952,-0.373,0.930,0.068
42.962,-0.369,0.926,0.064
42.972,-0.377,0.930,0.064
42.982,-0.373,0.926,0.064
42.992,-0.373,0.926,0.064
43.002,-0.373,0.928,0.062
43.012,-0.373,0.930,0.066
43.022,-0.371,0.932,0.064
43.032,-0.371,0.928,0.070
43.042,-0.375,0.928,0.064
43.051,-0.375,0.924,0.062
43.061,-0.377,0.924,0.064
43.071,-0.375,0.926,0.066
43.081,-0.375,0.928,0.064
43.091,-0.375,0.928,0.062
43.101,-0.375,0.930,0.064
43.111,-0.377,0.932,0.066
43.121,-0.375,0.928,0.061
43.131,-0.375,0.928,0.068
43.141,-0.373,0.928,0.064
43.151,-0.367,0.930,0.066
43.161,-0.367,0.928,0.068
43.171,-0.369,0.928,0.064
43.181,-0.367,0.928,0.064
43.191,-0.369,0.932,0.064
43.200,-0.369,0.930,0.066
43.210,-0.369,0.934,0.068
43.220,-0.367,0.934,0.068
43.230,-0.367,0.932,0.068
43.240,-0.367,0.932,0.066
43.250,-0.365,0.930,0.068
43.260,-0.367,0.928,0.068
43.270,-0.369,0.924,0.064
43.280,-0.369,0.926,0.068
43.290,-0.371,0.928,0.062
43.300,-0.371,0.932,0.066
43.310,-0.371,0.930,0.066
43.320,-0.373,0.930,0.066
43.330,-0.367,0.930,0.066
43.340,-0.371,0.932,0.059
43.349,-0.371,0.930,0.064
43.359,-0.371,0.932,0.062
43.369,-0.367,0.926,0.064
43.379,-0.369,0.934,0.061
43.389,-0.365,0.934,0.064
43.399,-0.367,0.932,0.064
43.409,-0.367,0.934,0.066
43.419,-0.367,0.932,0.066
43.429,-0.367,0.934,0.064
43.439,-0.369,0.932,0.064
43.449,-0.369,0.930,0.064
43.459,-0.367,0.930,0.066
43.469,-0.367,0.928,0.068
43.479,-0.367,0.932,0.064
43.489,-0.369,0.928,0.064
43.498,-0.371,0.930,0.066
43.508,-0.369,0.930,0.070
43.518,-0.369,0.930,0.064
43.528,-0.371,0.930,0.064
43.538,-0.371,0.928,0.064
43.548,-0.373,0.930,0.064
43.558,-0.371,0.932,0.064
43.568,-0.369,0.930,0.066
43.578,-0.367,0.930,0.068
43.588,-0.367,0.932,0.066
43.598,-0.367,0.930,0.062
43.608,-0.367,0.928,0.064
43.618,-0.365,0.930,0.064
43.628,-0.365,0.928,0.062
43.638,-0.363,0.928,0.068
43.647,-0.367,0.934,0.064
43.657,-0.365,0.934,0.066
43.667,-0.367,0.934,0.061
43.677,-0.367,0.932,0.062
43.687,-0.369,0.934,0.064
43.697,-0.369,0.934,0.064
43.707,-0.369,0.934,0.064
43.717,-0.369,0.932,0.064
43.727,-0.365,0.932,0.064
43.737,-0.371,0.930,0.064
43.747,-0.367,0.930,0.064
43.757,-0.365,0.928,0.061
43.767,-0.367,0.928,0.066
43.777,-0.367,0.928,0.061
43.787,-0.365,0.928,0.064
43.796,-0.367,0.928,0.064
43.806,-0.365,0.932,0.064
43.816,-0.367,0.930,0.064
43.826,-0.369,0.930,0.061
43.836,-0.371,0.932,0.059
43.846,-0.369,0.928,0.064
43.856,-0.371,0.932,0.068
43.866,-0.367,0.932,0.064
43.876,-0.369,0.932,0.061
43.886,-0.367,0.934,0.061
43.896,-0.369,0.930,0.061
43.906,-0.369,0.930,0.061
43.916,-0.369,0.932,0.066
43.926,-0.369,0.932,0.066
43.936,-0.363,0.930,0.062
43.945,-0.367,0.926,0.066
43.955,-0.369,0.932,0.062
43.965,-0.369,0.928,0.062
43.975,-0.369,0.928,0.062
43.985,-0.369,0.932,0.066
43.995,-0.371,0.934,0.066
44.005,-0.369,0.932,0.062
44.015,-0.371,0.932,0.062
44.025,-0.371,0.928,0.062
44.035,-0.371,0.928,0.064
44.045,-0.373,0.926,0.062
44.055,-0.371,0.926,0.062
44.065,-0.373,0.928,0.059
44.075,-0.373,0.932,0.064
44.085,-0.369,0.928,0.062
44.094,-0.369,0.936,0.062
44.104,-0.371,0.932,0.061
44.114,-0.371,0.932,0.062
44.124,-0.371,0.930,0.061
44.134,-0.373,0.926,0.059
44.144,-0.371,0.930,0.062
44.154,-0.369,0.928,0.061
44.164,-0.371,0.930,0.061
44.174,-0.371,0.928,0.062
44.184,-0.369,0.926,0.061
44.194,-0.371,0.930,0.062
44.204,-0.367,0.926,0.062
44.214,-0.369,0.930,0.062
44.224,-0.369,0.932,0.062
44.234,-0.367,0.932,0.064
44.243,-0.369,0.930,0.066
44.253,-0.371,0.930,0.062
44.263,-0.369,0.928,0.059
44.273,-0.367,0.932,0.064
44.283,-0.369,0.928,0.062
44.293,-0.369,0.930,0.064
44.303,-0.367,0.930,0.064
44.313,-0.369,0.934,0.062
44.323,-0.369,0.928,0.062
44.333,-0.367,0.928,0.062
44.343,-0.369,0.930,0.061
44.353,-0.371,0.928,0.062
44.363,-0.369,0.930,0.061
44.373,-0.369,0.926,0.059
44.383,-0.369,0.934,0.062
44.392,-0.367,0.930,0.061
44.402,-0.367,0.930,0.061
44.412,-0.365,0.932,0.062
44.422,-0.365,0.932,0.062
44.432,-0.365,0.928,0.061
44.442,-0.365,0.930,0.062
44.452,-0.361,0.934,0.062
44.462,-0.367,0.932,0.062
44.472,-0.369,0.930,0.059
44.482,-0.371,0.934,0.061
44.492,-0.371,0.936,0.061
44.502,-0.371,0.934,0.062
44.512,-0.367,0.934,0.062
44.522,-0.369,0.932,0.064
44.532,-0.371,0.934,0.062
44.541,-0.365,0.930,0.068
44.551,-0.365,0.932,0.064
44.561,-0.365,0.926,0.062
44.571,-0.365,0.926,0.064
44.581,-0.367,0.928,0.062
44.591,-0.365,0.928,0.062
44.601,-0.363,0.928,0.070
44.611,-0.365,0.930,0.062
44.621,-0.369,0.928,0.061
44.631,-0.369,0.932,0.062
44.641,-0.371,0.926,0.061
44.651,-0.371,0.930,0.062
44.661,-0.373,0.930,0.062
44.671,-0.375,0.928,0.059
44.681,-0.369,0.932,0.059
44.690,-0.373,0.936,0.059
44.700,-0.373,0.932,0.062
44.710,-0.371,0.932,0.062
44.720,-0.373,0.928,0.066
44.730,-0.367,0.932,0.066
44.740,-0.365,0.926,0.062
44.750,-0.367,0.926,0.061
44.760,-0.371,0.926,0.061
44.770,-0.371,0.930,0.064
44.780,-0.371,0.934,0.062
44.790,-0.371,0.932,0.064
44.800,-0.373,0.936,0.064
44.810,-0.369,0.932,0.064
44.820,-0.369,0.930,0.061
44.830,-0.369,0.930,0.062
44.839,-0.371,0.930,0.062
44.849,-0.373,0.928,0.057
44.859,-0.373,0.928,0.062
44.869,-0.369,0.928,0.061
44.879,-0.369,0.932,0.059
44.889,-0.367,0.928,0.059
44.899,-0.369,0.930,0.061
44.909,-0.371,0.930,0.061
44.919,-0.371,0.932,0.059
44.929,-0.373,0.930,0.062
44.939,-0.373,0.932,0.059
44.949,-0.371,0.930,0.064
44.959,-0.369,0.934,0.061
44.969,-0.369,0.934,0.061
44.979,-0.369,0.932,0.061
44.988,-0.369,0.932,0.061
44.998,-0.373,0.932,0.061
45.008,-0.369,0.932,0.057
45.018,-0.369,0.932,0.062
45.028,-0.371,0.930,0.061
45.038,-0.371,0.930,0.062
45.048,-0.373,0.932,0.061
45.058,-0.371,0.934,0.064
45.068,-0.371,0.930,0.061
45.078,-0.367,0.928,0.064
45.088,-0.367,0.930,0.062
45.098,-0.365,0.926,0.064
45.108,-0.367,0.928,0.062
45.118,-0.369,0.928,0.064
45.128,-0.367,0.928,0.062
45.137,-0.367,0.930,0.061
45.147,-0.369,0.932,0.059
45.157,-0.369,0.930,0.062
45.167,-0.371,0.932,0.062
45.177,-0.369,0.928,0.066
45.187,-0.369,0.930,0.061
45.197,-0.369,0.928,0.061
45.207,-0.365,0.932,0.061
45.217,-0.367,0.932,0.062
45.227,-0.363,0.928,0.066
45.237,-0.369,0.930,0.064
45.247,-0.365,0.932,0.061
45.257,-0.367,0.930,0.064
45.267,-0.367,0.932,0.064
45.277,-0.365,0.934,0.061
45.286,-0.373,0.936,0.062
45.296,-0.375,0.936,0.059
45.306,-0.369,0.934,0.061
45.316,-0.371,0.932,0.064
45.326,-0.365,0.934,0.062
45.336,-0.367,0.930,0.066
45.346,-0.365,0.932,0.064
45.356,-0.367,0.930,0.064
45.366,-0.367,0.928,0.066
45.376,-0.367,0.926,0.064
45.386,-0.367,0.928,0.066
45.396,-0.369,0.928,0.066
45.406,-0.371,0.928,0.066
45.416,-0.373,0.930,0.066
45.426,-0.371,0.926,0.066
45.435,-0.373,0.926,0.066
45.445,-0.373,0.928,0.064
45.455,-0.373,0.928,0.066
45.465,-0.375,0.928,0.064
45.475,-0.373,0.928,0.068
45.485,-0.373,0.930,0.064
45.495,-0.373,0.934,0.066
45.505,-0.375,0.936,0.064
45.515,-0.373,0.936,0.064
45.525,-0.371,0.930,0.066
45.535,-0.371,0.934,0.062
45.545,-0.371,0.930,0.066
45.555,-0.367,0.930,0.064
45.565,-0.369,0.928,0.066
45.575,-0.371,0.926,0.064
45.584,-0.371,0.928,0.068
45.594,-0.373,0.930,0.066
45.604,-0.371,0.932,0.070
45.614,-0.369,0.932,0.068
45.624,-0.375,0.932,0.068
45.634,-0.371,0.930,0.066
45.644,-0.373,0.926,0.062
45.654,-0.373,0.924,0.062
45.664,-0.377,0.924,0.061
45.674,-0.375,0.926,0.062
45.684,-0.377,0.930,0.064
45.694,-0.375,0.934,0.062
45.704,-0.373,0.936,0.064
45.714,-0.373,0.936,0.066
45.724,-0.375,0.934,0.064
45.733,-0.373,0.930,0.061
45.743,-0.375,0.928,0.064
45.753,-0.375,0.926,0.064
45.763,-0.373,0.928,0.064
45.773,-0.369,0.928,0.062
45.783,-0.369,0.928,0.066
45.793,-0.371,0.930,0.064
45.803,-0.369,0.930,0.066
45.813,-0.371,0.926,0.064
45.823,-0.371,0.930,0.066
45.833,-0.373,0.936,0.061
45.843,-0.373,0.934,0.062
45.853,-0.373,0.936,0.064
45.863,-0.375,0.936,0.061
45.873,-0.375,0.934,0.062
45.882,-0.369,0.934,0.062
45.892,-0.371,0.932,0.064
45.902,-0.371,0.930,0.062
45.912,-0.373,0.928,0.061
45.922,-0.373,0.926,0.059
45.932,-0.377,0.924,0.057
45.942,-0.371,0.932,0.059
45.952,-0.375,0.936,0.062
45.962,-0.371,0.932,0.064
45.972,-0.373,0.934,0.062
45.982,-0.373,0.930,0.064
45.992,-0.367,0.930,0.064
46.002,-0.367,0.926,0.062
46.012,-0.367,0.928,0.061
46.022,-0.365,0.928,0.061
46.031,-0.363,0.926,0.062
46.041,-0.363,0.926,0.061
46.051,-0.365,0.932,0.066
46.061,-0.369,0.932,0.068
46.071,-0.365,0.932,0.062
46.081,-0.365,0.932,0.064
46.091,-0.367,0.932,0.061
46.101,-0.371,0.934,0.064
46.111,-0.371,0.936,0.062
46.121,-0.367,0.936,0.066
46.131,-0.367,0.934,0.068
46.141,-0.365,0.936,0.068
46.151,-0.365,0.932,0.066
46.161,-0.363,0.932,0.066
46.171,-0.365,0.928,0.070
46.180,-0.365,0.928,0.070
46.190,-0.363,0.928,0.070
46.200,-0.369,0.930,0.068
46.210,-0.367,0.926,0.068
46.220,-0.367,0.926,0.066
46.230,-0.369,0.928,0.068
46.240,-0.369,0.930,0.070
46.250,-0.369,0.930,0.070
46.260,-0.371,0.930,0.070
46.270,-0.369,0.928,0.072
46.280,-0.371,0.928,0.068
46.290,-0.371,0.930,0.066
46.300,-0.373,0.932,0.072
46.310,-0.371,0.934,0.064
46.320,-0.369,0.930,0.070
46.329,-0.369,0.926,0.068
46.339,-0.371,0.934,0.070
46.349,-0.371,0.934,0.072
46.359,-0.367,0.934,0.070
46.369,-0.367,0.930,0.068
46.379,-0.363,0.932,0.070
46.389,-0.365,0.930,0.068
46.399,-0.369,0.932,0.074
46.409,-0.371,0.932,0.076
46.419,-0.371,0.936,0.074
46.429,-0.371,0.932,0.076
46.439,-0.369,0.930,0.076
46.449,-0.365,0.928,0.072
46.459,-0.371,0.928,0.072
46.469,-0.375,0.922,0.074
46.478,-0.375,0.926,0.072
46.488,-0.379,0.922,0.074
46.498,-0.381,0.922,0.072
46.508,-0.387,0.914,0.070
46.518,-0.393,0.926,0.074
46.528,-0.389,0.920,0.070
46.538,-0.381,0.924,0.074
46.548,-0.377,0.930,0.072
46.558,-0.375,0.924,0.076
46.568,-0.377,0.928,0.076
46.578,-0.371,0.930,0.076
46.588,-0.371,0.936,0.070
46.598,-0.373,0.926,0.074
46.608,-0.375,0.930,0.072
46.618,-0.377,0.934,0.076
46.627,-0.379,0.934,0.074
46.637,-0.377,0.936,0.074
46.647,-0.377,0.932,0.074
46.657,-0.377,0.934,0.070
46.667,-0.377,0.928,0.074
46.677,-0.379,0.928,0.068
46.687,-0.375,0.930,0.070
46.697,-0.375,0.938,0.074
46.707,-0.375,0.930,0.074
46.717,-0.371,0.934,0.076
46.727,-0.375,0.930,0.074
46.737,-0.373,0.930,0.076
46.747,-0.369,0.930,0.074
46.757,-0.369,0.928,0.076
46.767,-0.369,0.930,0.074
46.776,-0.371,0.924,0.072
46.786,-0.367,0.928,0.074
46.796,-0.375,0.926,0.076
46.806,-0.371,0.928,0.074
46.816,-0.371,0.930,0.072
46.826,-0.371,0.928,0.072
46.836,-0.375,0.930,0.074
46.846,-0.379,0.926,0.070
46.856,-0.379,0.928,0.074
46.866,-0.379,0.928,0.078
46.876,-0.377,0.928,0.072
46.886,-0.377,0.928,0.076
46.896,-0.377,0.928,0.078
46.906,-0.375,0.926,0.076
46.916,-0.375,0.926,0.074
46.925,-0.373,0.926,0.072
46.935,-0.371,0.924,0.074
46.945,-0.371,0.922,0.076
46.955,-0.373,0.926,0.074
46.965,-0.375,0.924,0.072
46.975,-0.369,0.914,0.070
46.985,-0.369,0.924,0.072
46.995,-0.373,0.928,0.064
47.005,-0.371,0.928,0.066
47.015,-0.367,0.932,0.068
47.025,-0.377,0.932,0.072
47.035,-0.377,0.936,0.072
47.045,-0.377,0.939,0.074
47.055,-0.375,0.939,0.074
47.065,-0.377,0.938,0.074
47.074,-0.375,0.936,0.070
47.084,-0.375,0.930,0.070
47.094,-0.375,0.932,0.074
47.104,-0.371,0.928,0.076
47.114,-0.369,0.922,0.070
47.124,-0.367,0.914,0.068
47.134,-0.369,0.922,0.068
47.144,-0.369,0.928,0.070
47.154,-0.373,0.930,0.068
47.164,-0.371,0.934,0.070
47.174,-0.371,0.930,0.072
47.184,-0.373,0.934,0.070
47.194,-0.371,0.932,0.068
47.204,-0.369,0.928,0.066
47.214,-0.369,0.928,0.070
47.223,-0.369,0.930,0.066
47.233,-0.371,0.926,0.068
47.243,-0.367,0.934,0.068
47.253,-0.367,0.934,0.066
47.263,-0.365,0.934,0.068
47.273,-0.367,0.936,0.066
47.283,-0.367,0.934,0.066
47.293,-0.367,0.932,0.064
47.303,-0.371,0.932,0.066
47.313,-0.367,0.936,0.061
47.323,-0.365,0.932,0.066
47.333,-0.367,0.928,0.066
47.343,-0.367,0.932,0.064
47.353,-0.369,0.930,0.066
47.363,-0.365,0.930,0.066
47.372,-0.369,0.930,0.066
47.382,-0.369,0.930,0.064
47.392,-0.367,0.930,0.072
47.402,-0.367,0.930,0.068
47.412,-0.365,0.930,0.068
47.422,-0.369,0.932,0.068
47.432,-0.371,0.930,0.066
47.442,-0.371,0.930,0.066
47.452,-0.373,0.934,0.066
47.462,-0.369,0.932,0.068
47.472,-0.371,0.932,0.070
47.482,-0.373,0.930,0.070
47.492,-0.373,0.934,0.068
47.502,-0.373,0.930,0.070
47.512,-0.373,0.934,0.066
47.521,-0.373,0.928,0.064
47.531,-0.369,0.930,0.068
47.541,-0.371,0.932,0.068
47.551,-0.369,0.930,0.072
47.561,-0.369,0.924,0.068
47.571,-0.369,0.930,0.072
47.581,-0.371,0.934,0.070
47.591,-0.373,0.932,0.068
47.601,-0.373,0.934,0.070
47.611,-0.373,0.932,0.070
47.621,-0.375,0.932,0.070
47.631,-0.375,0.930,0.070
47.641,-0.375,0.930,0.070
47.651,-0.373,0.926,0.068
47.661,-0.373,0.928,0.070
47.670,-0.375,0.928,0.072
47.680,-0.375,0.926,0.070
47.690,-0.373,0.926,0.072
47.700,-0.369,0.924,0.070
47.710,-0.373,0.926,0.070
47.720,-0.375,0.928,0.070
47.730,-0.377,0.928,0.070
47.740,-0.373,0.930,0.070
47.750,-0.375,0.930,0.068
47.760,-0.377,0.928,0.070
47.770,-0.379,0.932,0.068
47.780,-0.375,0.930,0.068
47.790,-0.375,0.928,0.068
47.800,-0.375,0.932,0.068
47.810,-0.375,0.930,0.068
47.819,-0.377,0.932,0.068
47.829,-0.379,0.934,0.070
47.839,-0.377,0.926,0.068
47.849,-0.375,0.928,0.070
47.859,-0.373,0.926,0.070
47.869,-0.373,0.926,0.070
47.879,-0.373,0.926,0.068
47.889,-0.377,0.926,0.068
47.899,-0.377,0.930,0.068
47.909,-0.379,0.930,0.068
47.919,-0.377,0.932,0.070
47.929,-0.379,0.932,0.072
47.939,-0.381,0.928,0.072
47.949,-0.377,0.926,0.066
47.959,-0.377,0.928,0.070
47.968,-0.375,0.926,0.068
47.978,-0.381,0.922,0.068
47.988,-0.381,0.926,0.068
47.998,-0.377,0.926,0.068
48.008,-0.381,0.928,0.068
48.018,-0.379,0.928,0.070
48.028,-0.375,0.930,0.070
48.038,-0.375,0.930,0.068
48.048,-0.377,0.932,0.066
48.058,-0.377,0.930,0.066
48.068,-0.377,0.930,0.070
48.078,-0.379,0.928,0.066
48.088,-0.377,0.928,0.064
48.098,-0.377,0.926,0.064
48.108,-0.377,0.928,0.066
48.117,-0.377,0.930,0.068
48.127,-0.377,0.932,0.068
48.137,-0.377,0.930,0.066
48.147,-0.379,0.928,0.068
48.157,-0.379,0.932,0.064
48.167,-0.375,0.928,0.066
48.177,-0.375,0.928,0.064
48.187,-0.379,0.930,0.068
48.197,-0.379,0.930,0.070
48.207,-0.379,0.928,0.070
48.217,-0.383,0.924,0.068
48.227,-0.381,0.926,0.064
48.237,-0.377,0.924,0.070
48.247,-0.375,0.928,0.068
48.257,-0.373,0.930,0.070
48.266,-0.377,0.928,0.068
48.276,-0.373,0.930,0.074
48.286,-0.375,0.930,0.070
48.296,-0.375,0.926,0.070
48.306,-0.375,0.928,0.068
48.316,-0.375,0.932,0.066
48.326,-0.375,0.932,0.070
48.336,-0.377,0.934,0.068
48.346,-0.375,0.930,0.066
48.356,-0.379,0.932,0.072
48.366,-0.381,0.932,0.070
48.376,-0.377,0.932,0.074
48.386,-0.379,0.930,0.074
48.396,-0.379,0.926,0.070
48.406,-0.379,0.924,0.070
48.415,-0.377,0.924,0.072
48.425,-0.381,0.922,0.068
48.435,-0.379,0.922,0.066
48.445,-0.377,0.922,0.070
48.455,-0.379,0.924,0.072
48.465,-0.381,0.928,0.072
48.475,-0.383,0.930,0.074
48.485,-0.383,0.930,0.072
48.495,-0.379,0.928,0.072
48.505,-0.379,0.926,0.068
48.515,-0.379,0.930,0.074
48.525,-0.379,0.932,0.072
48.535,-0.379,0.930,0.070
48.545,-0.379,0.928,0.072
48.555,-0.377,0.930,0.070
48.564,-0.379,0.932,0.072
48.574,-0.383,0.924,0.070
48.584,-0.381,0.926,0.074
48.594,-0.381,0.926,0.076
48.604,-0.375,0.928,0.074
48.614,-0.375,0.926,0.072
48.624,-0.377,0.928,0.068
48.634,-0.377,0.924,0.072
48.644,-0.379,0.926,0.070
48.654,-0.379,0.928,0.068
48.664,-0.379,0.928,0.074
48.674,-0.377,0.930,0.074
48.684,-0.379,0.930,0.070
48.694,-0.377,0.928,0.072
48.704,-0.379,0.926,0.070
48.713,-0.381,0.928,0.074
48.723,-0.381,0.924,0.068
48.733,-0.381,0.926,0.066
48.743,-0.379,0.928,0.070
48.753,-0.381,0.928,0.070
48.763,-0.381,0.930,0.070
48.773,-0.381,0.930,0.068
48.783,-0.381,0.928,0.072
48.793,-0.377,0.930,0.068
48.803,-0.381,0.930,0.070
48.813,-0.381,0.928,0.068
48.823,-0.379,0.926,0.068
48.833,-0.381,0.928,0.066
48.843,-0.379,0.930,0.068
48.853,-0.381,0.930,0.072
48.862,-0.381,0.928,0.066
48.872,-0.381,0.930,0.070
48.882,-0.381,0.928,0.066
48.892,-0.381,0.926,0.070
48.902,-0.381,0.928,0.070
48.912,-0.379,0.928,0.070
48.922,-0.379,0.926,0.070
48.932,-0.377,0.926,0.072
48.942,-0.381,0.930,0.072
48.952,-0.383,0.922,0.068
48.962,-0.385,0.928,0.070
48.972,-0.385,0.926,0.070
48.982,-0.385,0.926,0.068
48.992,-0.385,0.924,0.068
49.002,-0.379,0.924,0.070
49.011,-0.381,0.926,0.068
49.021,-0.381,0.926,0.072
49.031,-0.379,0.924,0.070
49.041,-0.379,0.928,0.068
49.051,-0.381,0.924,0.070
49.061,-0.379,0.924,0.070
49.071,-0.377,0.926,0.070
49.081,-0.379,0.930,0.070
49.091,-0.377,0.928,0.070
49.101,-0.381,0.930,0.068
49.111,-0.383,0.926,0.070
49.121,-0.383,0.934,0.070
49.131,-0.381,0.936,0.072
49.141,-0.379,0.932,0.072
49.151,-0.375,0.930,0.072
49.160,-0.383,0.928,0.070
49.170,-0.381,0.926,0.068
49.180,-0.381,0.924,0.072
49.190,-0.381,0.920,0.072
49.200,-0.381,0.922,0.072
49.210,-0.383,0.922,0.072
49.220,-0.383,0.926,0.072
49.230,-0.385,0.926,0.070
49.240,-0.383,0.928,0.070
49.250,-0.381,0.924,0.068
49.260,-0.381,0.926,0.070
49.270,-0.377,0.926,0.070
49.280,-0.379,0.924,0.070
49.290,-0.381,0.928,0.070
49.300,-0.383,0.928,0.070
49.309,-0.379,0.932,0.074
49.319,-0.383,0.930,0.072
49.329,-0.379,0.934,0.066
49.339,-0.381,0.926,0.074
49.349,-0.381,0.924,0.070
49.359,-0.377,0.926,0.072
49.369,-0.377,0.926,0.074
49.379,-0.377,0.922,0.072
49.389,-0.383,0.922,0.072
49.399,-0.381,0.924,0.074
49.409,-0.381,0.926,0.072
49.419,-0.383,0.928,0.074
49.429,-0.381,0.932,0.076
49.439,-0.381,0.930,0.074
49.449,-0.381,0.928,0.074
49.458,-0.379,0.928,0.074
49.468,-0.379,0.922,0.070
49.478,-0.381,0.920,0.072
49.488,-0.383,0.920,0.068
49.498,-0.385,0.924,0.074
49.508,-0.385,0.928,0.066
49.518,-0.385,0.926,0.068
49.528,-0.385,0.932,0.070
49.538,-0.383,0.930,0.072
49.548,-0.383,0.928,0.068
49.558,-0.383,0.928,0.068
49.568,-0.379,0.924,0.064
49.578,-0.379,0.926,0.064
49.588,-0.377,0.922,0.066
49.598,-0.377,0.930,0.068
49.607,-0.379,0.928,0.066
49.617,-0.381,0.932,0.062
49.627,-0.383,0.930,0.068
49.637,-0.383,0.934,0.072
49.647,-0.383,0.930,0.070
49.657,-0.383,0.930,0.070
49.667,-0.385,0.928,0.068
49.677,-0.379,0.924,0.070
49.687,-0.381,0.926,0.072
49.697,-0.381,0.926,0.070
49.707,-0.381,0.924,0.072
49.717,-0.381,0.926,0.072
49.727,-0.381,0.926,0.070
49.737,-0.383,0.926,0.068
49.747,-0.387,0.924,0.070
49.756,-0.383,0.926,0.068
49.766,-0.383,0.926,0.068
49.776,-0.385,0.924,0.068
49.786,-0.385,0.928,0.072
49.796,-0.383,0.926,0.070
49.806,-0.379,0.926,0.070
49.816,-0.379,0.928,0.068
49.826,-0.377,0.926,0.070
49.836,-0.377,0.926,0.070
49.846,-0.377,0.928,0.070
49.856,-0.377,0.928,0.068
49.866,-0.379,0.928,0.070
49.876,-0.379,0.928,0.070
49.886,-0.379,0.930,0.066
49.896,-0.381,0.928,0.070
49.905,-0.383,0.926,0.068
49.915,-0.383,0.928,0.070
49.925,-0.383,0.928,0.070
49.935,-0.383,0.928,0.072
49.945,-0.383,0.928,0.072
49.955,-0.379,0.928,0.070
49.965,-0.381,0.926,0.070
49.975,-0.379,0.924,0.072
49.985,-0.381,0.926,0.074
49.995,-0.381,0.922,0.074
50.005,-0.379,0.926,0.076
50.015,-0.379,0.924,0.070
50.025,-0.381,0.926,0.072
50.035,-0.379,0.924,0.076
50.045,-0.383,0.928,0.074
50.054,-0.381,0.924,0.070
50.064,-0.381,0.928,0.072
50.074,-0.383,0.926,0.068
50.084,-0.383,0.924,0.068
50.094,-0.381,0.926,0.068
50.104,-0.385,0.928,0.068
50.114,-0.385,0.930,0.068
50.124,-0.381,0.934,0.068
50.134,-0.383,0.928,0.070
50.144,-0.381,0.930,0.074
50.154,-0.381,0.928,0.070
50.164,-0.375,0.924,0.076
50.174,-0.377,0.926,0.070
50.184,-0.379,0.924,0.066
50.194,-0.381,0.924,0.072
50.203,-0.385,0.924,0.070
50.213,-0.383,0.928,0.072
50.223,-0.381,0.924,0.070
50.233,-0.381,0.928,0.072
50.243,-0.381,0.930,0.070
50.253,-0.383,0.928,0.070
50.263,-0.381,0.926,0.070
50.273,-0.385,0.926,0.070
50.283,-0.383,0.924,0.066
50.293,-0.385,0.926,0.066
50.303,-0.383,0.926,0.066
50.313,-0.379,0.926,0.072
50.323,-0.379,0.926,0.066
50.333,-0.381,0.930,0.070
50.343,-0.379,0.928,0.066
50.352,-0.379,0.930,0.066
50.362,-0.381,0.926,0.064
50.372,-0.383,0.928,0.068
50.382,-0.381,0.926,0.066
50.392,-0.381,0.926,0.066
50.402,-0.379,0.930,0.064
50.412,-0.377,0.926,0.066
50.422,-0.377,0.928,0.070
50.432,-0.377,0.930,0.068
50.442,-0.377,0.928,0.068
50.452,-0.377,0.932,0.064
50.462,-0.379,0.928,0.068
50.472,-0.379,0.930,0.062
50.482,-0.381,0.932,0.064
50.492,-0.381,0.928,0.066
50.501,-0.381,0.928,0.070
50.511,-0.373,0.930,0.066
50.521,-0.377,0.930,0.068
50.531,-0.379,0.928,0.066
50.541,-0.377,0.928,0.066
50.551,-0.379,0.928,0.068
50.561,-0.375,0.928,0.068
50.571,-0.377,0.926,0.068
50.581,-0.379,0.922,0.066
50.591,-0.379,0.926,0.066
50.601,-0.381,0.926,0.064
