df_hash,22ZHK4.HAC2HB
device,HZ2X61
project_hash,29R7
project_name,istanbul_aydin_university
person_hash,29R7.4LLJ
person_label,V86
date_time_start,2025-11-04_14-43-49.313000_+03
date_time_start_unix,1762253029.313
date_time_end,2025-11-04_14-52-08.536000_+03
length_difference_noticed,no

time,acc_x,acc_y,acc_z
4.442,-0.459,0.918,0.025
4.452,-0.463,0.920,0.025
4.462,-0.459,0.918,0.023
4.472,-0.465,0.918,0.023
4.482,-0.465,0.920,0.025
4.492,-0.469,0.918,0.021
4.502,-0.467,0.914,0.021
4.512,-0.467,0.918,0.021
4.521,-0.467,0.918,0.021
4.531,-0.465,0.922,0.021
4.541,-0.465,0.922,0.021
4.551,-0.463,0.922,0.023
4.561,-0.467,0.920,0.023
4.571,-0.465,0.922,0.021
4.581,-0.465,0.920,0.021
4.591,-0.469,0.922,0.025
4.601,-0.467,0.918,0.023
4.611,-0.469,0.918,0.025
4.621,-0.471,0.916,0.025
4.631,-0.465,0.920,0.025
4.641,-0.469,0.916,0.025
4.651,-0.469,0.920,0.029
4.660,-0.463,0.918,0.025
4.670,-0.467,0.916,0.027
4.680,-0.465,0.918,0.025
4.690,-0.465,0.914,0.027
4.700,-0.459,0.908,0.031
4.710,-0.459,0.910,0.029
4.720,-0.463,0.914,0.029
4.730,-0.463,0.914,0.029
4.740,-0.465,0.914,0.029
4.750,-0.469,0.918,0.027
4.760,-0.465,0.918,0.023
4.770,-0.469,0.920,0.025
4.780,-0.467,0.918,0.023
4.790,-0.467,0.922,0.021
4.799,-0.469,0.924,0.025
4.809,-0.467,0.928,0.025
4.819,-0.467,0.928,0.029
4.829,-0.465,0.926,0.031
4.839,-0.465,0.918,0.031
4.849,-0.463,0.916,0.029
4.859,-0.465,0.910,0.031
4.869,-0.463,0.906,0.031
4.879,-0.463,0.906,0.027
4.889,-0.461,0.908,0.029
4.899,-0.459,0.910,0.025
4.909,-0.459,0.914,0.027
4.919,-0.459,0.918,0.025
4.929,-0.459,0.916,0.023
4.939,-0.459,0.920,0.025
4.948,-0.465,0.922,0.023
4.958,-0.469,0.926,0.023
4.968,-0.473,0.920,0.020
4.978,-0.477,0.922,0.020
4.988,-0.480,0.916,0.016
4.998,-0.475,0.916,0.025
5.008,-0.471,0.918,0.021
5.018,-0.465,0.920,0.029
5.028,-0.465,0.920,0.027
5.038,-0.467,0.916,0.023
5.048,-0.465,0.912,0.025
5.058,-0.465,0.914,0.031
5.068,-0.471,0.920,0.023
5.078,-0.467,0.918,0.027
5.087,-0.471,0.918,0.027
5.097,-0.471,0.918,0.027
5.107,-0.471,0.912,0.025
5.117,-0.475,0.914,0.027
5.127,-0.471,0.914,0.025
5.137,-0.471,0.914,0.025
5.147,-0.467,0.918,0.027
5.157,-0.469,0.920,0.029
5.167,-0.469,0.916,0.027
5.177,-0.467,0.916,0.027
5.187,-0.469,0.916,0.027
5.197,-0.467,0.916,0.025
5.207,-0.471,0.914,0.027
5.217,-0.473,0.912,0.027
5.226,-0.471,0.912,0.025
5.236,-0.473,0.914,0.023
5.246,-0.473,0.914,0.023
5.256,-0.473,0.914,0.025
5.266,-0.469,0.916,0.021
5.276,-0.471,0.916,0.025
5.286,-0.471,0.918,0.025
5.296,-0.471,0.920,0.029
5.306,-0.471,0.920,0.027
5.316,-0.469,0.918,0.027
5.326,-0.471,0.918,0.025
5.336,-0.471,0.918,0.029
5.346,-0.471,0.922,0.027
5.356,-0.469,0.920,0.025
5.365,-0.469,0.918,0.025
5.375,-0.471,0.918,0.029
5.385,-0.469,0.914,0.029
5.395,-0.467,0.912,0.025
5.405,-0.469,0.914,0.029
5.415,-0.467,0.916,0.027
5.425,-0.465,0.912,0.029
5.435,-0.461,0.912,0.029
5.445,-0.459,0.914,0.027
5.455,-0.463,0.918,0.031
5.465,-0.463,0.918,0.029
5.475,-0.461,0.918,0.027
5.485,-0.465,0.918,0.025
5.495,-0.465,0.922,0.025
5.505,-0.469,0.922,0.023
5.514,-0.469,0.922,0.023
5.524,-0.469,0.924,0.025
5.534,-0.471,0.928,0.027
5.544,-0.471,0.924,0.029
5.554,-0.467,0.922,0.027
5.564,-0.465,0.918,0.031
5.574,-0.463,0.912,0.033
5.584,-0.465,0.912,0.031
5.594,-0.465,0.910,0.031
5.604,-0.467,0.910,0.029
5.614,-0.467,0.908,0.029
5.624,-0.465,0.910,0.027
5.634,-0.469,0.914,0.025
5.644,-0.467,0.912,0.027
5.653,-0.469,0.914,0.027
5.663,-0.467,0.920,0.023
5.673,-0.469,0.920,0.027
5.683,-0.467,0.922,0.023
5.693,-0.469,0.924,0.023
5.703,-0.469,0.920,0.021
5.713,-0.467,0.920,0.021
5.723,-0.463,0.916,0.025
5.733,-0.463,0.920,0.025
5.743,-0.459,0.920,0.025
5.753,-0.459,0.918,0.025
5.763,-0.461,0.920,0.025
5.773,-0.461,0.916,0.023
5.783,-0.465,0.914,0.025
5.792,-0.461,0.920,0.025
5.802,-0.467,0.918,0.025
5.812,-0.461,0.920,0.023
5.822,-0.461,0.922,0.025
5.832,-0.461,0.920,0.023
5.842,-0.459,0.922,0.023
5.852,-0.461,0.918,0.027
5.862,-0.461,0.920,0.023
5.872,-0.461,0.918,0.023
5.882,-0.459,0.922,0.025
5.892,-0.461,0.924,0.025
5.902,-0.459,0.920,0.027
5.912,-0.463,0.920,0.023
5.922,-0.459,0.920,0.025
5.932,-0.463,0.918,0.025
5.941,-0.461,0.918,0.025
5.951,-0.459,0.918,0.025
5.961,-0.461,0.916,0.025
5.971,-0.463,0.916,0.021
5.981,-0.463,0.916,0.023
5.991,-0.465,0.916,0.023
6.001,-0.463,0.922,0.021
6.011,-0.461,0.924,0.023
6.021,-0.465,0.922,0.023
6.031,-0.465,0.920,0.023
6.041,-0.463,0.920,0.021
6.051,-0.461,0.920,0.023
6.061,-0.461,0.922,0.023
6.071,-0.463,0.920,0.021
6.080,-0.463,0.918,0.023
6.090,-0.459,0.918,0.023
6.100,-0.461,0.920,0.023
6.110,-0.461,0.922,0.025
6.120,-0.461,0.920,0.023
6.130,-0.463,0.924,0.020
6.140,-0.463,0.922,0.021
6.150,-0.463,0.922,0.021
6.160,-0.465,0.926,0.021
6.170,-0.459,0.922,0.023
6.180,-0.459,0.922,0.027
6.190,-0.463,0.922,0.023
6.200,-0.457,0.918,0.025
6.210,-0.461,0.920,0.027
6.219,-0.459,0.916,0.027
6.229,-0.457,0.918,0.029
6.239,-0.453,0.918,0.029
6.249,-0.457,0.916,0.027
6.259,-0.457,0.922,0.025
6.269,-0.461,0.920,0.029
6.279,-0.463,0.918,0.027
6.289,-0.465,0.924,0.027
6.299,-0.461,0.926,0.027
6.309,-0.461,0.928,0.027
6.319,-0.461,0.928,0.029
6.329,-0.461,0.928,0.029
6.339,-0.461,0.924,0.031
6.349,-0.459,0.918,0.029
6.358,-0.461,0.916,0.031
6.368,-0.463,0.914,0.025
6.378,-0.461,0.916,0.031
6.388,-0.461,0.918,0.033
6.398,-0.459,0.916,0.029
6.408,-0.459,0.916,0.029
6.418,-0.459,0.918,0.027
6.428,-0.461,0.918,0.029
6.438,-0.461,0.922,0.027
6.448,-0.463,0.924,0.031
6.458,-0.465,0.922,0.027
6.468,-0.463,0.922,0.029
6.478,-0.463,0.926,0.023
6.488,-0.461,0.922,0.025
6.498,-0.461,0.924,0.027
6.507,-0.463,0.926,0.029
6.517,-0.461,0.926,0.031
6.527,-0.459,0.926,0.031
6.537,-0.455,0.918,0.027
6.547,-0.455,0.918,0.027
6.557,-0.455,0.916,0.029
6.567,-0.455,0.920,0.031
6.577,-0.457,0.926,0.031
6.587,-0.457,0.930,0.033
6.597,-0.453,0.930,0.033
6.607,-0.455,0.928,0.031
6.617,-0.457,0.922,0.029
6.627,-0.457,0.920,0.031
6.637,-0.455,0.920,0.031
6.646,-0.457,0.918,0.031
6.656,-0.459,0.920,0.029
6.666,-0.459,0.918,0.029
6.676,-0.463,0.920,0.027
6.686,-0.465,0.922,0.033
6.696,-0.461,0.920,0.031
6.706,-0.463,0.918,0.035
6.716,-0.463,0.918,0.033
6.726,-0.461,0.918,0.033
6.736,-0.459,0.920,0.035
6.746,-0.459,0.918,0.029
6.756,-0.461,0.918,0.033
6.766,-0.459,0.924,0.033
6.776,-0.463,0.924,0.033
6.785,-0.459,0.922,0.033
6.795,-0.461,0.922,0.031
6.805,-0.463,0.920,0.033
6.815,-0.465,0.924,0.037
6.825,-0.465,0.920,0.033
6.835,-0.467,0.920,0.033
6.845,-0.465,0.920,0.035
6.855,-0.461,0.920,0.037
6.865,-0.461,0.920,0.033
6.875,-0.463,0.918,0.037
6.885,-0.463,0.916,0.035
6.895,-0.459,0.920,0.035
6.905,-0.463,0.922,0.035
6.915,-0.461,0.922,0.033
6.924,-0.465,0.926,0.033
6.934,-0.463,0.924,0.035
6.944,-0.465,0.922,0.029
6.954,-0.463,0.922,0.033
6.964,-0.461,0.922,0.035
6.974,-0.461,0.920,0.035
6.984,-0.459,0.918,0.037
6.994,-0.459,0.914,0.037
7.004,-0.457,0.916,0.037
7.014,-0.455,0.918,0.039
7.024,-0.451,0.918,0.039
7.034,-0.455,0.922,0.039
7.044,-0.457,0.922,0.035
7.054,-0.455,0.922,0.039
7.064,-0.459,0.924,0.033
7.073,-0.461,0.924,0.037
7.083,-0.465,0.926,0.035
7.093,-0.465,0.928,0.033
7.103,-0.463,0.928,0.037
7.113,-0.465,0.924,0.035
7.123,-0.465,0.922,0.037
7.133,-0.465,0.918,0.035
7.143,-0.463,0.916,0.035
7.153,-0.459,0.914,0.035
7.163,-0.457,0.918,0.035
7.173,-0.459,0.918,0.037
7.183,-0.459,0.914,0.035
7.193,-0.459,0.918,0.033
7.203,-0.453,0.920,0.035
7.212,-0.459,0.918,0.035
7.222,-0.463,0.924,0.031
7.232,-0.465,0.924,0.031
7.242,-0.465,0.924,0.033
7.252,-0.461,0.922,0.031
7.262,-0.465,0.924,0.031
7.272,-0.467,0.924,0.029
7.282,-0.459,0.920,0.031
7.292,-0.463,0.922,0.031
7.302,-0.459,0.926,0.033
7.312,-0.457,0.924,0.035
7.322,-0.455,0.920,0.031
7.332,-0.453,0.914,0.029
7.342,-0.455,0.912,0.033
7.351,-0.459,0.922,0.031
7.361,-0.461,0.926,0.033
7.371,-0.459,0.928,0.033
7.381,-0.459,0.928,0.031
7.391,-0.459,0.930,0.035
7.401,-0.459,0.924,0.033
7.411,-0.459,0.920,0.035
7.421,-0.457,0.922,0.037
7.431,-0.455,0.918,0.035
7.441,-0.457,0.920,0.037
7.451,-0.457,0.918,0.033
7.461,-0.457,0.916,0.035
7.471,-0.461,0.918,0.031
7.481,-0.461,0.918,0.035
7.490,-0.461,0.922,0.029
7.500,-0.463,0.920,0.033
7.510,-0.465,0.920,0.031
7.520,-0.467,0.922,0.031
7.530,-0.465,0.922,0.031
7.540,-0.467,0.922,0.033
7.550,-0.467,0.920,0.033
7.560,-0.469,0.920,0.029
7.570,-0.465,0.920,0.031
7.580,-0.465,0.920,0.033
7.590,-0.463,0.920,0.031
7.600,-0.463,0.918,0.033
7.610,-0.461,0.920,0.037
7.620,-0.459,0.918,0.035
7.630,-0.457,0.920,0.035
7.639,-0.461,0.918,0.035
7.649,-0.457,0.924,0.037
7.659,-0.461,0.920,0.035
7.669,-0.465,0.926,0.037
7.679,-0.459,0.922,0.033
7.689,-0.463,0.920,0.035
7.699,-0.463,0.922,0.035
7.709,-0.465,0.920,0.035
7.719,-0.461,0.920,0.037
7.729,-0.457,0.918,0.033
7.739,-0.459,0.916,0.035
7.749,-0.455,0.914,0.037
7.759,-0.457,0.918,0.039
7.769,-0.457,0.920,0.039
7.778,-0.457,0.918,0.039
7.788,-0.459,0.920,0.039
7.798,-0.459,0.922,0.035
7.808,-0.459,0.924,0.033
7.818,-0.459,0.922,0.035
7.828,-0.463,0.926,0.035
7.838,-0.463,0.928,0.033
7.848,-0.467,0.934,0.035
7.858,-0.465,0.934,0.039
7.868,-0.459,0.930,0.037
7.878,-0.459,0.924,0.039
7.888,-0.457,0.920,0.043
7.898,-0.459,0.916,0.043
7.908,-0.455,0.910,0.039
7.917,-0.455,0.912,0.041
7.927,-0.461,0.910,0.041
7.937,-0.457,0.910,0.043
7.947,-0.461,0.914,0.037
7.957,-0.461,0.918,0.037
7.967,-0.465,0.918,0.037
7.977,-0.463,0.918,0.037
7.987,-0.463,0.922,0.037
7.997,-0.465,0.926,0.033
8.007,-0.461,0.924,0.035
8.017,-0.463,0.926,0.033
8.027,-0.461,0.922,0.029
8.037,-0.461,0.920,0.035
8.047,-0.463,0.924,0.035
8.056,-0.461,0.922,0.035
8.066,-0.457,0.926,0.037
8.076,-0.459,0.918,0.031
8.086,-0.459,0.916,0.037
8.096,-0.461,0.918,0.033
8.106,-0.459,0.920,0.035
8.116,-0.457,0.926,0.037
8.126,-0.459,0.928,0.035
8.136,-0.461,0.924,0.039
8.146,-0.459,0.922,0.037
8.156,-0.463,0.920,0.037
8.166,-0.461,0.916,0.039
8.176,-0.461,0.920,0.039
8.186,-0.461,0.918,0.037
8.196,-0.459,0.916,0.035
8.205,-0.459,0.922,0.037
8.215,-0.459,0.924,0.033
8.225,-0.461,0.922,0.035
8.235,-0.463,0.922,0.033
8.245,-0.461,0.922,0.037
8.255,-0.461,0.920,0.031
8.265,-0.459,0.918,0.035
8.275,-0.459,0.920,0.033
8.285,-0.459,0.922,0.037
8.295,-0.457,0.920,0.035
8.305,-0.457,0.918,0.035
8.315,-0.461,0.922,0.033
8.325,-0.459,0.920,0.035
8.335,-0.461,0.920,0.033
8.344,-0.461,0.920,0.035
8.354,-0.459,0.920,0.035
8.364,-0.461,0.920,0.035
8.374,-0.465,0.924,0.035
8.384,-0.465,0.924,0.033
8.394,-0.463,0.924,0.031
8.404,-0.463,0.926,0.029
8.414,-0.461,0.922,0.035
8.424,-0.463,0.924,0.037
8.434,-0.461,0.924,0.033
8.444,-0.459,0.922,0.035
8.454,-0.461,0.916,0.037
8.464,-0.459,0.920,0.035
8.474,-0.463,0.918,0.035
8.483,-0.457,0.914,0.035
8.493,-0.457,0.916,0.037
8.503,-0.457,0.922,0.037
8.513,-0.459,0.922,0.039
8.523,-0.459,0.922,0.031
8.533,-0.461,0.922,0.035
8.543,-0.457,0.922,0.035
8.553,-0.459,0.926,0.035
8.563,-0.461,0.928,0.035
8.573,-0.457,0.924,0.033
8.583,-0.463,0.928,0.037
8.593,-0.463,0.930,0.037
8.603,-0.459,0.926,0.037
8.613,-0.459,0.922,0.041
8.623,-0.461,0.918,0.039
8.632,-0.457,0.910,0.041
8.642,-0.459,0.912,0.037
8.652,-0.455,0.914,0.037
8.662,-0.455,0.914,0.035
8.672,-0.459,0.916,0.037
8.682,-0.461,0.916,0.037
8.692,-0.461,0.920,0.035
8.702,-0.459,0.920,0.031
8.712,-0.463,0.926,0.029
8.722,-0.463,0.920,0.029
8.732,-0.463,0.924,0.029
8.742,-0.465,0.924,0.029
8.752,-0.465,0.926,0.031
8.762,-0.463,0.922,0.027
8.771,-0.459,0.922,0.033
8.781,-0.463,0.920,0.035
8.791,-0.457,0.922,0.033
8.801,-0.455,0.922,0.031
8.811,-0.457,0.920,0.031
8.821,-0.457,0.920,0.031
8.831,-0.461,0.918,0.035
8.841,-0.457,0.924,0.031
8.851,-0.455,0.926,0.035
8.861,-0.453,0.924,0.035
8.871,-0.459,0.922,0.031
8.881,-0.463,0.920,0.031
8.891,-0.457,0.920,0.031
8.901,-0.461,0.922,0.031
8.910,-0.461,0.918,0.031
8.920,-0.463,0.922,0.031
8.930,-0.463,0.922,0.031
8.940,-0.459,0.924,0.033
8.950,-0.457,0.922,0.033
8.960,-0.459,0.920,0.033
8.970,-0.459,0.918,0.035
8.980,-0.461,0.920,0.031
8.990,-0.461,0.920,0.031
9.000,-0.459,0.922,0.031
9.010,-0.461,0.920,0.035
9.020,-0.459,0.922,0.031
9.030,-0.459,0.922,0.031
9.040,-0.459,0.922,0.031
9.049,-0.459,0.920,0.031
9.059,-0.459,0.922,0.031
9.069,-0.461,0.922,0.031
9.079,-0.461,0.924,0.033
9.089,-0.459,0.924,0.033
9.099,-0.461,0.922,0.031
9.109,-0.459,0.918,0.035
9.119,-0.459,0.922,0.033
9.129,-0.459,0.924,0.035
9.139,-0.461,0.920,0.035
9.149,-0.461,0.922,0.033
9.159,-0.459,0.918,0.037
9.169,-0.463,0.916,0.035
9.179,-0.461,0.920,0.037
9.189,-0.461,0.922,0.035
9.198,-0.457,0.920,0.033
9.208,-0.453,0.916,0.035
9.218,-0.447,0.918,0.035
9.228,-0.455,0.924,0.035
9.238,-0.451,0.920,0.037
9.248,-0.457,0.922,0.035
9.258,-0.457,0.924,0.031
9.268,-0.457,0.924,0.031
9.278,-0.459,0.924,0.033
9.288,-0.463,0.926,0.029
9.298,-0.465,0.930,0.033
9.308,-0.463,0.932,0.031
9.318,-0.461,0.932,0.039
9.328,-0.461,0.930,0.039
9.337,-0.461,0.924,0.037
9.347,-0.459,0.922,0.039
9.357,-0.461,0.914,0.037
9.367,-0.455,0.912,0.035
9.377,-0.453,0.908,0.035
9.387,-0.459,0.914,0.035
9.397,-0.461,0.914,0.035
9.407,-0.463,0.916,0.037
9.417,-0.461,0.918,0.033
9.427,-0.465,0.918,0.035
9.437,-0.461,0.924,0.031
9.447,-0.461,0.928,0.037
9.457,-0.459,0.924,0.033
9.467,-0.463,0.924,0.031
9.476,-0.461,0.924,0.031
9.486,-0.465,0.922,0.031
9.496,-0.463,0.918,0.033
9.506,-0.463,0.922,0.033
9.516,-0.459,0.924,0.033
9.526,-0.457,0.924,0.035
9.536,-0.457,0.920,0.031
9.546,-0.455,0.918,0.031
9.556,-0.457,0.918,0.031
9.566,-0.459,0.924,0.029
9.576,-0.457,0.924,0.033
9.586,-0.455,0.926,0.035
9.596,-0.457,0.926,0.031
9.606,-0.459,0.924,0.033
9.615,-0.455,0.924,0.033
9.625,-0.457,0.920,0.031
9.635,-0.455,0.920,0.031
9.645,-0.457,0.922,0.029
9.655,-0.457,0.922,0.031
9.665,-0.457,0.922,0.029
9.675,-0.457,0.922,0.031
9.685,-0.459,0.922,0.031
9.695,-0.459,0.924,0.031
9.705,-0.459,0.924,0.029
9.715,-0.461,0.922,0.029
9.725,-0.459,0.922,0.027
9.735,-0.461,0.922,0.033
9.745,-0.459,0.920,0.031
9.755,-0.459,0.924,0.029
9.764,-0.457,0.924,0.031
9.774,-0.457,0.922,0.031
9.784,-0.459,0.924,0.029
9.794,-0.457,0.920,0.027
9.804,-0.457,0.918,0.031
9.814,-0.459,0.922,0.031
9.824,-0.459,0.922,0.027
9.834,-0.457,0.920,0.031
9.844,-0.457,0.920,0.033
9.854,-0.457,0.918,0.033
9.864,-0.459,0.924,0.031
9.874,-0.461,0.926,0.031
9.884,-0.461,0.924,0.031
9.894,-0.463,0.922,0.031
9.903,-0.457,0.926,0.031
9.913,-0.461,0.924,0.027
9.923,-0.459,0.922,0.031
9.933,-0.461,0.924,0.031
9.943,-0.453,0.920,0.029
9.953,-0.453,0.916,0.031
9.963,-0.451,0.920,0.031
9.973,-0.449,0.920,0.031
9.983,-0.447,0.918,0.029
9.993,-0.447,0.918,0.033
10.003,-0.453,0.920,0.033
10.013,-0.449,0.924,0.033
10.023,-0.451,0.922,0.029
10.033,-0.459,0.922,0.029
10.042,-0.461,0.926,0.029
10.052,-0.461,0.934,0.031
10.062,-0.463,0.930,0.033
10.072,-0.461,0.926,0.031
10.082,-0.463,0.928,0.031
10.092,-0.459,0.924,0.031
10.102,-0.463,0.920,0.031
10.112,-0.461,0.914,0.031
10.122,-0.459,0.916,0.029
10.132,-0.461,0.914,0.031
10.142,-0.463,0.916,0.029
10.152,-0.461,0.916,0.031
10.162,-0.467,0.916,0.029
10.172,-0.467,0.918,0.031
10.181,-0.467,0.920,0.031
10.191,-0.467,0.920,0.025
10.201,-0.467,0.922,0.029
10.211,-0.465,0.918,0.029
10.221,-0.465,0.922,0.029
10.231,-0.465,0.926,0.029
10.241,-0.465,0.924,0.027
10.251,-0.461,0.922,0.029
10.261,-0.463,0.922,0.027
10.271,-0.463,0.928,0.029
10.281,-0.463,0.926,0.031
10.291,-0.463,0.920,0.029
10.301,-0.461,0.918,0.027
10.311,-0.463,0.916,0.025
10.321,-0.461,0.916,0.029
10.330,-0.459,0.920,0.025
10.340,-0.461,0.922,0.029
10.350,-0.457,0.922,0.025
10.360,-0.453,0.926,0.025
10.370,-0.457,0.926,0.021
10.380,-0.455,0.924,0.025
10.390,-0.453,0.922,0.025
10.400,-0.455,0.922,0.025
10.410,-0.453,0.922,0.025
10.420,-0.451,0.924,0.023
10.430,-0.455,0.924,0.021
10.440,-0.451,0.926,0.023
10.450,-0.453,0.922,0.025
10.460,-0.451,0.920,0.025
10.469,-0.451,0.924,0.027
10.479,-0.453,0.924,0.025
10.489,-0.451,0.924,0.023
10.499,-0.453,0.924,0.025
10.509,-0.457,0.922,0.023
10.519,-0.453,0.924,0.025
10.529,-0.455,0.924,0.025
10.539,-0.453,0.926,0.025
10.549,-0.453,0.920,0.027
10.559,-0.455,0.922,0.025
10.569,-0.455,0.928,0.023
10.579,-0.455,0.924,0.027
10.589,-0.453,0.924,0.029
10.599,-0.453,0.922,0.027
10.608,-0.455,0.924,0.029
10.618,-0.457,0.922,0.029
10.628,-0.457,0.924,0.029
10.638,-0.457,0.924,0.031
10.648,-0.457,0.922,0.029
10.658,-0.457,0.922,0.025
10.668,-0.455,0.920,0.027
10.678,-0.455,0.922,0.025
10.688,-0.455,0.920,0.023
10.698,-0.459,0.924,0.027
10.708,-0.459,0.926,0.025
10.718,-0.459,0.926,0.027
10.728,-0.457,0.924,0.025
10.738,-0.457,0.924,0.029
10.747,-0.455,0.922,0.027
10.757,-0.453,0.926,0.027
10.767,-0.459,0.924,0.027
10.777,-0.453,0.918,0.023
10.787,-0.453,0.920,0.027
10.797,-0.453,0.918,0.029
10.807,-0.451,0.918,0.029
10.817,-0.451,0.920,0.031
10.827,-0.455,0.924,0.029
10.837,-0.451,0.926,0.029
10.847,-0.453,0.922,0.027
10.857,-0.457,0.922,0.027
10.867,-0.455,0.928,0.025
10.877,-0.457,0.932,0.027
10.887,-0.459,0.932,0.025
10.896,-0.459,0.932,0.025
10.906,-0.461,0.928,0.031
10.916,-0.459,0.922,0.029
10.926,-0.457,0.918,0.029
10.936,-0.455,0.916,0.027
10.946,-0.457,0.918,0.027
10.956,-0.453,0.918,0.031
10.966,-0.453,0.916,0.027
10.976,-0.455,0.916,0.029
10.986,-0.455,0.918,0.029
10.996,-0.455,0.922,0.027
11.006,-0.457,0.926,0.029
11.016,-0.455,0.924,0.029
11.026,-0.455,0.926,0.027
11.035,-0.457,0.924,0.025
11.045,-0.457,0.924,0.025
11.055,-0.459,0.928,0.027
11.065,-0.455,0.926,0.027
11.075,-0.457,0.926,0.027
11.085,-0.455,0.926,0.027
11.095,-0.459,0.926,0.027
11.105,-0.453,0.926,0.031
11.115,-0.453,0.922,0.025
11.125,-0.451,0.918,0.027
11.135,-0.453,0.920,0.025
11.145,-0.455,0.920,0.027
11.155,-0.455,0.926,0.031
11.165,-0.453,0.926,0.025
11.174,-0.457,0.926,0.025
11.184,-0.455,0.926,0.029
11.194,-0.459,0.928,0.027
11.204,-0.459,0.922,0.025
11.214,-0.457,0.922,0.029
11.224,-0.457,0.922,0.025
11.234,-0.455,0.924,0.027
11.244,-0.455,0.922,0.027
11.254,-0.457,0.922,0.025
11.264,-0.457,0.922,0.029
11.274,-0.455,0.922,0.027
11.284,-0.457,0.920,0.027
11.294,-0.455,0.920,0.027
11.304,-0.457,0.920,0.023
11.313,-0.453,0.920,0.027
11.323,-0.455,0.924,0.027
11.333,-0.455,0.922,0.023
11.343,-0.457,0.928,0.027
11.353,-0.459,0.924,0.025
11.363,-0.457,0.924,0.025
11.373,-0.457,0.926,0.025
11.383,-0.459,0.926,0.023
11.393,-0.455,0.924,0.025
11.403,-0.457,0.926,0.029
11.413,-0.459,0.922,0.027
11.423,-0.459,0.920,0.027
11.433,-0.457,0.922,0.027
11.443,-0.453,0.924,0.027
11.453,-0.455,0.918,0.031
11.462,-0.455,0.922,0.029
11.472,-0.457,0.920,0.025
11.482,-0.457,0.922,0.027
11.492,-0.457,0.924,0.029
11.502,-0.455,0.922,0.027
11.512,-0.459,0.922,0.031
11.522,-0.457,0.924,0.027
11.532,-0.459,0.926,0.027
11.542,-0.457,0.922,0.029
11.552,-0.457,0.920,0.027
11.562,-0.457,0.922,0.027
11.572,-0.459,0.920,0.025
11.582,-0.457,0.918,0.027
11.592,-0.453,0.916,0.027
11.601,-0.455,0.920,0.025
11.611,-0.451,0.920,0.025
11.621,-0.449,0.922,0.025
11.631,-0.451,0.922,0.027
11.641,-0.453,0.926,0.027
11.651,-0.453,0.924,0.027
11.661,-0.459,0.926,0.023
11.671,-0.465,0.926,0.023
11.681,-0.467,0.928,0.027
11.691,-0.469,0.934,0.025
11.701,-0.465,0.930,0.033
11.711,-0.467,0.932,0.029
11.721,-0.465,0.926,0.031
11.731,-0.467,0.916,0.029
11.740,-0.465,0.916,0.031
11.750,-0.461,0.914,0.031
11.760,-0.463,0.912,0.033
11.770,-0.461,0.912,0.035
11.780,-0.461,0.914,0.027
11.790,-0.463,0.914,0.029
11.800,-0.465,0.912,0.031
11.810,-0.467,0.918,0.033
11.820,-0.467,0.920,0.029
11.830,-0.467,0.918,0.023
11.840,-0.467,0.922,0.029
11.850,-0.465,0.920,0.027
11.860,-0.467,0.922,0.027
11.870,-0.465,0.922,0.029
11.880,-0.465,0.922,0.027
11.889,-0.461,0.922,0.029
11.899,-0.461,0.924,0.031
11.909,-0.459,0.926,0.031
11.919,-0.459,0.922,0.029
11.929,-0.459,0.916,0.027
11.939,-0.457,0.916,0.029
11.949,-0.457,0.918,0.029
11.959,-0.461,0.926,0.031
11.969,-0.461,0.926,0.029
11.979,-0.461,0.928,0.031
11.989,-0.459,0.928,0.031
11.999,-0.465,0.924,0.029
12.009,-0.463,0.924,0.031
12.019,-0.459,0.916,0.033
12.028,-0.459,0.918,0.031
12.038,-0.457,0.916,0.029
12.048,-0.459,0.920,0.031
12.058,-0.457,0.918,0.033
12.068,-0.459,0.924,0.035
12.078,-0.457,0.922,0.033
12.088,-0.459,0.922,0.033
12.098,-0.461,0.922,0.033
12.108,-0.463,0.920,0.031
12.118,-0.461,0.920,0.031
12.128,-0.461,0.920,0.031
12.138,-0.465,0.920,0.031
12.148,-0.463,0.920,0.029
12.158,-0.461,0.920,0.031
12.167,-0.463,0.922,0.033
12.177,-0.463,0.924,0.029
12.187,-0.461,0.922,0.033
12.197,-0.463,0.922,0.029
12.207,-0.459,0.918,0.033
12.217,-0.463,0.920,0.033
12.227,-0.463,0.920,0.035
12.237,-0.465,0.920,0.033
12.247,-0.465,0.924,0.035
12.257,-0.463,0.922,0.037
12.267,-0.463,0.922,0.033
12.277,-0.465,0.920,0.035
12.287,-0.467,0.920,0.035
12.297,-0.465,0.918,0.037
12.306,-0.465,0.916,0.037
12.316,-0.463,0.918,0.037
12.326,-0.463,0.918,0.031
12.336,-0.461,0.916,0.035
12.346,-0.457,0.912,0.039
12.356,-0.459,0.922,0.033
12.366,-0.459,0.922,0.037
12.376,-0.455,0.920,0.035
12.386,-0.459,0.918,0.031
12.396,-0.461,0.926,0.031
12.406,-0.463,0.922,0.031
12.416,-0.465,0.922,0.029
12.426,-0.463,0.926,0.031
12.436,-0.463,0.928,0.033
12.446,-0.465,0.930,0.031
12.455,-0.465,0.928,0.039
12.465,-0.461,0.924,0.037
12.475,-0.459,0.918,0.039
12.485,-0.457,0.914,0.037
12.495,-0.459,0.914,0.035
12.505,-0.457,0.910,0.039
12.515,-0.457,0.912,0.037
12.525,-0.459,0.916,0.037
12.535,-0.463,0.918,0.033
12.545,-0.459,0.918,0.033
12.555,-0.465,0.918,0.035
12.565,-0.465,0.920,0.033
12.575,-0.467,0.920,0.031
12.585,-0.463,0.920,0.033
12.594,-0.465,0.926,0.033
12.604,-0.463,0.928,0.029
12.614,-0.461,0.924,0.029
12.624,-0.457,0.924,0.035
12.634,-0.463,0.926,0.035
12.644,-0.457,0.926,0.033
12.654,-0.457,0.922,0.035
12.664,-0.457,0.918,0.033
12.674,-0.459,0.916,0.033
12.684,-0.459,0.920,0.033
12.694,-0.457,0.926,0.035
12.704,-0.459,0.922,0.029
12.714,-0.455,0.924,0.035
12.724,-0.459,0.926,0.039
12.733,-0.459,0.922,0.037
12.743,-0.457,0.918,0.035
12.753,-0.457,0.924,0.031
12.763,-0.457,0.920,0.031
12.773,-0.459,0.920,0.033
12.783,-0.461,0.922,0.035
12.793,-0.459,0.924,0.035
12.803,-0.461,0.922,0.037
12.813,-0.459,0.924,0.037
12.823,-0.463,0.920,0.035
12.833,-0.461,0.924,0.037
12.843,-0.461,0.920,0.037
12.853,-0.459,0.920,0.037
12.863,-0.459,0.916,0.033
12.872,-0.459,0.918,0.035
12.882,-0.459,0.922,0.039
12.892,-0.459,0.920,0.035
12.902,-0.457,0.922,0.037
12.912,-0.461,0.926,0.033
12.922,-0.457,0.922,0.037
12.932,-0.463,0.924,0.033
12.942,-0.461,0.922,0.033
12.952,-0.463,0.924,0.035
12.962,-0.465,0.926,0.033
12.972,-0.463,0.926,0.033
12.982,-0.461,0.922,0.031
12.992,-0.463,0.926,0.035
13.002,-0.457,0.920,0.037
13.012,-0.459,0.922,0.035
13.021,-0.459,0.922,0.033
13.031,-0.455,0.922,0.035
13.041,-0.455,0.918,0.035
13.051,-0.453,0.916,0.035
13.061,-0.455,0.922,0.037
13.071,-0.457,0.922,0.035
13.081,-0.457,0.924,0.035
13.091,-0.459,0.922,0.033
13.101,-0.459,0.924,0.031
13.111,-0.461,0.922,0.033
13.121,-0.461,0.924,0.029
13.131,-0.463,0.926,0.033
13.141,-0.465,0.932,0.037
13.151,-0.465,0.936,0.037
13.160,-0.461,0.934,0.037
13.170,-0.459,0.924,0.037
13.180,-0.463,0.922,0.035
13.190,-0.461,0.914,0.037
13.200,-0.459,0.910,0.035
13.210,-0.457,0.912,0.037
13.220,-0.459,0.912,0.037
13.230,-0.457,0.912,0.037
13.240,-0.455,0.912,0.035
13.250,-0.457,0.918,0.035
13.260,-0.459,0.922,0.035
13.270,-0.459,0.922,0.031
13.280,-0.463,0.928,0.029
13.290,-0.459,0.928,0.029
13.299,-0.463,0.924,0.033
13.309,-0.463,0.926,0.025
13.319,-0.463,0.928,0.027
13.329,-0.459,0.922,0.029
13.339,-0.457,0.924,0.031
13.349,-0.457,0.928,0.031
13.359,-0.459,0.932,0.035
13.369,-0.451,0.928,0.033
13.379,-0.457,0.922,0.033
13.389,-0.455,0.920,0.033
13.399,-0.455,0.920,0.033
13.409,-0.457,0.924,0.031
13.419,-0.453,0.926,0.033
13.429,-0.455,0.928,0.033
13.438,-0.451,0.924,0.035
13.448,-0.459,0.926,0.037
13.458,-0.457,0.924,0.033
13.468,-0.457,0.922,0.035
13.478,-0.457,0.920,0.035
13.488,-0.459,0.922,0.033
13.498,-0.455,0.922,0.033
13.508,-0.455,0.924,0.035
13.518,-0.455,0.926,0.033
13.528,-0.455,0.924,0.031
13.538,-0.455,0.924,0.033
13.548,-0.457,0.922,0.031
13.558,-0.457,0.922,0.031
13.568,-0.459,0.924,0.031
13.578,-0.461,0.920,0.033
13.587,-0.459,0.920,0.031
13.597,-0.459,0.924,0.037
13.607,-0.457,0.926,0.033
13.617,-0.455,0.924,0.031
13.627,-0.457,0.926,0.033
13.637,-0.457,0.926,0.033
13.647,-0.459,0.924,0.035
13.657,-0.459,0.922,0.031
13.667,-0.457,0.920,0.033
13.677,-0.457,0.920,0.033
13.687,-0.459,0.924,0.033
13.697,-0.459,0.924,0.029
13.707,-0.461,0.918,0.029
13.717,-0.461,0.924,0.027
13.726,-0.459,0.926,0.029
13.736,-0.457,0.926,0.031
13.746,-0.459,0.922,0.033
13.756,-0.457,0.926,0.033
13.766,-0.457,0.926,0.029
13.776,-0.457,0.926,0.031
13.786,-0.455,0.920,0.031
13.796,-0.457,0.920,0.031
13.806,-0.453,0.922,0.031
13.816,-0.453,0.924,0.033
13.826,-0.455,0.922,0.031
13.836,-0.451,0.926,0.031
13.846,-0.449,0.924,0.029
13.856,-0.451,0.926,0.033
13.865,-0.453,0.928,0.029
13.875,-0.459,0.930,0.031
13.885,-0.453,0.928,0.033
13.895,-0.457,0.932,0.031
13.905,-0.459,0.926,0.031
13.915,-0.461,0.928,0.029
13.925,-0.465,0.924,0.027
13.935,-0.457,0.924,0.031
13.945,-0.455,0.920,0.035
13.955,-0.455,0.920,0.033
13.965,-0.453,0.918,0.033
13.975,-0.453,0.922,0.033
13.985,-0.455,0.918,0.033
13.995,-0.457,0.920,0.031
14.004,-0.459,0.920,0.029
14.014,-0.461,0.926,0.029
14.024,-0.461,0.924,0.029
14.034,-0.463,0.924,0.027
14.044,-0.463,0.926,0.027
14.054,-0.459,0.928,0.029
14.064,-0.461,0.924,0.027
14.074,-0.459,0.922,0.029
14.084,-0.457,0.926,0.027
14.094,-0.457,0.928,0.031
14.104,-0.455,0.924,0.031
14.114,-0.453,0.918,0.029
14.124,-0.451,0.918,0.029
14.134,-0.453,0.918,0.031
14.144,-0.453,0.924,0.029
14.153,-0.455,0.928,0.031
14.163,-0.455,0.926,0.033
14.173,-0.455,0.928,0.033
14.183,-0.459,0.922,0.033
14.193,-0.461,0.920,0.031
14.203,-0.459,0.920,0.033
14.213,-0.461,0.922,0.033
14.223,-0.459,0.920,0.031
14.233,-0.461,0.924,0.031
14.243,-0.457,0.924,0.035
14.253,-0.459,0.924,0.033
14.263,-0.457,0.922,0.033
14.273,-0.459,0.924,0.031
14.283,-0.455,0.922,0.033
14.292,-0.455,0.922,0.029
14.302,-0.457,0.926,0.031
14.312,-0.457,0.920,0.031
14.322,-0.453,0.922,0.033
14.332,-0.455,0.926,0.029
14.342,-0.455,0.922,0.029
14.352,-0.455,0.924,0.031
14.362,-0.457,0.924,0.031
14.372,-0.457,0.922,0.033
14.382,-0.455,0.924,0.031
14.392,-0.455,0.926,0.031
14.402,-0.459,0.922,0.033
14.412,-0.457,0.924,0.035
14.422,-0.455,0.924,0.033
14.431,-0.459,0.928,0.031
14.441,-0.461,0.924,0.033
14.451,-0.459,0.922,0.029
14.461,-0.463,0.922,0.033
14.471,-0.459,0.922,0.033
14.481,-0.463,0.924,0.031
14.491,-0.459,0.924,0.033
14.501,-0.459,0.924,0.031
14.511,-0.461,0.920,0.029
14.521,-0.459,0.922,0.035
14.531,-0.459,0.924,0.031
14.541,-0.459,0.922,0.035
14.551,-0.457,0.922,0.035
14.561,-0.457,0.918,0.033
14.571,-0.455,0.920,0.033
14.580,-0.455,0.920,0.033
14.590,-0.457,0.922,0.035
14.600,-0.455,0.926,0.035
14.610,-0.457,0.926,0.031
14.620,-0.457,0.924,0.031
14.630,-0.459,0.926,0.033
14.640,-0.463,0.932,0.031
14.650,-0.465,0.934,0.033
14.660,-0.461,0.930,0.033
14.670,-0.465,0.928,0.035
14.680,-0.467,0.924,0.035
14.690,-0.467,0.920,0.035
14.700,-0.461,0.916,0.035
14.710,-0.455,0.914,0.037
14.719,-0.455,0.914,0.037
14.729,-0.453,0.914,0.035
14.739,-0.459,0.918,0.035
14.749,-0.457,0.918,0.035
14.759,-0.457,0.920,0.029
14.769,-0.459,0.922,0.033
14.779,-0.461,0.922,0.031
14.789,-0.465,0.926,0.029
14.799,-0.465,0.926,0.027
14.809,-0.463,0.924,0.027
14.819,-0.461,0.924,0.027
14.829,-0.461,0.924,0.029
14.839,-0.461,0.922,0.029
14.849,-0.459,0.924,0.029
14.858,-0.461,0.924,0.029
14.868,-0.459,0.926,0.033
14.878,-0.459,0.920,0.029
14.888,-0.459,0.918,0.027
14.898,-0.457,0.918,0.033
14.908,-0.459,0.922,0.029
14.918,-0.459,0.928,0.031
14.928,-0.461,0.928,0.031
14.938,-0.461,0.930,0.033
14.948,-0.461,0.928,0.033
14.958,-0.461,0.928,0.033
14.968,-0.457,0.922,0.031
14.978,-0.459,0.920,0.031
14.988,-0.459,0.918,0.037
14.997,-0.459,0.922,0.033
15.007,-0.459,0.918,0.035
15.017,-0.463,0.920,0.035
15.027,-0.459,0.920,0.027
15.037,-0.461,0.920,0.033
15.047,-0.463,0.920,0.035
15.057,-0.463,0.918,0.033
15.067,-0.463,0.924,0.031
15.077,-0.463,0.922,0.031
15.087,-0.461,0.922,0.033
15.097,-0.463,0.922,0.029
15.107,-0.463,0.920,0.031
15.117,-0.463,0.922,0.031
15.127,-0.463,0.922,0.031
15.137,-0.463,0.924,0.033
15.146,-0.465,0.924,0.033
15.156,-0.461,0.922,0.035
15.166,-0.465,0.924,0.033
15.176,-0.465,0.920,0.033
15.186,-0.465,0.922,0.031
15.196,-0.465,0.922,0.031
15.206,-0.465,0.920,0.035
15.216,-0.465,0.924,0.037
15.226,-0.465,0.926,0.035
15.236,-0.461,0.924,0.035
15.246,-0.467,0.926,0.033
15.256,-0.467,0.920,0.037
15.266,-0.463,0.916,0.035
15.276,-0.463,0.924,0.033
15.285,-0.463,0.918,0.035
15.295,-0.457,0.914,0.037
15.305,-0.459,0.914,0.039
15.315,-0.459,0.918,0.035
15.325,-0.459,0.920,0.037
15.335,-0.461,0.922,0.037
15.345,-0.461,0.924,0.035
15.355,-0.461,0.920,0.035
15.365,-0.463,0.922,0.033
15.375,-0.463,0.926,0.033
15.385,-0.463,0.928,0.035
15.395,-0.463,0.930,0.037
15.405,-0.463,0.932,0.037
15.415,-0.465,0.932,0.041
15.424,-0.465,0.922,0.039
15.434,-0.463,0.918,0.039
15.444,-0.463,0.916,0.041
15.454,-0.459,0.910,0.039
15.464,-0.461,0.910,0.039
15.474,-0.457,0.908,0.041
15.484,-0.461,0.914,0.037
15.494,-0.463,0.914,0.041
15.504,-0.459,0.920,0.039
15.514,-0.461,0.920,0.035
15.524,-0.467,0.922,0.035
15.534,-0.463,0.926,0.035
15.544,-0.467,0.922,0.031
15.554,-0.467,0.922,0.033
15.563,-0.465,0.926,0.031
15.573,-0.465,0.924,0.031
15.583,-0.463,0.922,0.035
15.593,-0.463,0.922,0.035
15.603,-0.459,0.926,0.037
15.613,-0.455,0.926,0.037
15.623,-0.457,0.922,0.033
15.633,-0.459,0.920,0.033
15.643,-0.459,0.916,0.037
15.653,-0.457,0.924,0.037
15.663,-0.455,0.924,0.035
15.673,-0.457,0.926,0.035
15.683,-0.463,0.926,0.037
15.693,-0.465,0.922,0.037
15.703,-0.463,0.922,0.033
15.712,-0.463,0.922,0.035
15.722,-0.463,0.920,0.035
15.732,-0.459,0.922,0.037
15.742,-0.459,0.924,0.035
15.752,-0.459,0.924,0.037
15.762,-0.455,0.924,0.037
15.772,-0.459,0.926,0.037
15.782,-0.461,0.922,0.037
15.792,-0.461,0.922,0.039
15.802,-0.461,0.918,0.039
15.812,-0.459,0.922,0.033
15.822,-0.459,0.920,0.037
15.832,-0.461,0.922,0.037
15.842,-0.463,0.922,0.037
15.851,-0.461,0.922,0.037
15.861,-0.461,0.924,0.033
15.871,-0.459,0.922,0.035
15.881,-0.461,0.924,0.035
15.891,-0.461,0.922,0.035
15.901,-0.459,0.926,0.037
15.911,-0.463,0.922,0.035
15.921,-0.465,0.924,0.035
15.931,-0.461,0.920,0.037
15.941,-0.461,0.922,0.037
15.951,-0.461,0.922,0.037
15.961,-0.461,0.924,0.035
15.971,-0.463,0.926,0.037
15.981,-0.463,0.926,0.035
15.990,-0.459,0.924,0.035
16.000,-0.459,0.922,0.039
16.010,-0.461,0.918,0.037
16.020,-0.459,0.924,0.033
16.030,-0.455,0.920,0.039
16.040,-0.455,0.916,0.037
16.050,-0.457,0.918,0.039
16.060,-0.457,0.922,0.039
16.070,-0.457,0.922,0.039
16.080,-0.457,0.922,0.039
16.090,-0.457,0.924,0.037
16.100,-0.455,0.922,0.037
16.110,-0.459,0.926,0.035
16.120,-0.461,0.926,0.035
16.129,-0.459,0.930,0.039
16.139,-0.465,0.934,0.037
16.149,-0.463,0.932,0.039
16.159,-0.459,0.928,0.039
16.169,-0.461,0.926,0.043
16.179,-0.457,0.920,0.041
16.189,-0.459,0.918,0.043
16.199,-0.459,0.916,0.043
16.209,-0.459,0.914,0.039
16.219,-0.459,0.916,0.037
16.229,-0.461,0.914,0.039
16.239,-0.461,0.922,0.035
16.249,-0.465,0.920,0.037
16.259,-0.465,0.920,0.035
16.269,-0.467,0.926,0.039
16.278,-0.465,0.928,0.035
16.288,-0.465,0.926,0.035
16.298,-0.463,0.926,0.035
16.308,-0.463,0.926,0.035
16.318,-0.461,0.924,0.033
16.328,-0.455,0.920,0.035
16.338,-0.461,0.928,0.037
16.348,-0.455,0.926,0.037
16.358,-0.457,0.926,0.037
16.368,-0.457,0.922,0.033
16.378,-0.457,0.920,0.037
16.388,-0.457,0.918,0.033
16.398,-0.457,0.922,0.033
16.408,-0.457,0.924,0.035
16.417,-0.455,0.928,0.039
16.427,-0.459,0.930,0.039
16.437,-0.457,0.928,0.039
16.447,-0.457,0.926,0.035
16.457,-0.459,0.924,0.037
16.467,-0.459,0.922,0.035
16.477,-0.459,0.926,0.035
16.487,-0.457,0.924,0.033
16.497,-0.455,0.924,0.035
16.507,-0.459,0.926,0.033
16.517,-0.459,0.926,0.035
16.527,-0.459,0.922,0.035
16.537,-0.459,0.926,0.033
16.547,-0.463,0.924,0.037
16.556,-0.457,0.922,0.035
16.566,-0.457,0.922,0.033
16.576,-0.459,0.924,0.035
16.586,-0.455,0.922,0.035
16.596,-0.457,0.922,0.035
16.606,-0.453,0.924,0.039
16.616,-0.457,0.924,0.037
16.626,-0.455,0.926,0.035
16.636,-0.455,0.924,0.033
16.646,-0.459,0.924,0.037
16.656,-0.455,0.926,0.037
16.666,-0.461,0.924,0.033
16.676,-0.457,0.926,0.037
16.686,-0.459,0.922,0.033
16.695,-0.455,0.926,0.037
16.705,-0.457,0.926,0.037
16.715,-0.455,0.926,0.033
16.725,-0.455,0.924,0.033
16.735,-0.457,0.924,0.035
16.745,-0.459,0.924,0.033
16.755,-0.455,0.928,0.033
16.765,-0.453,0.922,0.033
16.775,-0.457,0.926,0.035
16.785,-0.457,0.926,0.031
16.795,-0.457,0.926,0.031
16.805,-0.457,0.924,0.035
16.815,-0.455,0.926,0.031
16.825,-0.457,0.924,0.029
16.835,-0.457,0.920,0.033
16.844,-0.457,0.920,0.033
16.854,-0.453,0.922,0.037
16.864,-0.455,0.922,0.037
16.874,-0.455,0.926,0.035
16.884,-0.455,0.928,0.035
16.894,-0.457,0.926,0.033
16.904,-0.457,0.928,0.031
16.914,-0.459,0.924,0.029
16.924,-0.455,0.926,0.035
16.934,-0.457,0.934,0.035
16.944,-0.457,0.932,0.037
16.954,-0.459,0.932,0.035
16.964,-0.461,0.928,0.037
16.974,-0.463,0.926,0.037
16.983,-0.459,0.920,0.033
16.993,-0.461,0.920,0.033
17.003,-0.459,0.918,0.035
17.013,-0.459,0.918,0.037
17.023,-0.459,0.920,0.033
17.033,-0.457,0.920,0.039
17.043,-0.459,0.922,0.033
17.053,-0.457,0.922,0.029
17.063,-0.459,0.924,0.035
17.073,-0.461,0.924,0.033
17.083,-0.459,0.924,0.033
17.093,-0.461,0.924,0.031
17.103,-0.461,0.924,0.031
17.113,-0.459,0.928,0.031
17.122,-0.459,0.928,0.031
17.132,-0.457,0.924,0.035
17.142,-0.457,0.928,0.031
17.152,-0.459,0.930,0.031
17.162,-0.453,0.926,0.035
17.172,-0.453,0.920,0.031
17.182,-0.455,0.920,0.029
17.192,-0.455,0.920,0.031
17.202,-0.455,0.922,0.035
17.212,-0.457,0.928,0.035
17.222,-0.453,0.930,0.035
17.232,-0.455,0.926,0.035
17.242,-0.459,0.926,0.037
17.252,-0.455,0.922,0.031
17.262,-0.455,0.924,0.031
17.271,-0.457,0.924,0.033
17.281,-0.453,0.922,0.035
17.291,-0.459,0.924,0.035
17.301,-0.455,0.924,0.033
17.311,-0.455,0.924,0.033
17.321,-0.457,0.924,0.037
17.331,-0.461,0.922,0.037
17.341,-0.459,0.920,0.035
17.351,-0.457,0.922,0.033
17.361,-0.457,0.924,0.035
17.371,-0.459,0.922,0.033
17.381,-0.459,0.922,0.033
17.391,-0.459,0.924,0.029
17.401,-0.461,0.924,0.033
17.410,-0.457,0.926,0.031
17.420,-0.459,0.926,0.027
17.430,-0.453,0.924,0.033
17.440,-0.459,0.924,0.035
17.450,-0.461,0.926,0.035
17.460,-0.457,0.924,0.031
17.470,-0.455,0.920,0.037
17.480,-0.455,0.924,0.033
17.490,-0.455,0.924,0.033
17.500,-0.459,0.924,0.033
17.510,-0.459,0.928,0.035
17.520,-0.459,0.924,0.033
17.530,-0.459,0.924,0.037
17.540,-0.457,0.924,0.035
17.549,-0.459,0.924,0.035
17.559,-0.459,0.924,0.035
17.569,-0.459,0.924,0.037
17.579,-0.453,0.928,0.035
17.589,-0.457,0.924,0.037
17.599,-0.457,0.926,0.035
17.609,-0.455,0.924,0.035
17.619,-0.459,0.928,0.033
17.629,-0.457,0.926,0.035
17.639,-0.459,0.926,0.031
17.649,-0.459,0.926,0.037
17.659,-0.459,0.924,0.033
17.669,-0.459,0.924,0.033
17.679,-0.459,0.928,0.031
17.688,-0.457,0.922,0.033
17.698,-0.459,0.922,0.035
17.708,-0.455,0.920,0.035
17.718,-0.455,0.918,0.037
17.728,-0.453,0.918,0.037
17.738,-0.455,0.922,0.039
17.748,-0.457,0.922,0.037
17.758,-0.455,0.922,0.035
17.768,-0.459,0.922,0.033
17.778,-0.463,0.926,0.037
17.788,-0.461,0.930,0.035
17.798,-0.461,0.932,0.037
17.808,-0.463,0.930,0.035
17.818,-0.463,0.928,0.037
17.828,-0.463,0.924,0.041
17.837,-0.463,0.920,0.037
17.847,-0.459,0.914,0.037
17.857,-0.457,0.916,0.041
17.867,-0.457,0.914,0.035
17.877,-0.457,0.912,0.035
17.887,-0.459,0.914,0.035
17.897,-0.459,0.918,0.035
17.907,-0.459,0.922,0.035
17.917,-0.459,0.924,0.033
17.927,-0.463,0.926,0.033
17.937,-0.465,0.926,0.033
17.947,-0.463,0.926,0.033
17.957,-0.463,0.926,0.035
17.967,-0.461,0.926,0.029
17.976,-0.461,0.928,0.031
17.986,-0.461,0.928,0.031
17.996,-0.459,0.926,0.033
18.006,-0.457,0.926,0.037
18.016,-0.455,0.926,0.035
18.026,-0.457,0.920,0.037
18.036,-0.451,0.918,0.035
18.046,-0.455,0.920,0.029
18.056,-0.459,0.920,0.035
18.066,-0.459,0.924,0.035
18.076,-0.459,0.928,0.039
18.086,-0.455,0.930,0.037
18.096,-0.459,0.930,0.035
18.106,-0.459,0.924,0.035
18.115,-0.457,0.922,0.035
18.125,-0.457,0.920,0.039
18.135,-0.461,0.924,0.035
18.145,-0.455,0.918,0.039
18.155,-0.455,0.920,0.037
18.165,-0.457,0.922,0.037
18.175,-0.457,0.924,0.041
18.185,-0.455,0.922,0.035
18.195,-0.459,0.924,0.037
18.205,-0.461,0.926,0.035
18.215,-0.463,0.926,0.033
18.225,-0.463,0.924,0.033
18.235,-0.463,0.922,0.033
18.245,-0.463,0.922,0.035
18.254,-0.461,0.924,0.035
18.264,-0.459,0.924,0.035
18.274,-0.459,0.920,0.033
18.284,-0.457,0.926,0.037
18.294,-0.459,0.928,0.035
18.304,-0.457,0.926,0.037
18.314,-0.459,0.926,0.039
18.324,-0.459,0.928,0.039
18.334,-0.461,0.924,0.041
18.344,-0.459,0.926,0.035
18.354,-0.459,0.922,0.039
18.364,-0.459,0.920,0.035
18.374,-0.461,0.920,0.033
18.384,-0.461,0.920,0.039
18.394,-0.461,0.922,0.037
18.403,-0.457,0.926,0.039
18.413,-0.461,0.924,0.041
18.423,-0.457,0.926,0.039
18.433,-0.457,0.922,0.041
18.443,-0.459,0.924,0.041
18.453,-0.457,0.922,0.037
18.463,-0.459,0.920,0.041
18.473,-0.459,0.920,0.039
18.483,-0.457,0.918,0.039
18.493,-0.457,0.920,0.037
18.503,-0.457,0.922,0.041
18.513,-0.459,0.926,0.041
18.523,-0.457,0.924,0.039
18.533,-0.457,0.924,0.041
18.542,-0.457,0.924,0.037
18.552,-0.459,0.926,0.035
18.562,-0.461,0.928,0.039
18.572,-0.461,0.930,0.037
18.582,-0.463,0.932,0.039
18.592,-0.463,0.932,0.037
18.602,-0.465,0.928,0.043
18.612,-0.461,0.920,0.039
18.622,-0.459,0.924,0.039
18.632,-0.461,0.916,0.039
18.642,-0.455,0.914,0.045
18.652,-0.459,0.912,0.043
18.662,-0.457,0.916,0.041
18.672,-0.455,0.916,0.039
18.681,-0.459,0.916,0.035
18.691,-0.459,0.918,0.037
18.701,-0.461,0.922,0.035
18.711,-0.463,0.924,0.035
18.721,-0.467,0.926,0.035
18.731,-0.463,0.924,0.035
18.741,-0.465,0.928,0.033
18.751,-0.463,0.930,0.033
18.761,-0.461,0.926,0.033
18.771,-0.459,0.924,0.033
18.781,-0.459,0.926,0.035
18.791,-0.457,0.922,0.039
18.801,-0.451,0.926,0.035
18.811,-0.459,0.920,0.035
18.820,-0.457,0.922,0.037
18.830,-0.463,0.920,0.037
18.840,-0.459,0.926,0.039
18.850,-0.459,0.926,0.039
18.860,-0.461,0.926,0.039
18.870,-0.459,0.926,0.039
18.880,-0.459,0.924,0.039
18.890,-0.459,0.920,0.037
18.900,-0.459,0.920,0.037
18.910,-0.455,0.924,0.035
18.920,-0.457,0.924,0.037
18.930,-0.455,0.924,0.039
18.940,-0.457,0.924,0.041
18.950,-0.459,0.924,0.039
18.960,-0.459,0.924,0.041
18.969,-0.461,0.916,0.041
18.979,-0.461,0.920,0.037
18.989,-0.461,0.920,0.043
18.999,-0.459,0.920,0.039
19.009,-0.461,0.920,0.039
19.019,-0.459,0.920,0.037
19.029,-0.459,0.922,0.037
19.039,-0.457,0.924,0.037
19.049,-0.461,0.928,0.037
19.059,-0.457,0.928,0.039
19.069,-0.455,0.924,0.041
19.079,-0.457,0.930,0.039
19.089,-0.463,0.924,0.039
19.099,-0.459,0.922,0.037
19.108,-0.459,0.928,0.035
19.118,-0.461,0.922,0.035
19.128,-0.457,0.924,0.037
19.138,-0.459,0.924,0.041
19.148,-0.455,0.928,0.037
19.158,-0.459,0.926,0.033
19.168,-0.457,0.926,0.037
19.178,-0.457,0.926,0.039
19.188,-0.457,0.922,0.039
19.198,-0.457,0.924,0.039
19.208,-0.457,0.924,0.037
19.218,-0.457,0.920,0.037
19.228,-0.451,0.914,0.039
19.238,-0.457,0.922,0.039
19.247,-0.453,0.924,0.041
19.257,-0.455,0.924,0.039
19.267,-0.459,0.924,0.039
19.277,-0.457,0.926,0.035
19.287,-0.459,0.928,0.037
19.297,-0.463,0.930,0.035
19.307,-0.469,0.932,0.035
19.317,-0.467,0.936,0.037
19.327,-0.467,0.938,0.039
19.337,-0.465,0.930,0.039
19.347,-0.463,0.924,0.041
19.357,-0.457,0.922,0.041
19.367,-0.455,0.920,0.043
19.377,-0.459,0.920,0.041
19.386,-0.451,0.920,0.043
19.396,-0.451,0.916,0.043
19.406,-0.449,0.918,0.047
19.416,-0.453,0.918,0.043
19.426,-0.453,0.922,0.041
19.436,-0.451,0.924,0.041
19.446,-0.453,0.924,0.041
19.456,-0.451,0.926,0.041
19.466,-0.449,0.930,0.041
19.476,-0.453,0.928,0.037
19.486,-0.445,0.932,0.037
19.496,-0.449,0.928,0.037
19.506,-0.447,0.924,0.035
19.516,-0.449,0.928,0.041
19.526,-0.447,0.928,0.041
19.535,-0.451,0.932,0.045
19.545,-0.449,0.928,0.041
19.555,-0.451,0.926,0.037
19.565,-0.451,0.924,0.037
19.575,-0.453,0.924,0.039
19.585,-0.453,0.928,0.037
19.595,-0.455,0.926,0.035
19.605,-0.459,0.926,0.039
19.615,-0.459,0.924,0.039
19.625,-0.461,0.926,0.039
19.635,-0.459,0.920,0.037
19.645,-0.461,0.924,0.037
19.655,-0.461,0.926,0.039
19.665,-0.459,0.926,0.037
19.674,-0.459,0.924,0.037
19.684,-0.459,0.924,0.037
19.694,-0.459,0.926,0.037
19.704,-0.457,0.924,0.035
19.714,-0.461,0.924,0.037
19.724,-0.459,0.926,0.037
19.734,-0.461,0.924,0.037
19.744,-0.461,0.922,0.037
19.754,-0.457,0.920,0.033
19.764,-0.461,0.920,0.035
19.774,-0.461,0.926,0.035
19.784,-0.459,0.926,0.037
19.794,-0.457,0.926,0.037
19.804,-0.457,0.926,0.037
19.813,-0.455,0.928,0.033
19.823,-0.459,0.926,0.037
19.833,-0.457,0.926,0.037
19.843,-0.455,0.928,0.037
19.853,-0.451,0.926,0.037
19.863,-0.453,0.928,0.037
19.873,-0.455,0.928,0.039
19.883,-0.453,0.928,0.035
19.893,-0.453,0.924,0.039
19.903,-0.453,0.926,0.037
19.913,-0.453,0.928,0.037
19.923,-0.457,0.930,0.041
19.933,-0.457,0.928,0.039
19.943,-0.453,0.928,0.039
19.952,-0.451,0.930,0.037
19.962,-0.455,0.926,0.037
19.972,-0.451,0.926,0.035
19.982,-0.453,0.928,0.037
19.992,-0.453,0.924,0.035
20.002,-0.447,0.922,0.039
20.012,-0.449,0.922,0.039
20.022,-0.445,0.924,0.041
20.032,-0.443,0.922,0.043
20.042,-0.443,0.920,0.041
20.052,-0.447,0.924,0.043
20.062,-0.453,0.928,0.037
20.072,-0.453,0.930,0.035
20.082,-0.459,0.928,0.039
20.092,-0.461,0.928,0.037
20.101,-0.463,0.932,0.037
20.111,-0.457,0.934,0.039
20.121,-0.457,0.934,0.041
20.131,-0.461,0.928,0.039
20.141,-0.461,0.926,0.041
20.151,-0.459,0.922,0.043
20.161,-0.457,0.920,0.037
20.171,-0.457,0.920,0.039
20.181,-0.453,0.920,0.041
20.191,-0.453,0.918,0.039
20.201,-0.455,0.922,0.039
20.211,-0.453,0.920,0.041
20.221,-0.453,0.920,0.035
20.231,-0.457,0.924,0.039
20.240,-0.455,0.922,0.035
20.250,-0.455,0.926,0.039
20.260,-0.455,0.930,0.037
20.270,-0.455,0.928,0.037
20.280,-0.455,0.930,0.037
20.290,-0.453,0.928,0.033
20.300,-0.453,0.926,0.037
20.310,-0.455,0.926,0.035
20.320,-0.457,0.932,0.039
20.330,-0.453,0.930,0.037
20.340,-0.455,0.928,0.037
20.350,-0.457,0.918,0.035
20.360,-0.455,0.922,0.037
20.370,-0.455,0.922,0.033
20.379,-0.453,0.924,0.037
20.389,-0.453,0.930,0.035
20.399,-0.453,0.934,0.037
20.409,-0.451,0.930,0.039
20.419,-0.457,0.928,0.035
20.429,-0.457,0.926,0.037
20.439,-0.457,0.928,0.033
20.449,-0.457,0.928,0.037
20.459,-0.457,0.924,0.035
20.469,-0.455,0.924,0.035
20.479,-0.455,0.926,0.033
20.489,-0.453,0.922,0.037
20.499,-0.455,0.922,0.037
20.509,-0.457,0.924,0.037
20.519,-0.457,0.922,0.039
20.528,-0.455,0.922,0.037
20.538,-0.457,0.926,0.037
20.548,-0.455,0.924,0.035
20.558,-0.455,0.926,0.037
20.568,-0.457,0.926,0.037
20.578,-0.457,0.930,0.035
20.588,-0.455,0.926,0.037
20.598,-0.453,0.930,0.039
20.608,-0.455,0.928,0.035
20.618,-0.455,0.928,0.037
20.628,-0.455,0.924,0.037
20.638,-0.455,0.924,0.037
20.648,-0.457,0.922,0.039
20.658,-0.453,0.920,0.035
20.667,-0.451,0.922,0.037
20.677,-0.453,0.924,0.039
20.687,-0.453,0.924,0.041
20.697,-0.453,0.924,0.039
20.707,-0.455,0.926,0.039
20.717,-0.457,0.928,0.039
20.727,-0.455,0.928,0.039
20.737,-0.457,0.928,0.039
20.747,-0.457,0.926,0.035
20.757,-0.455,0.926,0.037
20.767,-0.455,0.926,0.039
20.777,-0.453,0.926,0.035
20.787,-0.455,0.926,0.041
20.797,-0.453,0.922,0.039
20.806,-0.455,0.924,0.037
20.816,-0.451,0.922,0.039
20.826,-0.447,0.924,0.041
20.836,-0.453,0.924,0.043
20.846,-0.453,0.926,0.039
20.856,-0.455,0.928,0.039
20.866,-0.457,0.920,0.037
20.876,-0.459,0.926,0.039
20.886,-0.459,0.930,0.035
20.896,-0.457,0.932,0.037
20.906,-0.457,0.932,0.037
20.916,-0.457,0.932,0.039
20.926,-0.459,0.926,0.039
20.936,-0.459,0.924,0.039
20.945,-0.457,0.920,0.039
20.955,-0.453,0.922,0.041
20.965,-0.455,0.920,0.041
20.975,-0.453,0.920,0.035
20.985,-0.455,0.920,0.041
20.995,-0.453,0.920,0.041
21.005,-0.457,0.922,0.041
21.015,-0.457,0.924,0.037
21.025,-0.457,0.924,0.039
21.035,-0.463,0.926,0.039
21.045,-0.459,0.926,0.037
21.055,-0.455,0.926,0.037
21.065,-0.461,0.928,0.037
21.075,-0.459,0.928,0.033
21.085,-0.459,0.926,0.037
21.094,-0.459,0.926,0.037
21.104,-0.457,0.930,0.037
21.114,-0.455,0.930,0.041
21.124,-0.455,0.928,0.041
21.134,-0.453,0.924,0.043
21.144,-0.451,0.920,0.039
21.154,-0.451,0.922,0.037
21.164,-0.455,0.926,0.041
21.174,-0.455,0.932,0.039
21.184,-0.457,0.930,0.041
21.194,-0.453,0.930,0.041
21.204,-0.455,0.928,0.043
21.214,-0.457,0.928,0.041
21.224,-0.453,0.926,0.043
21.233,-0.455,0.924,0.041
21.243,-0.457,0.924,0.047
21.253,-0.455,0.922,0.043
21.263,-0.455,0.924,0.041
21.273,-0.455,0.924,0.043
21.283,-0.455,0.924,0.041
21.293,-0.457,0.924,0.043
21.303,-0.457,0.926,0.041
21.313,-0.453,0.924,0.041
21.323,-0.453,0.924,0.041
21.333,-0.451,0.926,0.039
21.343,-0.453,0.922,0.039
21.353,-0.453,0.928,0.037
21.363,-0.455,0.926,0.041
21.372,-0.457,0.928,0.039
21.382,-0.455,0.926,0.039
21.392,-0.451,0.926,0.039
21.402,-0.453,0.926,0.041
21.412,-0.455,0.926,0.039
21.422,-0.453,0.928,0.039
21.432,-0.453,0.928,0.039
21.442,-0.453,0.928,0.041
21.452,-0.457,0.926,0.041
21.462,-0.451,0.924,0.043
21.472,-0.457,0.932,0.043
21.482,-0.455,0.926,0.041
21.492,-0.455,0.922,0.041
21.502,-0.455,0.924,0.039
21.511,-0.455,0.924,0.041
21.521,-0.457,0.926,0.043
21.531,-0.457,0.926,0.041
21.541,-0.459,0.928,0.041
21.551,-0.459,0.930,0.041
21.561,-0.459,0.926,0.041
21.571,-0.457,0.924,0.041
21.581,-0.455,0.924,0.039
21.591,-0.455,0.922,0.039
21.601,-0.451,0.920,0.041
21.611,-0.449,0.922,0.043
21.621,-0.453,0.922,0.043
21.631,-0.449,0.924,0.045
21.641,-0.451,0.930,0.047
21.651,-0.449,0.928,0.041
21.660,-0.451,0.928,0.039
21.670,-0.455,0.928,0.041
21.680,-0.461,0.930,0.039
21.690,-0.463,0.936,0.041
21.700,-0.463,0.938,0.041
21.710,-0.461,0.934,0.041
21.720,-0.459,0.932,0.041
21.730,-0.463,0.924,0.045
21.740,-0.457,0.918,0.045
21.750,-0.453,0.918,0.041
21.760,-0.451,0.916,0.047
21.770,-0.449,0.918,0.045
21.780,-0.453,0.918,0.045
21.790,-0.453,0.920,0.045
21.799,-0.455,0.924,0.043
21.809,-0.457,0.924,0.045
21.819,-0.459,0.924,0.039
21.829,-0.463,0.930,0.041
21.839,-0.459,0.930,0.041
21.849,-0.461,0.930,0.039
21.859,-0.459,0.928,0.039
21.869,-0.457,0.930,0.043
21.879,-0.453,0.926,0.041
21.889,-0.453,0.926,0.043
21.899,-0.451,0.928,0.047
21.909,-0.453,0.930,0.041
21.919,-0.453,0.930,0.039
21.929,-0.455,0.928,0.039
21.938,-0.455,0.920,0.043
21.948,-0.455,0.924,0.043
21.958,-0.455,0.926,0.045
21.968,-0.457,0.930,0.045
21.978,-0.457,0.930,0.043
21.988,-0.457,0.928,0.045
21.998,-0.457,0.924,0.045
22.008,-0.455,0.922,0.047
22.018,-0.455,0.922,0.047
22.028,-0.453,0.920,0.041
22.038,-0.455,0.922,0.043
22.048,-0.453,0.924,0.045
22.058,-0.453,0.926,0.047
22.068,-0.455,0.926,0.043
22.077,-0.453,0.926,0.045
22.087,-0.455,0.926,0.041
22.097,-0.457,0.924,0.041
22.107,-0.453,0.922,0.043
22.117,-0.455,0.926,0.041
22.127,-0.455,0.926,0.041
22.137,-0.453,0.924,0.045
22.147,-0.455,0.926,0.039
22.157,-0.457,0.926,0.041
22.167,-0.455,0.928,0.039
22.177,-0.455,0.928,0.045
22.187,-0.455,0.926,0.039
22.197,-0.455,0.928,0.039
22.207,-0.457,0.926,0.039
22.217,-0.457,0.926,0.041
22.226,-0.453,0.926,0.041
22.236,-0.451,0.926,0.043
22.246,-0.453,0.926,0.041
22.256,-0.453,0.930,0.045
22.266,-0.453,0.928,0.043
22.276,-0.451,0.928,0.043
22.286,-0.455,0.928,0.047
22.296,-0.453,0.928,0.045
22.306,-0.453,0.928,0.045
22.316,-0.455,0.926,0.045
22.326,-0.453,0.922,0.041
22.336,-0.449,0.920,0.045
22.346,-0.451,0.924,0.043
22.356,-0.453,0.928,0.047
22.365,-0.453,0.928,0.047
22.375,-0.451,0.926,0.045
22.385,-0.457,0.924,0.043
22.395,-0.453,0.930,0.043
22.405,-0.453,0.930,0.043
22.415,-0.453,0.934,0.043
22.425,-0.455,0.932,0.045
22.435,-0.457,0.934,0.047
22.445,-0.455,0.934,0.047
22.455,-0.457,0.930,0.047
22.465,-0.455,0.926,0.047
22.475,-0.457,0.922,0.047
22.485,-0.455,0.914,0.045
22.495,-0.455,0.914,0.049
22.504,-0.453,0.914,0.047
22.514,-0.455,0.914,0.047
22.524,-0.449,0.922,0.047
22.534,-0.455,0.922,0.043
22.544,-0.455,0.926,0.041
22.554,-0.459,0.926,0.041
22.564,-0.461,0.926,0.041
22.574,-0.459,0.930,0.041
22.584,-0.459,0.932,0.039
22.594,-0.461,0.932,0.039
22.604,-0.457,0.928,0.037
22.614,-0.457,0.926,0.037
22.624,-0.459,0.930,0.043
22.634,-0.453,0.928,0.041
22.643,-0.449,0.932,0.043
22.653,-0.451,0.926,0.041
22.663,-0.451,0.924,0.041
22.673,-0.453,0.924,0.043
22.683,-0.453,0.928,0.041
22.693,-0.451,0.930,0.041
22.703,-0.451,0.928,0.045
22.713,-0.453,0.932,0.045
22.723,-0.453,0.926,0.041
22.733,-0.451,0.928,0.045
22.743,-0.451,0.926,0.041
22.753,-0.451,0.922,0.041
22.763,-0.451,0.922,0.043
22.773,-0.451,0.926,0.041
22.783,-0.451,0.930,0.041
22.792,-0.451,0.932,0.041
22.802,-0.451,0.930,0.043
22.812,-0.453,0.928,0.041
22.822,-0.451,0.926,0.041
22.832,-0.451,0.926,0.043
22.842,-0.451,0.924,0.041
22.852,-0.449,0.922,0.045
22.862,-0.453,0.926,0.041
22.872,-0.449,0.926,0.043
22.882,-0.449,0.928,0.045
22.892,-0.451,0.928,0.043
22.902,-0.455,0.928,0.041
22.912,-0.451,0.928,0.041
22.922,-0.451,0.926,0.043
22.931,-0.451,0.928,0.043
22.941,-0.453,0.928,0.041
22.951,-0.449,0.928,0.043
22.961,-0.449,0.924,0.043
22.971,-0.451,0.926,0.041
22.981,-0.451,0.928,0.041
22.991,-0.453,0.930,0.043
23.001,-0.453,0.930,0.041
23.011,-0.453,0.932,0.039
23.021,-0.453,0.926,0.037
23.031,-0.453,0.928,0.043
23.041,-0.455,0.930,0.043
23.051,-0.453,0.930,0.041
23.061,-0.451,0.928,0.041
23.070,-0.449,0.918,0.043
23.080,-0.447,0.924,0.047
23.090,-0.449,0.928,0.041
23.100,-0.447,0.926,0.045
23.110,-0.447,0.932,0.043
23.120,-0.449,0.934,0.039
23.130,-0.447,0.928,0.041
23.140,-0.449,0.930,0.045
23.150,-0.449,0.934,0.041
23.160,-0.453,0.936,0.047
23.170,-0.455,0.938,0.051
23.180,-0.453,0.936,0.049
23.190,-0.453,0.932,0.051
23.200,-0.451,0.930,0.051
23.210,-0.451,0.922,0.047
23.219,-0.451,0.918,0.051
23.229,-0.451,0.920,0.045
23.239,-0.447,0.918,0.051
23.249,-0.447,0.920,0.047
23.259,-0.449,0.922,0.045
23.269,-0.449,0.924,0.045
23.279,-0.453,0.928,0.045
23.289,-0.453,0.930,0.045
23.299,-0.455,0.928,0.045
23.309,-0.455,0.930,0.043
23.319,-0.451,0.932,0.043
23.329,-0.451,0.930,0.041
23.339,-0.453,0.932,0.041
23.349,-0.451,0.932,0.037
23.358,-0.453,0.928,0.039
23.368,-0.449,0.930,0.045
23.378,-0.449,0.932,0.041
23.388,-0.445,0.932,0.047
23.398,-0.447,0.930,0.045
23.408,-0.447,0.922,0.041
23.418,-0.447,0.920,0.043
23.428,-0.445,0.928,0.043
23.438,-0.449,0.928,0.043
23.448,-0.449,0.934,0.045
23.458,-0.447,0.932,0.039
23.468,-0.451,0.934,0.045
23.478,-0.451,0.930,0.043
23.488,-0.451,0.928,0.043
23.497,-0.447,0.930,0.039
23.507,-0.451,0.928,0.041
23.517,-0.451,0.928,0.043
23.527,-0.451,0.930,0.043
23.537,-0.449,0.930,0.041
23.547,-0.449,0.928,0.041
23.557,-0.447,0.926,0.041
23.567,-0.449,0.928,0.043
23.577,-0.449,0.926,0.041
23.587,-0.451,0.926,0.041
23.597,-0.451,0.924,0.045
23.607,-0.449,0.924,0.041
23.617,-0.449,0.926,0.041
23.627,-0.449,0.928,0.039
23.636,-0.451,0.928,0.039
23.646,-0.449,0.928,0.043
23.656,-0.449,0.930,0.039
23.666,-0.449,0.930,0.039
23.676,-0.449,0.930,0.041
23.686,-0.447,0.934,0.041
23.696,-0.451,0.926,0.041
23.706,-0.447,0.930,0.039
23.716,-0.447,0.930,0.041
23.726,-0.449,0.928,0.041
23.736,-0.449,0.928,0.039
23.746,-0.449,0.928,0.039
23.756,-0.449,0.932,0.041
23.766,-0.451,0.930,0.039
23.776,-0.451,0.930,0.041
23.785,-0.449,0.930,0.039
23.795,-0.449,0.930,0.041
23.805,-0.449,0.930,0.039
23.815,-0.447,0.930,0.041
23.825,-0.449,0.928,0.041
23.835,-0.449,0.934,0.037
23.845,-0.445,0.934,0.043
23.855,-0.447,0.930,0.043
23.865,-0.447,0.928,0.043
23.875,-0.445,0.924,0.043
23.885,-0.445,0.924,0.043
23.895,-0.443,0.924,0.045
23.905,-0.447,0.930,0.045
23.915,-0.441,0.928,0.045
23.924,-0.445,0.926,0.045
23.934,-0.447,0.930,0.039
23.944,-0.451,0.934,0.043
23.954,-0.451,0.936,0.043
23.964,-0.449,0.938,0.043
23.974,-0.449,0.938,0.045
23.984,-0.449,0.934,0.045
23.994,-0.453,0.930,0.045
24.004,-0.453,0.926,0.045
24.014,-0.447,0.922,0.047
24.024,-0.449,0.924,0.043
24.034,-0.449,0.922,0.043
24.044,-0.449,0.924,0.047
24.054,-0.449,0.924,0.043
24.063,-0.447,0.924,0.043
24.073,-0.453,0.928,0.043
24.083,-0.451,0.928,0.043
24.093,-0.447,0.926,0.045
24.103,-0.449,0.930,0.043
24.113,-0.447,0.928,0.043
24.123,-0.449,0.930,0.043
24.133,-0.451,0.930,0.041
24.143,-0.449,0.932,0.041
24.153,-0.449,0.932,0.039
24.163,-0.449,0.932,0.041
24.173,-0.449,0.934,0.039
24.183,-0.445,0.936,0.047
24.193,-0.445,0.928,0.043
24.202,-0.449,0.928,0.039
24.212,-0.443,0.922,0.039
24.222,-0.445,0.924,0.039
24.232,-0.445,0.932,0.043
24.242,-0.447,0.934,0.041
24.252,-0.447,0.934,0.039
24.262,-0.449,0.934,0.043
24.272,-0.451,0.932,0.045
24.282,-0.451,0.930,0.043
24.292,-0.449,0.928,0.043
24.302,-0.449,0.930,0.041
24.312,-0.447,0.930,0.041
24.322,-0.449,0.926,0.043
24.332,-0.449,0.928,0.043
24.342,-0.447,0.930,0.045
24.351,-0.449,0.930,0.043
24.361,-0.447,0.928,0.043
24.371,-0.445,0.928,0.043
24.381,-0.445,0.930,0.043
24.391,-0.447,0.930,0.041
24.401,-0.445,0.928,0.045
24.411,-0.447,0.930,0.043
24.421,-0.449,0.930,0.039
24.431,-0.447,0.930,0.043
24.441,-0.451,0.932,0.041
24.451,-0.449,0.930,0.041
24.461,-0.447,0.932,0.043
24.471,-0.447,0.932,0.043
24.481,-0.447,0.928,0.043
24.490,-0.445,0.928,0.041
24.500,-0.445,0.928,0.043
24.510,-0.445,0.928,0.041
24.520,-0.447,0.928,0.045
24.530,-0.445,0.928,0.043
24.540,-0.445,0.928,0.045
24.550,-0.445,0.930,0.045
24.560,-0.447,0.932,0.041
24.570,-0.449,0.932,0.043
24.580,-0.445,0.932,0.043
24.590,-0.447,0.930,0.041
24.600,-0.443,0.932,0.043
24.610,-0.445,0.930,0.041
24.620,-0.445,0.930,0.041
24.629,-0.443,0.932,0.041
24.639,-0.447,0.932,0.043
24.649,-0.447,0.934,0.043
24.659,-0.445,0.934,0.041
24.669,-0.445,0.930,0.041
24.679,-0.445,0.932,0.041
24.689,-0.447,0.932,0.041
24.699,-0.445,0.930,0.039
24.709,-0.445,0.926,0.039
24.719,-0.445,0.926,0.047
24.729,-0.441,0.926,0.045
24.739,-0.439,0.928,0.043
24.749,-0.441,0.928,0.045
24.759,-0.443,0.932,0.045
24.768,-0.443,0.930,0.043
24.778,-0.447,0.930,0.043
24.788,-0.447,0.930,0.041
24.798,-0.449,0.936,0.043
24.808,-0.449,0.938,0.043
24.818,-0.449,0.938,0.041
24.828,-0.447,0.939,0.043
24.838,-0.447,0.934,0.041
24.848,-0.447,0.930,0.045
24.858,-0.447,0.924,0.041
24.868,-0.443,0.924,0.045
24.878,-0.443,0.922,0.043
24.888,-0.441,0.922,0.043
24.898,-0.443,0.924,0.043
24.908,-0.445,0.922,0.043
24.917,-0.447,0.924,0.045
24.927,-0.449,0.926,0.043
24.937,-0.451,0.930,0.043
24.947,-0.451,0.936,0.045
24.957,-0.451,0.930,0.039
24.967,-0.449,0.932,0.041
24.977,-0.449,0.934,0.039
24.987,-0.447,0.936,0.037
24.997,-0.445,0.932,0.041
25.007,-0.447,0.932,0.041
25.017,-0.447,0.932,0.039
25.027,-0.445,0.934,0.041
25.037,-0.443,0.934,0.043
25.047,-0.441,0.928,0.041
25.056,-0.441,0.926,0.039
25.066,-0.443,0.926,0.041
25.076,-0.447,0.928,0.043
25.086,-0.449,0.934,0.045
25.096,-0.449,0.932,0.045
25.106,-0.445,0.934,0.043
25.116,-0.449,0.932,0.043
25.126,-0.447,0.932,0.043
25.136,-0.443,0.930,0.039
25.146,-0.445,0.926,0.043
25.156,-0.445,0.928,0.045
25.166,-0.445,0.930,0.045
25.176,-0.447,0.928,0.043
25.186,-0.445,0.930,0.043
25.195,-0.447,0.930,0.043
25.205,-0.451,0.928,0.045
25.215,-0.449,0.928,0.041
25.225,-0.451,0.930,0.043
25.235,-0.451,0.928,0.041
25.245,-0.451,0.928,0.037
25.255,-0.451,0.928,0.041
25.265,-0.451,0.928,0.039
25.275,-0.447,0.928,0.037
25.285,-0.445,0.932,0.039
25.295,-0.445,0.930,0.041
25.305,-0.445,0.932,0.043
25.315,-0.449,0.930,0.041
25.325,-0.449,0.934,0.045
25.334,-0.447,0.932,0.041
25.344,-0.451,0.930,0.041
25.354,-0.449,0.928,0.041
25.364,-0.451,0.930,0.047
25.374,-0.451,0.928,0.043
25.384,-0.449,0.930,0.039
25.394,-0.449,0.926,0.041
25.404,-0.447,0.930,0.045
25.414,-0.449,0.930,0.043
25.424,-0.447,0.934,0.043
25.434,-0.449,0.930,0.043
25.444,-0.447,0.932,0.043
25.454,-0.449,0.930,0.043
25.464,-0.449,0.930,0.039
25.474,-0.443,0.928,0.045
25.483,-0.449,0.930,0.045
25.493,-0.447,0.926,0.047
25.503,-0.445,0.924,0.045
25.513,-0.447,0.926,0.045
25.523,-0.443,0.928,0.047
25.533,-0.445,0.930,0.047
25.543,-0.449,0.934,0.043
25.553,-0.447,0.932,0.045
25.563,-0.445,0.932,0.043
25.573,-0.445,0.932,0.043
25.583,-0.447,0.936,0.043
25.593,-0.447,0.934,0.045
25.603,-0.447,0.939,0.047
25.613,-0.447,0.936,0.049
25.622,-0.447,0.934,0.051
25.632,-0.449,0.928,0.051
25.642,-0.447,0.926,0.055
25.652,-0.449,0.922,0.047
25.662,-0.443,0.916,0.051
25.672,-0.445,0.916,0.049
25.682,-0.445,0.918,0.053
25.692,-0.447,0.924,0.053
25.702,-0.445,0.928,0.047
25.712,-0.445,0.924,0.047
25.722,-0.447,0.930,0.049
25.732,-0.451,0.932,0.045
25.742,-0.447,0.934,0.043
25.752,-0.453,0.930,0.043
25.761,-0.451,0.934,0.043
25.771,-0.451,0.936,0.041
25.781,-0.451,0.932,0.041
25.791,-0.447,0.928,0.045
25.801,-0.449,0.934,0.049
25.811,-0.441,0.932,0.051
25.821,-0.441,0.930,0.043
25.831,-0.443,0.926,0.045
25.841,-0.445,0.928,0.045
25.851,-0.441,0.930,0.047
25.861,-0.443,0.934,0.047
25.871,-0.445,0.934,0.045
25.881,-0.445,0.934,0.047
25.891,-0.445,0.932,0.047
25.901,-0.447,0.934,0.045
25.910,-0.451,0.928,0.045
25.920,-0.445,0.928,0.045
25.930,-0.451,0.930,0.049
25.940,-0.447,0.926,0.047
25.950,-0.447,0.930,0.045
25.960,-0.445,0.934,0.043
25.970,-0.445,0.930,0.047
25.980,-0.445,0.932,0.047
25.990,-0.443,0.932,0.047
26.000,-0.443,0.930,0.047
26.010,-0.445,0.930,0.045
26.020,-0.445,0.928,0.045
26.030,-0.447,0.928,0.043
26.040,-0.445,0.928,0.047
26.049,-0.445,0.928,0.043
26.059,-0.447,0.928,0.045
26.069,-0.447,0.932,0.045
26.079,-0.443,0.932,0.047
26.089,-0.447,0.934,0.045
26.099,-0.447,0.932,0.047
26.109,-0.443,0.936,0.047
26.119,-0.449,0.932,0.045
26.129,-0.447,0.934,0.043
26.139,-0.445,0.932,0.047
26.149,-0.447,0.930,0.045
26.159,-0.449,0.928,0.047
26.169,-0.447,0.934,0.047
26.179,-0.445,0.930,0.045
26.188,-0.451,0.934,0.045
26.198,-0.443,0.930,0.047
26.208,-0.449,0.928,0.049
26.218,-0.445,0.930,0.045
26.228,-0.441,0.930,0.047
26.238,-0.443,0.932,0.049
26.248,-0.441,0.926,0.047
26.258,-0.438,0.926,0.051
26.268,-0.439,0.930,0.047
26.278,-0.439,0.928,0.047
26.288,-0.439,0.930,0.049
26.298,-0.443,0.932,0.049
26.308,-0.443,0.936,0.047
26.318,-0.445,0.932,0.047
26.327,-0.445,0.930,0.045
26.337,-0.449,0.936,0.045
26.347,-0.449,0.939,0.043
26.357,-0.447,0.939,0.047
26.367,-0.447,0.939,0.051
26.377,-0.443,0.936,0.053
26.387,-0.443,0.932,0.047
26.397,-0.443,0.926,0.049
26.407,-0.443,0.922,0.049
26.417,-0.439,0.922,0.053
26.427,-0.443,0.922,0.053
26.437,-0.443,0.924,0.051
26.447,-0.445,0.924,0.047
26.457,-0.447,0.926,0.049
26.467,-0.447,0.928,0.047
26.476,-0.449,0.928,0.047
26.486,-0.449,0.930,0.045
26.496,-0.449,0.932,0.043
26.506,-0.447,0.932,0.045
26.516,-0.449,0.936,0.043
26.526,-0.447,0.938,0.039
26.536,-0.443,0.934,0.047
26.546,-0.441,0.934,0.043
26.556,-0.447,0.939,0.047
26.566,-0.439,0.936,0.051
26.576,-0.441,0.934,0.043
26.586,-0.441,0.930,0.045
26.596,-0.443,0.926,0.043
26.606,-0.445,0.930,0.043
26.615,-0.441,0.930,0.049
26.625,-0.441,0.932,0.045
26.635,-0.441,0.934,0.049
26.645,-0.443,0.934,0.045
26.655,-0.443,0.934,0.047
26.665,-0.443,0.934,0.047
26.675,-0.443,0.932,0.047
26.685,-0.443,0.930,0.049
26.695,-0.441,0.930,0.045
26.705,-0.443,0.930,0.047
26.715,-0.445,0.934,0.045
26.725,-0.445,0.934,0.045
26.735,-0.443,0.934,0.045
26.745,-0.445,0.934,0.043
26.754,-0.443,0.932,0.045
26.764,-0.443,0.930,0.045
26.774,-0.441,0.932,0.049
26.784,-0.439,0.934,0.045
26.794,-0.443,0.930,0.045
26.804,-0.439,0.930,0.045
26.814,-0.441,0.934,0.049
26.824,-0.439,0.930,0.045
26.834,-0.443,0.934,0.047
26.844,-0.441,0.936,0.045
26.854,-0.443,0.932,0.047
26.864,-0.443,0.932,0.045
26.874,-0.441,0.932,0.045
26.884,-0.443,0.932,0.043
26.893,-0.443,0.934,0.045
26.903,-0.441,0.934,0.049
26.913,-0.439,0.936,0.047
26.923,-0.439,0.932,0.049
26.933,-0.439,0.932,0.045
26.943,-0.441,0.932,0.043
26.953,-0.438,0.934,0.049
26.963,-0.443,0.934,0.045
26.973,-0.445,0.936,0.043
26.983,-0.443,0.932,0.047
26.993,-0.443,0.932,0.047
27.003,-0.441,0.934,0.047
27.013,-0.443,0.932,0.047
27.023,-0.439,0.930,0.045
27.033,-0.438,0.930,0.047
27.042,-0.436,0.932,0.045
27.052,-0.436,0.932,0.045
27.062,-0.430,0.930,0.049
27.072,-0.434,0.934,0.049
27.082,-0.436,0.938,0.047
27.092,-0.436,0.934,0.045
27.102,-0.439,0.934,0.043
27.112,-0.443,0.934,0.045
27.122,-0.445,0.938,0.043
27.132,-0.445,0.938,0.045
27.142,-0.443,0.939,0.047
27.152,-0.443,0.938,0.047
27.162,-0.447,0.936,0.047
27.172,-0.443,0.932,0.047
27.181,-0.441,0.930,0.047
27.191,-0.439,0.926,0.045
27.201,-0.436,0.922,0.043
27.211,-0.438,0.928,0.049
27.221,-0.436,0.926,0.045
27.231,-0.439,0.930,0.049
27.241,-0.441,0.930,0.045
27.251,-0.439,0.930,0.047
27.261,-0.441,0.932,0.047
27.271,-0.443,0.936,0.043
27.281,-0.441,0.932,0.043
27.291,-0.443,0.936,0.043
27.301,-0.443,0.934,0.041
27.311,-0.441,0.936,0.041
27.320,-0.439,0.934,0.043
27.330,-0.438,0.936,0.049
27.340,-0.438,0.939,0.043
27.350,-0.438,0.939,0.047
27.360,-0.436,0.934,0.043
27.370,-0.438,0.928,0.041
27.380,-0.438,0.926,0.043
27.390,-0.438,0.930,0.043
27.400,-0.438,0.934,0.045
27.410,-0.439,0.936,0.049
27.420,-0.439,0.936,0.049
27.430,-0.441,0.939,0.047
27.440,-0.439,0.936,0.049
27.450,-0.439,0.936,0.047
27.459,-0.439,0.932,0.047
27.469,-0.439,0.934,0.047
27.479,-0.439,0.932,0.045
27.489,-0.441,0.934,0.043
27.499,-0.439,0.936,0.045
27.509,-0.441,0.934,0.045
27.519,-0.441,0.932,0.045
27.529,-0.441,0.932,0.043
27.539,-0.439,0.932,0.043
27.549,-0.441,0.932,0.047
27.559,-0.441,0.934,0.047
27.569,-0.441,0.932,0.043
27.579,-0.439,0.932,0.045
27.589,-0.443,0.934,0.045
27.599,-0.439,0.932,0.047
27.608,-0.441,0.932,0.043
27.618,-0.441,0.934,0.043
27.628,-0.439,0.934,0.045
27.638,-0.439,0.936,0.039
27.648,-0.441,0.936,0.043
27.658,-0.439,0.934,0.043
27.668,-0.443,0.932,0.043
27.678,-0.439,0.934,0.043
27.688,-0.441,0.932,0.045
27.698,-0.439,0.934,0.043
27.708,-0.439,0.932,0.041
27.718,-0.438,0.930,0.037
27.728,-0.439,0.934,0.041
27.738,-0.439,0.934,0.045
27.747,-0.439,0.934,0.043
27.757,-0.441,0.934,0.043
27.767,-0.441,0.936,0.043
27.777,-0.439,0.934,0.043
27.787,-0.439,0.932,0.041
27.797,-0.439,0.930,0.047
27.807,-0.439,0.934,0.041
27.817,-0.441,0.932,0.043
27.827,-0.441,0.928,0.041
27.837,-0.441,0.928,0.047
27.847,-0.439,0.928,0.045
27.857,-0.439,0.932,0.047
27.867,-0.439,0.934,0.045
27.877,-0.441,0.936,0.043
27.886,-0.439,0.934,0.041
27.896,-0.443,0.932,0.043
27.906,-0.447,0.932,0.045
27.916,-0.447,0.941,0.043
27.926,-0.445,0.939,0.045
27.936,-0.447,0.939,0.043
27.946,-0.445,0.938,0.043
27.956,-0.445,0.932,0.045
27.966,-0.449,0.928,0.041
27.976,-0.447,0.926,0.047
27.986,-0.445,0.922,0.043
27.996,-0.443,0.920,0.043
28.006,-0.445,0.922,0.045
28.016,-0.443,0.924,0.043
28.025,-0.443,0.926,0.045
28.035,-0.443,0.926,0.041
28.045,-0.447,0.930,0.043
28.055,-0.447,0.930,0.041
28.065,-0.445,0.934,0.039
28.075,-0.449,0.936,0.041
28.085,-0.447,0.932,0.041
28.095,-0.447,0.934,0.039
28.105,-0.447,0.934,0.039
28.115,-0.447,0.932,0.041
28.125,-0.443,0.932,0.041
28.135,-0.447,0.938,0.041
28.145,-0.443,0.934,0.045
28.155,-0.443,0.932,0.043
28.165,-0.443,0.930,0.039
28.174,-0.443,0.928,0.043
28.184,-0.443,0.930,0.041
28.194,-0.443,0.934,0.043
28.204,-0.445,0.938,0.045
28.214,-0.445,0.938,0.043
28.224,-0.449,0.938,0.047
28.234,-0.447,0.930,0.043
28.244,-0.451,0.930,0.039
28.254,-0.449,0.930,0.041
28.264,-0.447,0.928,0.041
28.274,-0.447,0.926,0.037
28.284,-0.447,0.928,0.041
28.294,-0.447,0.926,0.045
28.304,-0.449,0.926,0.043
28.313,-0.443,0.930,0.043
28.323,-0.443,0.930,0.045
28.333,-0.445,0.930,0.043
28.343,-0.445,0.932,0.041
28.353,-0.445,0.930,0.041
28.363,-0.445,0.932,0.039
28.373,-0.447,0.932,0.041
28.383,-0.447,0.932,0.037
28.393,-0.451,0.930,0.041
28.403,-0.449,0.928,0.039
28.413,-0.449,0.932,0.041
28.423,-0.451,0.936,0.039
28.433,-0.451,0.934,0.039
28.443,-0.451,0.932,0.037
28.452,-0.451,0.930,0.041
28.462,-0.449,0.930,0.041
28.472,-0.447,0.930,0.041
28.482,-0.447,0.930,0.043
28.492,-0.445,0.928,0.041
28.502,-0.447,0.928,0.041
28.512,-0.447,0.930,0.043
28.522,-0.447,0.930,0.043
28.532,-0.449,0.930,0.047
28.542,-0.447,0.932,0.041
28.552,-0.449,0.930,0.045
28.562,-0.447,0.930,0.043
28.572,-0.447,0.930,0.045
28.582,-0.447,0.932,0.041
28.592,-0.445,0.928,0.043
28.601,-0.445,0.924,0.043
28.611,-0.445,0.924,0.047
28.621,-0.445,0.932,0.045
28.631,-0.449,0.930,0.047
28.641,-0.449,0.930,0.047
28.651,-0.449,0.930,0.043
28.661,-0.451,0.930,0.041
28.671,-0.449,0.930,0.041
28.681,-0.449,0.934,0.041
28.691,-0.451,0.936,0.043
28.701,-0.453,0.941,0.047
28.711,-0.449,0.941,0.049
28.721,-0.449,0.936,0.049
28.731,-0.451,0.930,0.049
28.740,-0.447,0.926,0.047
28.750,-0.445,0.920,0.051
28.760,-0.447,0.920,0.051
28.770,-0.445,0.918,0.047
28.780,-0.445,0.920,0.047
28.790,-0.447,0.920,0.047
28.800,-0.447,0.926,0.049
28.810,-0.449,0.930,0.047
28.820,-0.451,0.932,0.045
28.830,-0.451,0.928,0.041
28.840,-0.451,0.932,0.041
28.850,-0.449,0.934,0.041
28.860,-0.445,0.936,0.045
28.870,-0.447,0.938,0.045
28.879,-0.447,0.930,0.043
28.889,-0.447,0.930,0.043
28.899,-0.445,0.930,0.047
28.909,-0.445,0.934,0.045
28.919,-0.443,0.932,0.043
28.929,-0.441,0.928,0.043
28.939,-0.445,0.926,0.045
28.949,-0.447,0.930,0.043
28.959,-0.443,0.934,0.045
28.969,-0.445,0.932,0.043
28.979,-0.445,0.932,0.045
28.989,-0.447,0.934,0.043
28.999,-0.445,0.930,0.043
29.009,-0.447,0.928,0.043
29.018,-0.447,0.928,0.045
29.028,-0.445,0.930,0.043
29.038,-0.445,0.930,0.041
29.048,-0.449,0.930,0.043
29.058,-0.445,0.932,0.043
29.068,-0.447,0.934,0.041
29.078,-0.447,0.936,0.047
29.088,-0.449,0.934,0.041
29.098,-0.449,0.936,0.043
29.108,-0.449,0.932,0.043
29.118,-0.451,0.930,0.041
29.128,-0.453,0.928,0.041
29.138,-0.447,0.924,0.045
29.148,-0.449,0.928,0.045
29.158,-0.451,0.928,0.047
29.167,-0.447,0.930,0.045
29.177,-0.449,0.930,0.047
29.187,-0.447,0.934,0.043
29.197,-0.447,0.932,0.043
29.207,-0.445,0.930,0.043
29.217,-0.447,0.930,0.045
29.227,-0.447,0.932,0.045
29.237,-0.449,0.932,0.045
29.247,-0.451,0.928,0.043
29.257,-0.445,0.930,0.041
29.267,-0.451,0.928,0.043
29.277,-0.449,0.932,0.041
29.287,-0.447,0.932,0.043
29.297,-0.445,0.936,0.039
29.306,-0.451,0.932,0.041
29.316,-0.447,0.932,0.041
29.326,-0.445,0.930,0.045
29.336,-0.445,0.930,0.039
29.346,-0.443,0.930,0.041
29.356,-0.441,0.928,0.041
29.366,-0.441,0.928,0.043
29.376,-0.441,0.928,0.047
29.386,-0.438,0.928,0.041
29.396,-0.443,0.930,0.045
29.406,-0.443,0.932,0.043
29.416,-0.443,0.932,0.041
29.426,-0.441,0.932,0.037
29.436,-0.449,0.932,0.039
29.445,-0.445,0.936,0.039
29.455,-0.451,0.941,0.041
29.465,-0.445,0.943,0.041
29.475,-0.447,0.938,0.041
29.485,-0.447,0.932,0.047
29.495,-0.447,0.930,0.043
29.505,-0.449,0.924,0.041
29.515,-0.443,0.926,0.043
29.525,-0.445,0.922,0.043
29.535,-0.443,0.924,0.041
29.545,-0.445,0.924,0.043
29.555,-0.445,0.926,0.043
29.565,-0.445,0.928,0.041
29.575,-0.449,0.928,0.043
29.584,-0.449,0.930,0.041
29.594,-0.453,0.930,0.039
29.604,-0.451,0.934,0.039
29.614,-0.451,0.934,0.039
29.624,-0.449,0.934,0.037
29.634,-0.447,0.934,0.037
29.644,-0.449,0.928,0.037
29.654,-0.445,0.934,0.041
29.664,-0.443,0.934,0.041
29.674,-0.441,0.934,0.045
29.684,-0.445,0.934,0.041
29.694,-0.443,0.926,0.039
29.704,-0.445,0.926,0.039
29.714,-0.447,0.926,0.043
29.724,-0.445,0.930,0.039
29.733,-0.441,0.934,0.043
29.743,-0.445,0.932,0.041
29.753,-0.445,0.934,0.045
29.763,-0.447,0.934,0.041
29.773,-0.445,0.930,0.045
29.783,-0.445,0.930,0.045
29.793,-0.445,0.928,0.041
29.803,-0.443,0.930,0.037
29.813,-0.443,0.930,0.043
29.823,-0.443,0.930,0.043
29.833,-0.443,0.934,0.045
29.843,-0.445,0.932,0.043
29.853,-0.447,0.932,0.043
29.863,-0.447,0.934,0.043
29.872,-0.447,0.930,0.041
29.882,-0.447,0.930,0.043
29.892,-0.449,0.930,0.039
29.902,-0.445,0.932,0.041
29.912,-0.449,0.930,0.043
29.922,-0.445,0.932,0.039
29.932,-0.445,0.932,0.039
29.942,-0.447,0.932,0.043
29.952,-0.449,0.934,0.039
29.962,-0.445,0.930,0.041
29.972,-0.445,0.928,0.041
29.982,-0.447,0.934,0.045
29.992,-0.447,0.934,0.045
30.002,-0.447,0.932,0.041
30.011,-0.447,0.930,0.041
30.021,-0.447,0.934,0.041
30.031,-0.447,0.932,0.041
30.041,-0.443,0.932,0.043
30.051,-0.443,0.934,0.043
30.061,-0.443,0.932,0.043
30.071,-0.443,0.930,0.043
30.081,-0.443,0.930,0.039
30.091,-0.443,0.930,0.041
30.101,-0.445,0.930,0.041
30.111,-0.445,0.932,0.039
30.121,-0.443,0.928,0.043
30.131,-0.445,0.930,0.043
30.141,-0.447,0.932,0.041
30.150,-0.447,0.930,0.041
30.160,-0.447,0.926,0.045
30.170,-0.441,0.928,0.045
30.180,-0.445,0.930,0.045
30.190,-0.441,0.928,0.047
30.200,-0.443,0.928,0.047
30.210,-0.445,0.934,0.045
30.220,-0.443,0.932,0.045
30.230,-0.447,0.930,0.041
30.240,-0.449,0.932,0.041
30.250,-0.445,0.934,0.041
30.260,-0.449,0.939,0.045
30.270,-0.449,0.938,0.045
30.280,-0.449,0.936,0.043
30.290,-0.451,0.932,0.043
30.299,-0.453,0.930,0.047
30.309,-0.451,0.928,0.047
30.319,-0.449,0.924,0.041
30.329,-0.451,0.922,0.047
30.339,-0.447,0.922,0.043
30.349,-0.447,0.922,0.045
30.359,-0.447,0.922,0.045
30.369,-0.445,0.926,0.045
30.379,-0.449,0.928,0.047
30.389,-0.447,0.930,0.045
30.399,-0.449,0.934,0.045
30.409,-0.447,0.936,0.045
30.419,-0.453,0.932,0.041
30.429,-0.447,0.934,0.041
30.438,-0.447,0.934,0.039
30.448,-0.447,0.938,0.039
30.458,-0.443,0.934,0.043
30.468,-0.443,0.936,0.043
30.478,-0.443,0.934,0.045
30.488,-0.445,0.934,0.043
30.498,-0.447,0.926,0.045
30.508,-0.443,0.922,0.043
30.518,-0.447,0.924,0.043
30.528,-0.447,0.922,0.045
30.538,-0.451,0.928,0.041
30.548,-0.453,0.932,0.045
30.558,-0.449,0.936,0.045
30.568,-0.449,0.932,0.047
30.577,-0.453,0.930,0.045
30.587,-0.449,0.928,0.047
30.597,-0.449,0.928,0.047
30.607,-0.449,0.926,0.049
30.617,-0.449,0.926,0.045
30.627,-0.449,0.932,0.045
30.637,-0.449,0.928,0.047
30.647,-0.449,0.928,0.047
30.657,-0.451,0.930,0.049
30.667,-0.451,0.930,0.045
30.677,-0.451,0.928,0.047
30.687,-0.449,0.930,0.045
30.697,-0.453,0.926,0.041
30.707,-0.451,0.928,0.043
30.716,-0.453,0.928,0.041
30.726,-0.451,0.930,0.047
30.736,-0.449,0.930,0.047
30.746,-0.447,0.930,0.043
30.756,-0.449,0.932,0.043
30.766,-0.447,0.930,0.049
30.776,-0.447,0.928,0.043
30.786,-0.445,0.930,0.047
30.796,-0.447,0.930,0.047
30.806,-0.445,0.928,0.045
30.816,-0.447,0.932,0.047
30.826,-0.449,0.932,0.045
30.836,-0.449,0.930,0.043
30.846,-0.449,0.932,0.045
30.856,-0.445,0.930,0.047
30.865,-0.445,0.930,0.045
30.875,-0.443,0.934,0.041
30.885,-0.445,0.932,0.045
30.895,-0.443,0.932,0.047
30.905,-0.443,0.928,0.049
30.915,-0.445,0.932,0.043
30.925,-0.447,0.932,0.043
30.935,-0.445,0.934,0.045
30.945,-0.449,0.934,0.043
30.955,-0.447,0.930,0.047
30.965,-0.449,0.934,0.045
30.975,-0.449,0.930,0.045
30.985,-0.447,0.932,0.047
30.995,-0.445,0.930,0.045
31.004,-0.439,0.928,0.045
31.014,-0.441,0.926,0.047
31.024,-0.443,0.932,0.049
31.034,-0.443,0.932,0.047
31.044,-0.445,0.932,0.049
31.054,-0.451,0.932,0.045
31.064,-0.453,0.938,0.047
31.074,-0.449,0.941,0.049
31.084,-0.453,0.938,0.047
31.094,-0.451,0.938,0.047
31.104,-0.455,0.936,0.047
31.114,-0.453,0.932,0.047
31.124,-0.449,0.926,0.051
31.134,-0.451,0.922,0.049
31.143,-0.445,0.924,0.051
31.153,-0.445,0.920,0.049
31.163,-0.445,0.922,0.049
31.173,-0.443,0.926,0.049
31.183,-0.447,0.926,0.047
31.193,-0.449,0.926,0.049
31.203,-0.451,0.932,0.047
31.213,-0.449,0.930,0.047
31.223,-0.449,0.936,0.039
31.233,-0.453,0.936,0.045
31.243,-0.449,0.936,0.045
31.253,-0.449,0.936,0.045
31.263,-0.447,0.934,0.045
31.273,-0.443,0.930,0.043
31.282,-0.447,0.934,0.045
31.292,-0.443,0.936,0.047
31.302,-0.443,0.934,0.049
31.312,-0.443,0.928,0.043
31.322,-0.443,0.922,0.045
31.332,-0.443,0.926,0.043
31.342,-0.445,0.930,0.047
31.352,-0.443,0.932,0.047
31.362,-0.447,0.932,0.047
31.372,-0.445,0.934,0.047
31.382,-0.449,0.936,0.049
31.392,-0.447,0.934,0.049
31.402,-0.445,0.930,0.047
31.412,-0.443,0.932,0.045
31.422,-0.443,0.932,0.045
31.431,-0.445,0.928,0.047
31.441,-0.443,0.928,0.045
31.451,-0.447,0.926,0.047
31.461,-0.449,0.926,0.049
31.471,-0.449,0.926,0.045
31.481,-0.445,0.928,0.045
31.491,-0.453,0.934,0.043
31.501,-0.451,0.930,0.045
31.511,-0.449,0.932,0.045
31.521,-0.451,0.934,0.043
31.531,-0.453,0.932,0.039
31.541,-0.451,0.934,0.043
31.551,-0.447,0.930,0.041
31.561,-0.449,0.932,0.043
31.570,-0.449,0.932,0.045
31.580,-0.443,0.930,0.043
31.590,-0.447,0.932,0.041
31.600,-0.447,0.932,0.045
31.610,-0.447,0.932,0.043
31.620,-0.449,0.930,0.043
31.630,-0.447,0.932,0.045
31.640,-0.451,0.932,0.047
31.650,-0.451,0.928,0.045
31.660,-0.447,0.932,0.047
31.670,-0.449,0.932,0.045
31.680,-0.449,0.932,0.049
31.690,-0.447,0.934,0.049
31.700,-0.447,0.934,0.049
31.709,-0.445,0.928,0.049
31.719,-0.447,0.932,0.043
31.729,-0.445,0.928,0.047
31.739,-0.445,0.930,0.049
31.749,-0.443,0.926,0.049
31.759,-0.443,0.930,0.043
31.769,-0.441,0.928,0.047
31.779,-0.443,0.932,0.049
31.789,-0.447,0.932,0.047
31.799,-0.441,0.932,0.047
31.809,-0.443,0.934,0.043
31.819,-0.447,0.936,0.043
31.829,-0.449,0.938,0.045
31.839,-0.447,0.939,0.051
31.849,-0.449,0.943,0.047
31.858,-0.449,0.938,0.049
31.868,-0.443,0.936,0.053
31.878,-0.447,0.928,0.053
31.888,-0.447,0.926,0.051
31.898,-0.445,0.922,0.053
31.908,-0.443,0.918,0.053
31.918,-0.445,0.918,0.051
31.928,-0.445,0.922,0.053
31.938,-0.449,0.926,0.049
31.948,-0.447,0.922,0.049
31.958,-0.451,0.930,0.053
31.968,-0.453,0.932,0.047
31.978,-0.451,0.932,0.047
31.988,-0.447,0.932,0.047
31.997,-0.449,0.934,0.043
32.007,-0.453,0.934,0.045
32.017,-0.449,0.932,0.047
32.027,-0.447,0.932,0.047
32.037,-0.449,0.934,0.047
32.047,-0.447,0.934,0.051
32.057,-0.445,0.934,0.051
32.067,-0.447,0.930,0.053
32.077,-0.449,0.928,0.047
32.087,-0.451,0.930,0.047
32.097,-0.445,0.930,0.049
32.107,-0.445,0.930,0.049
32.117,-0.445,0.932,0.051
32.127,-0.447,0.934,0.051
32.136,-0.449,0.932,0.051
32.146,-0.447,0.928,0.053
32.156,-0.451,0.932,0.051
32.166,-0.453,0.928,0.051
32.176,-0.449,0.930,0.049
32.186,-0.451,0.928,0.051
32.196,-0.449,0.930,0.051
32.206,-0.449,0.932,0.051
32.216,-0.445,0.930,0.051
32.226,-0.445,0.930,0.051
32.236,-0.445,0.930,0.049
32.246,-0.443,0.930,0.049
32.256,-0.447,0.930,0.049
32.266,-0.447,0.930,0.049
32.275,-0.447,0.930,0.047
32.285,-0.445,0.932,0.047
32.295,-0.449,0.930,0.051
32.305,-0.447,0.932,0.045
32.315,-0.447,0.932,0.047
32.325,-0.445,0.936,0.047
32.335,-0.445,0.932,0.049
32.345,-0.447,0.932,0.047
32.355,-0.445,0.932,0.047
32.365,-0.445,0.934,0.049
32.375,-0.445,0.932,0.049
32.385,-0.445,0.932,0.051
32.395,-0.445,0.936,0.049
32.405,-0.445,0.934,0.047
32.415,-0.449,0.934,0.053
32.424,-0.447,0.932,0.053
32.434,-0.445,0.932,0.051
32.444,-0.443,0.932,0.051
32.454,-0.441,0.930,0.049
32.464,-0.439,0.930,0.049
32.474,-0.439,0.926,0.049
32.484,-0.439,0.928,0.055
32.494,-0.439,0.934,0.051
32.504,-0.443,0.932,0.053
32.514,-0.439,0.932,0.053
32.524,-0.443,0.934,0.047
32.534,-0.443,0.932,0.049
32.544,-0.447,0.936,0.049
32.554,-0.447,0.936,0.049
32.563,-0.445,0.939,0.051
32.573,-0.449,0.939,0.053
32.583,-0.447,0.941,0.053
32.593,-0.445,0.939,0.053
32.603,-0.443,0.932,0.057
32.613,-0.443,0.930,0.055
32.623,-0.445,0.926,0.055
32.633,-0.439,0.924,0.057
32.643,-0.441,0.920,0.053
32.653,-0.441,0.920,0.055
32.663,-0.441,0.924,0.053
32.673,-0.441,0.926,0.053
32.683,-0.443,0.930,0.053
32.693,-0.445,0.932,0.051
32.702,-0.445,0.938,0.049
32.712,-0.445,0.936,0.053
32.722,-0.443,0.938,0.049
32.732,-0.447,0.939,0.047
32.742,-0.447,0.938,0.045
32.752,-0.449,0.930,0.049
32.762,-0.449,0.936,0.047
32.772,-0.447,0.936,0.051
32.782,-0.441,0.938,0.055
32.792,-0.441,0.932,0.051
32.802,-0.439,0.932,0.053
32.812,-0.441,0.928,0.051
32.822,-0.441,0.930,0.053
32.832,-0.439,0.932,0.053
32.841,-0.439,0.932,0.055
32.851,-0.443,0.932,0.053
32.861,-0.447,0.932,0.057
32.871,-0.447,0.934,0.053
32.881,-0.451,0.934,0.049
32.891,-0.449,0.932,0.051
32.901,-0.447,0.934,0.051
32.911,-0.449,0.932,0.051
32.921,-0.447,0.930,0.053
32.931,-0.445,0.934,0.053
32.941,-0.443,0.936,0.055
32.951,-0.443,0.934,0.053
32.961,-0.443,0.930,0.053
32.971,-0.439,0.928,0.055
32.981,-0.443,0.930,0.053
32.990,-0.447,0.928,0.053
33.000,-0.445,0.928,0.051
33.010,-0.449,0.928,0.051
33.020,-0.447,0.930,0.049
33.030,-0.447,0.934,0.051
33.040,-0.447,0.934,0.051
33.050,-0.447,0.930,0.051
33.060,-0.445,0.932,0.053
33.070,-0.441,0.934,0.051
33.080,-0.445,0.934,0.053
33.090,-0.445,0.934,0.053
33.100,-0.443,0.930,0.049
33.110,-0.443,0.930,0.051
33.120,-0.445,0.936,0.051
33.129,-0.445,0.932,0.053
33.139,-0.445,0.930,0.051
33.149,-0.445,0.930,0.055
33.159,-0.445,0.930,0.051
33.169,-0.445,0.930,0.049
33.179,-0.441,0.934,0.051
33.189,-0.439,0.932,0.051
33.199,-0.439,0.928,0.053
33.209,-0.439,0.928,0.051
33.219,-0.441,0.930,0.051
33.229,-0.438,0.932,0.055
33.239,-0.441,0.934,0.053
33.249,-0.439,0.930,0.053
33.259,-0.441,0.934,0.053
33.268,-0.443,0.934,0.053
33.278,-0.447,0.938,0.051
33.288,-0.447,0.943,0.055
33.298,-0.449,0.945,0.053
33.308,-0.447,0.941,0.055
33.318,-0.447,0.936,0.055
33.328,-0.445,0.930,0.057
33.338,-0.443,0.924,0.057
33.348,-0.441,0.926,0.061
33.358,-0.443,0.922,0.055
33.368,-0.445,0.926,0.057
33.378,-0.441,0.924,0.053
33.388,-0.445,0.926,0.053
33.398,-0.449,0.928,0.055
33.407,-0.445,0.930,0.051
33.417,-0.449,0.934,0.051
33.427,-0.449,0.934,0.051
33.437,-0.449,0.936,0.051
33.447,-0.447,0.934,0.051
33.457,-0.447,0.934,0.051
33.467,-0.447,0.934,0.047
33.477,-0.445,0.936,0.049
33.487,-0.443,0.930,0.049
33.497,-0.445,0.934,0.051
33.507,-0.441,0.938,0.051
33.517,-0.438,0.938,0.053
33.527,-0.439,0.932,0.051
33.537,-0.439,0.928,0.051
33.547,-0.439,0.930,0.053
33.556,-0.443,0.934,0.053
33.566,-0.441,0.932,0.047
33.576,-0.438,0.938,0.055
33.586,-0.441,0.934,0.051
33.596,-0.443,0.936,0.051
33.606,-0.441,0.932,0.055
33.616,-0.441,0.932,0.051
33.626,-0.441,0.930,0.047
33.636,-0.443,0.934,0.049
33.646,-0.441,0.934,0.051
33.656,-0.443,0.932,0.049
33.666,-0.443,0.934,0.051
33.676,-0.445,0.932,0.053
33.686,-0.447,0.932,0.053
33.695,-0.447,0.934,0.051
33.705,-0.445,0.930,0.049
33.715,-0.443,0.934,0.051
33.725,-0.445,0.930,0.053
33.735,-0.443,0.934,0.051
33.745,-0.441,0.930,0.051
33.755,-0.441,0.934,0.047
33.765,-0.441,0.932,0.051
33.775,-0.439,0.936,0.051
33.785,-0.441,0.932,0.055
33.795,-0.443,0.934,0.047
33.805,-0.445,0.934,0.045
33.815,-0.445,0.934,0.047
33.825,-0.445,0.930,0.051
33.834,-0.445,0.932,0.047
33.844,-0.447,0.932,0.049
33.854,-0.447,0.934,0.049
33.864,-0.443,0.934,0.047
33.874,-0.445,0.936,0.053
33.884,-0.445,0.938,0.053
33.894,-0.443,0.936,0.047
33.904,-0.443,0.934,0.049
33.914,-0.443,0.932,0.049
33.924,-0.441,0.936,0.047
33.934,-0.439,0.932,0.049
33.944,-0.439,0.934,0.049
33.954,-0.439,0.930,0.053
33.964,-0.436,0.932,0.053
33.973,-0.432,0.932,0.055
33.983,-0.438,0.934,0.053
33.993,-0.439,0.936,0.049
34.003,-0.439,0.936,0.051
34.013,-0.438,0.936,0.047
34.023,-0.441,0.934,0.051
34.033,-0.441,0.936,0.051
34.043,-0.443,0.941,0.053
34.053,-0.439,0.938,0.049
34.063,-0.438,0.939,0.045
34.073,-0.443,0.934,0.051
34.083,-0.441,0.934,0.049
34.093,-0.441,0.930,0.049
34.103,-0.443,0.930,0.051
34.113,-0.441,0.930,0.051
34.122,-0.439,0.930,0.053
34.132,-0.441,0.926,0.051
34.142,-0.439,0.932,0.051
34.152,-0.439,0.930,0.053
34.162,-0.438,0.932,0.047
34.172,-0.441,0.934,0.047
34.182,-0.441,0.934,0.045
34.192,-0.445,0.934,0.043
34.202,-0.445,0.932,0.049
34.212,-0.447,0.936,0.047
34.222,-0.445,0.938,0.047
34.232,-0.441,0.938,0.045
34.242,-0.443,0.936,0.047
34.252,-0.441,0.939,0.049
34.261,-0.439,0.939,0.047
34.271,-0.438,0.938,0.051
34.281,-0.439,0.932,0.047
34.291,-0.439,0.926,0.047
34.301,-0.436,0.930,0.045
34.311,-0.441,0.930,0.043
34.321,-0.441,0.936,0.047
34.331,-0.441,0.938,0.047
34.341,-0.439,0.938,0.047
34.351,-0.439,0.938,0.049
34.361,-0.441,0.938,0.049
34.371,-0.439,0.938,0.047
34.381,-0.438,0.932,0.047
34.391,-0.441,0.932,0.047
34.400,-0.438,0.930,0.045
34.410,-0.439,0.932,0.047
34.420,-0.438,0.934,0.045
34.430,-0.441,0.934,0.043
34.440,-0.445,0.934,0.047
34.450,-0.443,0.936,0.047
34.460,-0.441,0.932,0.047
34.470,-0.441,0.932,0.045
34.480,-0.441,0.932,0.047
34.490,-0.443,0.934,0.043
34.500,-0.441,0.932,0.045
34.510,-0.441,0.934,0.047
34.520,-0.438,0.936,0.049
34.530,-0.441,0.934,0.047
34.540,-0.441,0.930,0.047
34.549,-0.441,0.934,0.045
34.559,-0.441,0.936,0.049
34.569,-0.443,0.932,0.049
34.579,-0.441,0.932,0.049
34.589,-0.441,0.934,0.047
34.599,-0.443,0.936,0.049
34.609,-0.443,0.936,0.049
34.619,-0.441,0.936,0.049
34.629,-0.443,0.934,0.047
34.639,-0.441,0.934,0.049
34.649,-0.441,0.938,0.047
34.659,-0.443,0.934,0.049
34.669,-0.443,0.936,0.051
34.679,-0.441,0.936,0.049
34.688,-0.443,0.934,0.045
34.698,-0.443,0.938,0.049
34.708,-0.443,0.934,0.049
34.718,-0.439,0.932,0.049
34.728,-0.441,0.932,0.049
34.738,-0.438,0.932,0.051
34.748,-0.439,0.934,0.049
34.758,-0.441,0.932,0.053
34.768,-0.441,0.932,0.047
34.778,-0.439,0.932,0.051
34.788,-0.438,0.930,0.051
34.798,-0.436,0.930,0.051
34.808,-0.436,0.934,0.053
34.818,-0.436,0.934,0.051
34.827,-0.439,0.938,0.051
34.837,-0.439,0.936,0.047
34.847,-0.443,0.936,0.047
34.857,-0.439,0.932,0.049
34.867,-0.441,0.939,0.047
34.877,-0.443,0.941,0.051
34.887,-0.439,0.941,0.049
34.897,-0.441,0.939,0.047
34.907,-0.445,0.932,0.051
34.917,-0.445,0.930,0.051
34.927,-0.443,0.928,0.051
34.937,-0.441,0.928,0.049
34.947,-0.441,0.928,0.049
34.957,-0.439,0.928,0.051
34.966,-0.439,0.928,0.051
34.976,-0.439,0.932,0.049
34.986,-0.441,0.934,0.047
34.996,-0.439,0.936,0.049
35.006,-0.439,0.938,0.051
35.016,-0.438,0.936,0.049
35.026,-0.439,0.936,0.049
35.036,-0.438,0.938,0.047
35.046,-0.439,0.936,0.051
35.056,-0.441,0.936,0.047
35.066,-0.441,0.932,0.049
35.076,-0.443,0.934,0.049
35.086,-0.443,0.938,0.049
35.096,-0.443,0.936,0.047
35.106,-0.443,0.932,0.049
35.115,-0.441,0.928,0.043
35.125,-0.441,0.926,0.045
35.135,-0.441,0.930,0.049
35.145,-0.443,0.934,0.045
35.155,-0.443,0.938,0.049
35.165,-0.441,0.939,0.047
35.175,-0.443,0.939,0.051
35.185,-0.445,0.936,0.049
35.195,-0.445,0.938,0.043
35.205,-0.443,0.936,0.047
35.215,-0.441,0.930,0.053
35.225,-0.445,0.930,0.049
35.235,-0.443,0.928,0.051
35.245,-0.441,0.932,0.049
35.254,-0.441,0.930,0.051
35.264,-0.441,0.934,0.049
35.274,-0.445,0.932,0.047
35.284,-0.445,0.930,0.049
35.294,-0.441,0.932,0.047
35.304,-0.443,0.928,0.047
35.314,-0.443,0.932,0.049
35.324,-0.445,0.930,0.047
35.334,-0.443,0.934,0.049
35.344,-0.445,0.934,0.047
35.354,-0.443,0.934,0.047
35.364,-0.447,0.936,0.049
35.374,-0.443,0.938,0.047
35.384,-0.445,0.938,0.047
35.393,-0.443,0.934,0.049
35.403,-0.443,0.932,0.049
35.413,-0.441,0.932,0.049
35.423,-0.438,0.934,0.049
35.433,-0.441,0.930,0.045
35.443,-0.441,0.932,0.051
35.453,-0.441,0.936,0.051
35.463,-0.443,0.932,0.049
35.473,-0.441,0.932,0.047
35.483,-0.439,0.930,0.049
35.493,-0.443,0.934,0.051
35.503,-0.443,0.934,0.049
35.513,-0.441,0.932,0.051
35.523,-0.443,0.936,0.049
35.532,-0.445,0.938,0.043
35.542,-0.441,0.934,0.047
35.552,-0.441,0.932,0.051
35.562,-0.443,0.934,0.049
35.572,-0.441,0.932,0.049
35.582,-0.439,0.928,0.051
35.592,-0.441,0.930,0.051
35.602,-0.443,0.934,0.051
35.612,-0.441,0.930,0.049
35.622,-0.443,0.930,0.053
35.632,-0.445,0.934,0.049
35.642,-0.445,0.934,0.049
35.652,-0.441,0.934,0.047
35.662,-0.445,0.934,0.045
35.672,-0.451,0.936,0.043
35.681,-0.453,0.941,0.047
35.691,-0.449,0.941,0.049
35.701,-0.449,0.941,0.053
35.711,-0.451,0.939,0.051
35.721,-0.447,0.936,0.053
35.731,-0.447,0.928,0.055
35.741,-0.445,0.928,0.051
35.751,-0.447,0.924,0.055
35.761,-0.441,0.920,0.055
35.771,-0.443,0.924,0.053
35.781,-0.443,0.922,0.051
35.791,-0.443,0.928,0.047
35.801,-0.447,0.928,0.049
35.811,-0.445,0.930,0.053
35.820,-0.447,0.930,0.049
35.830,-0.445,0.934,0.053
35.840,-0.447,0.934,0.047
35.850,-0.449,0.936,0.047
35.860,-0.443,0.936,0.049
35.870,-0.447,0.936,0.045
35.880,-0.445,0.934,0.051
35.890,-0.441,0.939,0.049
35.900,-0.443,0.936,0.053
35.910,-0.439,0.936,0.053
35.920,-0.441,0.934,0.051
35.930,-0.441,0.928,0.051
35.940,-0.443,0.928,0.051
35.950,-0.443,0.928,0.047
35.959,-0.443,0.936,0.049
35.969,-0.445,0.936,0.053
35.979,-0.443,0.938,0.053
35.989,-0.447,0.934,0.055
35.999,-0.443,0.936,0.053
36.009,-0.447,0.932,0.055
36.019,-0.441,0.930,0.055
36.029,-0.441,0.932,0.053
36.039,-0.439,0.930,0.053
36.049,-0.439,0.932,0.055
36.059,-0.438,0.930,0.055
36.069,-0.443,0.930,0.055
36.079,-0.445,0.928,0.055
36.089,-0.443,0.934,0.053
36.098,-0.443,0.928,0.053
36.108,-0.445,0.926,0.055
36.118,-0.445,0.928,0.051
36.128,-0.443,0.928,0.051
36.138,-0.443,0.932,0.053
36.148,-0.443,0.932,0.051
36.158,-0.439,0.938,0.051
36.168,-0.443,0.936,0.051
36.178,-0.447,0.936,0.049
36.188,-0.449,0.936,0.051
36.198,-0.451,0.936,0.053
36.208,-0.451,0.932,0.045
36.218,-0.451,0.932,0.053
36.228,-0.451,0.934,0.051
36.238,-0.449,0.932,0.051
36.247,-0.453,0.934,0.051
36.257,-0.447,0.936,0.051
36.267,-0.447,0.928,0.053
36.277,-0.445,0.930,0.053
36.287,-0.443,0.932,0.055
36.297,-0.443,0.930,0.051
36.307,-0.441,0.930,0.055
36.317,-0.439,0.924,0.057
36.327,-0.439,0.928,0.053
36.337,-0.441,0.934,0.051
36.347,-0.439,0.934,0.055
36.357,-0.439,0.934,0.051
36.367,-0.441,0.934,0.049
36.377,-0.441,0.934,0.047
36.386,-0.443,0.938,0.049
36.396,-0.445,0.939,0.051
36.406,-0.443,0.939,0.051
36.416,-0.447,0.941,0.051
36.426,-0.443,0.945,0.055
36.436,-0.445,0.939,0.055
36.446,-0.441,0.938,0.057
36.456,-0.439,0.932,0.057
36.466,-0.441,0.930,0.059
36.476,-0.438,0.926,0.057
36.486,-0.438,0.920,0.055
36.496,-0.436,0.926,0.055
36.506,-0.439,0.926,0.053
36.516,-0.441,0.928,0.055
36.525,-0.441,0.932,0.053
36.535,-0.441,0.934,0.051
36.545,-0.441,0.934,0.051
36.555,-0.443,0.938,0.051
36.565,-0.445,0.936,0.051
36.575,-0.443,0.939,0.055
36.585,-0.445,0.938,0.047
36.595,-0.445,0.939,0.051
36.605,-0.445,0.938,0.055
36.615,-0.443,0.936,0.053
36.625,-0.441,0.934,0.057
36.635,-0.441,0.934,0.055
36.645,-0.443,0.928,0.053
36.655,-0.445,0.928,0.057
36.664,-0.443,0.928,0.053
36.674,-0.443,0.934,0.051
36.684,-0.443,0.936,0.055
36.694,-0.443,0.936,0.057
36.704,-0.447,0.936,0.055
36.714,-0.447,0.934,0.055
36.724,-0.441,0.932,0.051
36.734,-0.445,0.932,0.055
36.744,-0.443,0.930,0.057
36.754,-0.439,0.932,0.053
36.764,-0.441,0.934,0.057
36.774,-0.439,0.932,0.057
36.784,-0.443,0.934,0.059
36.794,-0.439,0.934,0.061
36.804,-0.443,0.932,0.053
36.813,-0.445,0.932,0.055
36.823,-0.443,0.928,0.057
36.833,-0.441,0.932,0.055
36.843,-0.445,0.930,0.053
36.853,-0.445,0.934,0.055
36.863,-0.443,0.932,0.053
36.873,-0.443,0.934,0.053
36.883,-0.445,0.934,0.053
36.893,-0.439,0.936,0.055
36.903,-0.445,0.938,0.053
36.913,-0.443,0.938,0.055
36.923,-0.439,0.934,0.051
36.933,-0.439,0.934,0.051
36.943,-0.441,0.932,0.055
36.952,-0.441,0.934,0.055
36.962,-0.443,0.936,0.055
36.972,-0.439,0.934,0.053
36.982,-0.441,0.934,0.057
36.992,-0.441,0.938,0.055
37.002,-0.443,0.934,0.055
37.012,-0.441,0.934,0.055
37.022,-0.441,0.932,0.053
37.032,-0.441,0.932,0.055
37.042,-0.441,0.932,0.053
37.052,-0.438,0.928,0.051
37.062,-0.439,0.928,0.055
37.072,-0.439,0.932,0.057
37.082,-0.441,0.932,0.055
37.091,-0.441,0.934,0.051
37.101,-0.441,0.932,0.053
37.111,-0.441,0.934,0.053
37.121,-0.443,0.938,0.051
37.131,-0.445,0.938,0.051
37.141,-0.445,0.938,0.051
37.151,-0.447,0.941,0.055
37.161,-0.447,0.939,0.057
37.171,-0.445,0.936,0.057
37.181,-0.447,0.934,0.057
37.191,-0.445,0.928,0.059
37.201,-0.445,0.924,0.053
37.211,-0.443,0.926,0.057
37.221,-0.441,0.926,0.055
37.231,-0.441,0.928,0.053
37.240,-0.439,0.928,0.053
37.250,-0.443,0.928,0.055
37.260,-0.441,0.930,0.053
37.270,-0.445,0.932,0.049
37.280,-0.449,0.936,0.049
37.290,-0.445,0.936,0.049
37.300,-0.445,0.936,0.049
37.310,-0.445,0.938,0.051
37.320,-0.447,0.938,0.045
37.330,-0.445,0.936,0.049
37.340,-0.445,0.930,0.049
37.350,-0.443,0.936,0.051
37.360,-0.443,0.938,0.053
37.370,-0.438,0.934,0.049
37.379,-0.441,0.934,0.053
37.389,-0.439,0.930,0.047
37.399,-0.441,0.928,0.049
37.409,-0.441,0.934,0.051
37.419,-0.441,0.934,0.051
37.429,-0.441,0.936,0.051
37.439,-0.445,0.936,0.053
37.449,-0.447,0.932,0.049
37.459,-0.445,0.930,0.051
37.469,-0.443,0.928,0.047
37.479,-0.443,0.930,0.051
37.489,-0.443,0.932,0.051
37.499,-0.439,0.934,0.047
37.509,-0.439,0.938,0.053
37.518,-0.438,0.939,0.049
37.528,-0.438,0.941,0.049
37.538,-0.439,0.938,0.049
37.548,-0.439,0.938,0.049
37.558,-0.439,0.934,0.047
37.568,-0.441,0.932,0.049
37.578,-0.441,0.934,0.049
37.588,-0.439,0.932,0.047
37.598,-0.439,0.932,0.049
37.608,-0.438,0.936,0.049
37.618,-0.439,0.938,0.049
37.628,-0.438,0.936,0.047
37.638,-0.439,0.934,0.049
37.648,-0.438,0.938,0.047
37.657,-0.436,0.936,0.049
37.667,-0.438,0.934,0.049
37.677,-0.438,0.934,0.047
37.687,-0.436,0.934,0.049
37.697,-0.436,0.934,0.047
37.707,-0.436,0.936,0.047
37.717,-0.436,0.938,0.049
37.727,-0.436,0.936,0.047
37.737,-0.439,0.938,0.047
37.747,-0.438,0.939,0.045
37.757,-0.436,0.938,0.049
37.767,-0.438,0.938,0.047
37.777,-0.439,0.936,0.049
37.787,-0.438,0.936,0.047
37.797,-0.438,0.934,0.049
37.806,-0.436,0.930,0.051
37.816,-0.434,0.932,0.049
37.826,-0.430,0.930,0.049
37.836,-0.434,0.934,0.051
37.846,-0.432,0.936,0.047
37.856,-0.434,0.939,0.049
37.866,-0.438,0.938,0.051
37.876,-0.439,0.938,0.047
37.886,-0.436,0.941,0.045
37.896,-0.438,0.943,0.049
37.906,-0.439,0.943,0.049
37.916,-0.438,0.943,0.051
37.926,-0.439,0.936,0.051
37.936,-0.439,0.934,0.049
37.945,-0.441,0.934,0.051
37.955,-0.441,0.932,0.051
37.965,-0.439,0.930,0.049
37.975,-0.438,0.930,0.051
37.985,-0.439,0.930,0.049
37.995,-0.438,0.930,0.049
38.005,-0.436,0.930,0.049
38.015,-0.438,0.934,0.051
38.025,-0.438,0.936,0.051
38.035,-0.439,0.938,0.047
38.045,-0.438,0.936,0.047
38.055,-0.438,0.936,0.045
38.065,-0.439,0.936,0.045
38.075,-0.439,0.938,0.047
38.084,-0.438,0.939,0.045
38.094,-0.439,0.934,0.049
38.104,-0.439,0.939,0.047
38.114,-0.436,0.938,0.053
38.124,-0.436,0.939,0.051
38.134,-0.436,0.932,0.045
38.144,-0.434,0.932,0.047
38.154,-0.434,0.930,0.047
38.164,-0.434,0.938,0.047
38.174,-0.434,0.939,0.051
38.184,-0.434,0.939,0.049
38.194,-0.434,0.939,0.053
38.204,-0.438,0.941,0.047
38.214,-0.436,0.938,0.045
38.223,-0.436,0.934,0.049
38.233,-0.438,0.932,0.051
38.243,-0.436,0.934,0.047
38.253,-0.438,0.934,0.051
38.263,-0.438,0.934,0.051
38.273,-0.439,0.936,0.049
38.283,-0.439,0.934,0.047
38.293,-0.438,0.934,0.047
38.303,-0.438,0.936,0.049
38.313,-0.438,0.934,0.049
38.323,-0.438,0.936,0.049
38.333,-0.439,0.936,0.047
38.343,-0.439,0.936,0.049
38.353,-0.441,0.936,0.045
38.363,-0.439,0.938,0.043
38.372,-0.441,0.936,0.049
38.382,-0.439,0.939,0.051
38.392,-0.439,0.938,0.045
38.402,-0.441,0.938,0.047
38.412,-0.439,0.934,0.051
38.422,-0.436,0.934,0.049
38.432,-0.432,0.932,0.049
38.442,-0.436,0.934,0.049
38.452,-0.436,0.932,0.049
38.462,-0.436,0.932,0.053
38.472,-0.436,0.938,0.051
38.482,-0.438,0.936,0.049
38.492,-0.436,0.936,0.049
38.502,-0.439,0.938,0.047
38.511,-0.439,0.938,0.047
38.521,-0.441,0.936,0.047
38.531,-0.439,0.938,0.047
38.541,-0.441,0.934,0.047
38.551,-0.443,0.934,0.047
38.561,-0.441,0.934,0.053
38.571,-0.443,0.934,0.049
38.581,-0.438,0.932,0.053
38.591,-0.436,0.934,0.055
38.601,-0.436,0.936,0.055
38.611,-0.432,0.934,0.057
38.621,-0.436,0.932,0.051
38.631,-0.438,0.936,0.051
38.641,-0.436,0.936,0.051
38.650,-0.439,0.932,0.051
38.660,-0.441,0.934,0.051
38.670,-0.441,0.936,0.051
38.680,-0.439,0.938,0.053
38.690,-0.441,0.943,0.053
38.700,-0.443,0.941,0.055
38.710,-0.441,0.939,0.053
38.720,-0.443,0.934,0.053
38.730,-0.441,0.930,0.051
38.740,-0.439,0.932,0.051
38.750,-0.441,0.930,0.055
38.760,-0.439,0.930,0.055
38.770,-0.439,0.928,0.057
38.780,-0.439,0.930,0.053
38.789,-0.439,0.932,0.053
38.799,-0.438,0.932,0.053
38.809,-0.438,0.936,0.055
38.819,-0.439,0.936,0.053
38.829,-0.441,0.938,0.051
38.839,-0.438,0.936,0.049
38.849,-0.439,0.938,0.051
38.859,-0.441,0.938,0.049
38.869,-0.439,0.941,0.051
38.879,-0.441,0.936,0.049
38.889,-0.439,0.939,0.049
38.899,-0.443,0.938,0.051
38.909,-0.439,0.934,0.053
38.919,-0.439,0.930,0.049
38.929,-0.439,0.926,0.049
38.938,-0.436,0.930,0.051
38.948,-0.439,0.934,0.055
38.958,-0.438,0.938,0.053
38.968,-0.439,0.939,0.053
38.978,-0.438,0.939,0.055
38.988,-0.439,0.938,0.053
38.998,-0.441,0.934,0.053
39.008,-0.439,0.936,0.051
39.018,-0.441,0.934,0.055
39.028,-0.443,0.932,0.053
39.038,-0.439,0.932,0.049
39.048,-0.441,0.934,0.051
39.058,-0.441,0.928,0.051
39.068,-0.443,0.936,0.051
39.077,-0.445,0.932,0.049
39.087,-0.443,0.930,0.047
39.097,-0.443,0.934,0.051
39.107,-0.443,0.936,0.051
39.117,-0.441,0.938,0.049
39.127,-0.441,0.934,0.049
39.137,-0.441,0.932,0.047
39.147,-0.443,0.936,0.047
39.157,-0.441,0.936,0.049
39.167,-0.443,0.936,0.051
39.177,-0.441,0.934,0.051
39.187,-0.443,0.936,0.051
39.197,-0.447,0.936,0.051
39.207,-0.445,0.934,0.051
39.216,-0.447,0.934,0.051
39.226,-0.447,0.930,0.051
39.236,-0.443,0.932,0.051
39.246,-0.441,0.934,0.051
39.256,-0.439,0.932,0.049
39.266,-0.441,0.932,0.055
39.276,-0.439,0.936,0.051
39.286,-0.441,0.936,0.051
39.296,-0.438,0.932,0.051
39.306,-0.443,0.936,0.053
39.316,-0.439,0.938,0.053
39.326,-0.441,0.936,0.055
39.336,-0.441,0.934,0.053
39.346,-0.443,0.934,0.053
39.355,-0.443,0.936,0.051
39.365,-0.443,0.932,0.053
39.375,-0.443,0.934,0.055
39.385,-0.443,0.930,0.053
39.395,-0.439,0.930,0.051
39.405,-0.441,0.928,0.051
39.415,-0.443,0.932,0.053
39.425,-0.439,0.932,0.051
39.435,-0.439,0.924,0.053
39.445,-0.441,0.936,0.055
39.455,-0.443,0.934,0.053
39.465,-0.441,0.938,0.053
39.475,-0.443,0.938,0.049
39.485,-0.445,0.936,0.051
39.495,-0.447,0.939,0.055
39.504,-0.447,0.943,0.057
39.514,-0.447,0.943,0.055
39.524,-0.445,0.941,0.053
39.534,-0.445,0.938,0.059
39.544,-0.445,0.930,0.057
39.554,-0.445,0.924,0.057
39.564,-0.445,0.924,0.057
39.574,-0.443,0.922,0.057
39.584,-0.439,0.922,0.055
39.594,-0.441,0.928,0.055
39.604,-0.445,0.924,0.057
39.614,-0.449,0.926,0.055
39.624,-0.447,0.928,0.055
39.634,-0.449,0.934,0.055
39.643,-0.449,0.934,0.053
39.653,-0.449,0.934,0.053
39.663,-0.453,0.938,0.053
39.673,-0.445,0.938,0.051
39.683,-0.449,0.939,0.053
39.693,-0.443,0.934,0.053
39.703,-0.441,0.936,0.055
39.713,-0.439,0.938,0.057
39.723,-0.438,0.934,0.057
39.733,-0.439,0.934,0.057
39.743,-0.441,0.930,0.057
39.753,-0.443,0.930,0.059
39.763,-0.443,0.930,0.057
39.773,-0.441,0.934,0.053
39.782,-0.445,0.936,0.057
39.792,-0.443,0.938,0.059
39.802,-0.445,0.936,0.061
39.812,-0.445,0.936,0.055
39.822,-0.445,0.934,0.055
39.832,-0.445,0.930,0.055
39.842,-0.439,0.932,0.055
39.852,-0.441,0.928,0.055
39.862,-0.439,0.932,0.057
39.872,-0.441,0.932,0.055
39.882,-0.443,0.932,0.059
39.892,-0.445,0.932,0.055
39.902,-0.443,0.932,0.055
39.912,-0.445,0.934,0.057
39.921,-0.445,0.930,0.057
39.931,-0.447,0.932,0.055
39.941,-0.445,0.932,0.057
39.951,-0.443,0.930,0.057
39.961,-0.445,0.930,0.051
39.971,-0.443,0.934,0.053
39.981,-0.445,0.934,0.053
39.991,-0.443,0.936,0.055
40.001,-0.445,0.930,0.055
40.011,-0.445,0.934,0.053
40.021,-0.447,0.934,0.055
40.031,-0.443,0.934,0.051
40.041,-0.447,0.932,0.051
40.051,-0.445,0.932,0.055
40.061,-0.445,0.932,0.055
40.070,-0.441,0.932,0.057
40.080,-0.443,0.936,0.057
40.090,-0.445,0.934,0.059
40.100,-0.443,0.936,0.057
40.110,-0.443,0.932,0.055
40.120,-0.443,0.932,0.057
40.130,-0.441,0.928,0.055
40.140,-0.443,0.932,0.055
40.150,-0.441,0.928,0.057
40.160,-0.438,0.930,0.057
40.170,-0.439,0.936,0.055
40.180,-0.441,0.934,0.055
40.190,-0.439,0.934,0.055
40.200,-0.441,0.934,0.061
40.209,-0.441,0.936,0.051
40.219,-0.439,0.938,0.055
40.229,-0.441,0.939,0.055
40.239,-0.443,0.939,0.055
40.249,-0.445,0.941,0.055
40.259,-0.443,0.943,0.057
40.269,-0.443,0.941,0.059
40.279,-0.443,0.936,0.062
40.289,-0.443,0.936,0.062
40.299,-0.441,0.930,0.059
40.309,-0.439,0.930,0.061
40.319,-0.439,0.920,0.059
40.329,-0.441,0.924,0.057
40.339,-0.439,0.928,0.059
40.348,-0.441,0.930,0.061
40.358,-0.445,0.928,0.059
40.368,-0.445,0.934,0.053
40.378,-0.445,0.934,0.059
40.388,-0.449,0.936,0.053
40.398,-0.447,0.936,0.057
40.408,-0.449,0.936,0.055
40.418,-0.445,0.936,0.053
40.428,-0.443,0.938,0.051
40.438,-0.441,0.932,0.057
40.448,-0.439,0.938,0.055
40.458,-0.439,0.938,0.055
40.468,-0.439,0.939,0.059
40.478,-0.439,0.936,0.057
40.488,-0.441,0.932,0.053
40.497,-0.443,0.930,0.057
40.507,-0.441,0.930,0.055
40.517,-0.439,0.934,0.055
40.527,-0.439,0.936,0.055
40.537,-0.436,0.936,0.057
40.547,-0.443,0.938,0.061
40.557,-0.443,0.932,0.057
40.567,-0.443,0.934,0.055
40.577,-0.443,0.932,0.057
40.587,-0.441,0.934,0.053
40.597,-0.441,0.934,0.057
40.607,-0.441,0.932,0.055
40.617,-0.439,0.934,0.055
40.627,-0.441,0.936,0.055
40.636,-0.441,0.938,0.055
40.646,-0.445,0.934,0.055
40.656,-0.443,0.934,0.053
40.666,-0.441,0.932,0.053
40.676,-0.441,0.932,0.055
40.686,-0.447,0.932,0.053
40.696,-0.443,0.936,0.055
40.706,-0.443,0.934,0.053
40.716,-0.441,0.934,0.055
40.726,-0.441,0.936,0.053
40.736,-0.441,0.936,0.055
40.746,-0.441,0.936,0.053
40.756,-0.443,0.932,0.057
40.766,-0.441,0.936,0.051
40.775,-0.439,0.934,0.051
40.785,-0.443,0.936,0.053
40.795,-0.441,0.936,0.053
40.805,-0.441,0.934,0.051
40.815,-0.441,0.932,0.051
40.825,-0.439,0.932,0.053
40.835,-0.441,0.934,0.053
40.845,-0.441,0.938,0.055
40.855,-0.443,0.936,0.053
40.865,-0.439,0.938,0.051
40.875,-0.441,0.936,0.049
40.885,-0.443,0.939,0.053
40.895,-0.441,0.934,0.051
40.905,-0.441,0.934,0.051
40.914,-0.443,0.936,0.053
40.924,-0.441,0.938,0.051
40.934,-0.439,0.932,0.053
40.944,-0.441,0.934,0.051
40.954,-0.436,0.930,0.053
40.964,-0.434,0.930,0.051
40.974,-0.438,0.938,0.055
40.984,-0.439,0.938,0.057
40.994,-0.436,0.939,0.053
41.004,-0.441,0.936,0.051
41.014,-0.441,0.938,0.055
41.024,-0.439,0.938,0.055
41.034,-0.439,0.941,0.055
41.044,-0.439,0.939,0.059
41.054,-0.443,0.939,0.059
41.063,-0.443,0.934,0.061
41.073,-0.441,0.930,0.055
41.083,-0.441,0.928,0.055
41.093,-0.438,0.924,0.059
41.103,-0.438,0.928,0.061
41.113,-0.436,0.924,0.055
41.123,-0.436,0.928,0.057
41.133,-0.438,0.930,0.057
41.143,-0.438,0.930,0.061
41.153,-0.439,0.934,0.057
41.163,-0.443,0.938,0.057
41.173,-0.443,0.938,0.053
41.183,-0.443,0.938,0.057
41.193,-0.445,0.938,0.053
41.202,-0.443,0.939,0.053
41.212,-0.441,0.939,0.055
41.222,-0.438,0.936,0.053
41.232,-0.436,0.936,0.055
41.242,-0.438,0.938,0.057
41.252,-0.434,0.939,0.061
41.262,-0.436,0.934,0.059
41.272,-0.439,0.928,0.055
41.282,-0.441,0.930,0.051
41.292,-0.439,0.930,0.055
41.302,-0.439,0.936,0.057
41.312,-0.438,0.939,0.055
41.322,-0.441,0.936,0.059
41.332,-0.439,0.941,0.059
41.341,-0.438,0.939,0.055
41.351,-0.441,0.936,0.055
41.361,-0.441,0.936,0.057
41.371,-0.439,0.932,0.055
41.381,-0.439,0.936,0.055
41.391,-0.439,0.932,0.055
41.401,-0.439,0.938,0.057
41.411,-0.438,0.938,0.059
41.421,-0.439,0.936,0.057
41.431,-0.443,0.936,0.059
41.441,-0.443,0.932,0.057
41.451,-0.443,0.934,0.055
41.461,-0.443,0.932,0.057
41.471,-0.439,0.936,0.053
41.480,-0.443,0.932,0.055
41.490,-0.443,0.934,0.057
41.500,-0.439,0.934,0.055
41.510,-0.441,0.938,0.055
41.520,-0.439,0.938,0.057
41.530,-0.441,0.936,0.055
41.540,-0.443,0.936,0.059
41.550,-0.439,0.936,0.059
41.560,-0.441,0.934,0.053
41.570,-0.439,0.934,0.055
41.580,-0.439,0.930,0.055
41.590,-0.441,0.934,0.057
41.600,-0.438,0.934,0.062
41.610,-0.439,0.934,0.059
41.620,-0.441,0.934,0.057
41.629,-0.441,0.934,0.059
41.639,-0.441,0.938,0.057
41.649,-0.441,0.934,0.057
41.659,-0.439,0.939,0.055
41.669,-0.439,0.938,0.057
41.679,-0.443,0.938,0.057
41.689,-0.441,0.936,0.055
41.699,-0.439,0.936,0.057
41.709,-0.441,0.936,0.057
41.719,-0.443,0.936,0.055
41.729,-0.438,0.932,0.057
41.739,-0.439,0.934,0.055
41.749,-0.443,0.932,0.055
41.759,-0.438,0.930,0.057
41.768,-0.439,0.932,0.057
41.778,-0.441,0.934,0.059
41.788,-0.439,0.938,0.051
41.798,-0.439,0.938,0.053
41.808,-0.438,0.936,0.059
41.818,-0.443,0.934,0.051
41.828,-0.445,0.941,0.057
41.838,-0.443,0.941,0.055
41.848,-0.443,0.943,0.057
41.858,-0.441,0.941,0.057
41.868,-0.445,0.932,0.053
41.878,-0.447,0.930,0.053
41.888,-0.449,0.928,0.057
41.898,-0.443,0.926,0.057
41.907,-0.443,0.926,0.059
41.917,-0.443,0.926,0.059
41.927,-0.443,0.926,0.057
41.937,-0.441,0.930,0.057
41.947,-0.439,0.928,0.053
41.957,-0.441,0.934,0.059
41.967,-0.445,0.938,0.057
41.977,-0.441,0.936,0.055
41.987,-0.445,0.936,0.057
41.997,-0.445,0.938,0.057
42.007,-0.447,0.936,0.053
42.017,-0.447,0.939,0.053
42.027,-0.445,0.934,0.053
42.037,-0.445,0.934,0.055
42.046,-0.443,0.934,0.055
42.056,-0.441,0.936,0.055
42.066,-0.439,0.934,0.059
42.076,-0.438,0.926,0.053
42.086,-0.438,0.928,0.055
42.096,-0.441,0.932,0.057
42.106,-0.443,0.934,0.055
42.116,-0.441,0.938,0.055
42.126,-0.441,0.938,0.055
42.136,-0.445,0.938,0.053
42.146,-0.443,0.938,0.051
42.156,-0.443,0.936,0.055
42.166,-0.441,0.934,0.055
42.176,-0.443,0.932,0.055
42.186,-0.443,0.934,0.055
42.195,-0.441,0.930,0.057
42.205,-0.443,0.932,0.053
42.215,-0.443,0.930,0.055
42.225,-0.445,0.934,0.055
42.235,-0.443,0.932,0.055
42.245,-0.445,0.932,0.051
42.255,-0.445,0.934,0.053
42.265,-0.445,0.932,0.051
42.275,-0.445,0.934,0.051
42.285,-0.445,0.932,0.053
42.295,-0.443,0.934,0.051
42.305,-0.443,0.934,0.053
42.315,-0.445,0.936,0.049
42.325,-0.447,0.932,0.053
42.334,-0.443,0.934,0.053
42.344,-0.445,0.934,0.049
42.354,-0.445,0.932,0.051
42.364,-0.447,0.932,0.055
42.374,-0.445,0.930,0.051
42.384,-0.449,0.928,0.053
42.394,-0.447,0.934,0.051
42.404,-0.449,0.934,0.053
42.414,-0.449,0.936,0.055
42.424,-0.447,0.932,0.053
42.434,-0.447,0.932,0.053
42.444,-0.445,0.932,0.055
42.454,-0.447,0.932,0.053
42.464,-0.441,0.934,0.049
42.473,-0.443,0.934,0.051
42.483,-0.447,0.938,0.049
42.493,-0.447,0.934,0.055
42.503,-0.443,0.932,0.051
42.513,-0.445,0.928,0.053
42.523,-0.443,0.930,0.051
42.533,-0.443,0.926,0.051
42.543,-0.443,0.930,0.055
42.553,-0.443,0.932,0.053
42.563,-0.439,0.932,0.053
42.573,-0.441,0.932,0.057
42.583,-0.441,0.936,0.053
42.593,-0.445,0.938,0.053
42.603,-0.443,0.934,0.055
42.613,-0.445,0.938,0.051
42.622,-0.447,0.938,0.053
42.632,-0.449,0.945,0.051
42.642,-0.449,0.941,0.055
42.652,-0.445,0.943,0.053
42.662,-0.445,0.938,0.057
42.672,-0.445,0.930,0.059
42.682,-0.439,0.926,0.059
42.692,-0.443,0.926,0.059
42.702,-0.439,0.924,0.059
42.712,-0.439,0.922,0.059
42.722,-0.439,0.924,0.057
42.732,-0.447,0.928,0.057
42.742,-0.443,0.930,0.053
42.752,-0.447,0.930,0.057
42.761,-0.447,0.930,0.055
42.771,-0.451,0.932,0.053
42.781,-0.453,0.934,0.057
42.791,-0.451,0.938,0.055
42.801,-0.449,0.938,0.053
42.811,-0.451,0.938,0.053
42.821,-0.447,0.934,0.053
42.831,-0.443,0.934,0.055
42.841,-0.445,0.936,0.059
42.851,-0.439,0.938,0.057
42.861,-0.443,0.932,0.055
42.871,-0.445,0.928,0.055
42.881,-0.445,0.926,0.057
42.891,-0.445,0.930,0.059
42.900,-0.443,0.934,0.059
42.910,-0.445,0.930,0.057
42.920,-0.447,0.936,0.059
42.930,-0.445,0.934,0.059
42.940,-0.445,0.934,0.057
42.950,-0.447,0.932,0.057
42.960,-0.447,0.930,0.055
42.970,-0.445,0.928,0.053
42.980,-0.441,0.930,0.053
42.990,-0.443,0.934,0.055
43.000,-0.443,0.930,0.055
43.010,-0.441,0.934,0.055
43.020,-0.439,0.934,0.053
43.030,-0.443,0.934,0.055
43.039,-0.443,0.934,0.059
43.049,-0.445,0.930,0.057
43.059,-0.445,0.928,0.051
43.069,-0.443,0.932,0.055
43.079,-0.445,0.932,0.051
43.089,-0.445,0.934,0.051
43.099,-0.441,0.936,0.053
43.109,-0.441,0.936,0.053
43.119,-0.443,0.936,0.053
43.129,-0.443,0.938,0.057
43.139,-0.445,0.936,0.053
43.149,-0.443,0.934,0.053
43.159,-0.445,0.936,0.055
43.169,-0.445,0.936,0.051
43.179,-0.447,0.936,0.057
43.188,-0.443,0.936,0.051
43.198,-0.445,0.936,0.051
43.208,-0.447,0.934,0.055
43.218,-0.445,0.936,0.055
43.228,-0.445,0.930,0.057
43.238,-0.441,0.928,0.055
43.248,-0.441,0.930,0.055
43.258,-0.443,0.932,0.057
43.268,-0.439,0.930,0.053
43.278,-0.438,0.926,0.055
43.288,-0.439,0.930,0.059
43.298,-0.438,0.930,0.057
43.308,-0.436,0.928,0.057
43.318,-0.438,0.934,0.053
43.327,-0.434,0.932,0.051
43.337,-0.438,0.938,0.051
43.347,-0.439,0.941,0.051
43.357,-0.443,0.939,0.053
43.367,-0.447,0.939,0.049
43.377,-0.447,0.943,0.053
43.387,-0.447,0.943,0.051
43.397,-0.445,0.941,0.051
43.407,-0.447,0.936,0.055
43.417,-0.443,0.932,0.053
43.427,-0.447,0.926,0.055
43.437,-0.445,0.924,0.055
43.447,-0.447,0.926,0.059
43.457,-0.443,0.924,0.055
43.466,-0.447,0.928,0.053
43.476,-0.449,0.924,0.053
43.486,-0.451,0.928,0.053
43.496,-0.449,0.932,0.051
43.506,-0.449,0.934,0.051
43.516,-0.449,0.932,0.055
43.526,-0.449,0.936,0.053
43.536,-0.447,0.936,0.051
43.546,-0.447,0.938,0.049
43.556,-0.449,0.934,0.047
43.566,-0.445,0.934,0.049
43.576,-0.445,0.938,0.053
43.586,-0.441,0.934,0.051
43.596,-0.439,0.939,0.053
43.605,-0.439,0.934,0.051
43.615,-0.441,0.928,0.053
43.625,-0.439,0.932,0.051
43.635,-0.439,0.934,0.051
43.645,-0.439,0.938,0.055
43.655,-0.438,0.936,0.055
43.665,-0.443,0.939,0.053
43.675,-0.443,0.939,0.053
43.685,-0.443,0.936,0.053
43.695,-0.443,0.934,0.053
43.705,-0.441,0.932,0.051
43.715,-0.438,0.934,0.053
43.725,-0.441,0.934,0.051
43.735,-0.441,0.936,0.049
43.745,-0.438,0.938,0.055
43.754,-0.439,0.939,0.051
43.764,-0.439,0.936,0.053
43.774,-0.439,0.936,0.053
43.784,-0.441,0.934,0.053
43.794,-0.441,0.934,0.053
43.804,-0.443,0.932,0.051
43.814,-0.441,0.932,0.051
43.824,-0.439,0.932,0.051
43.834,-0.441,0.936,0.051
43.844,-0.441,0.936,0.053
43.854,-0.439,0.934,0.053
43.864,-0.441,0.936,0.057
43.874,-0.441,0.936,0.055
43.884,-0.441,0.936,0.053
43.893,-0.439,0.936,0.053
43.903,-0.441,0.934,0.057
43.913,-0.441,0.934,0.055
43.923,-0.441,0.932,0.057
43.933,-0.443,0.936,0.055
43.943,-0.443,0.934,0.057
43.953,-0.441,0.932,0.055
43.963,-0.443,0.934,0.051
43.973,-0.443,0.934,0.051
43.983,-0.443,0.938,0.053
43.993,-0.443,0.934,0.053
44.003,-0.445,0.934,0.055
44.013,-0.443,0.932,0.053
44.023,-0.443,0.934,0.055
44.032,-0.441,0.932,0.049
44.042,-0.443,0.936,0.049
44.052,-0.443,0.932,0.055
44.062,-0.439,0.930,0.055
44.072,-0.441,0.934,0.051
44.082,-0.441,0.930,0.053
44.092,-0.439,0.930,0.055
44.102,-0.439,0.928,0.059
44.112,-0.443,0.934,0.053
44.122,-0.441,0.938,0.051
44.132,-0.441,0.932,0.053
44.142,-0.443,0.932,0.051
44.152,-0.445,0.938,0.049
44.162,-0.443,0.941,0.053
44.171,-0.443,0.945,0.057
44.181,-0.445,0.939,0.055
44.191,-0.449,0.938,0.055
44.201,-0.447,0.936,0.053
44.211,-0.449,0.932,0.057
44.221,-0.447,0.930,0.053
44.231,-0.445,0.932,0.053
44.241,-0.443,0.932,0.053
44.251,-0.445,0.928,0.051
44.261,-0.441,0.928,0.053
44.271,-0.443,0.930,0.051
44.281,-0.445,0.932,0.053
44.291,-0.447,0.930,0.055
44.301,-0.445,0.934,0.049
44.311,-0.445,0.936,0.051
44.320,-0.445,0.936,0.049
44.330,-0.443,0.938,0.049
44.340,-0.443,0.939,0.051
44.350,-0.441,0.939,0.051
44.360,-0.443,0.936,0.053
44.370,-0.438,0.936,0.055
44.380,-0.439,0.938,0.053
44.390,-0.438,0.939,0.057
44.400,-0.439,0.932,0.055
44.410,-0.439,0.930,0.053
44.420,-0.439,0.924,0.051
44.430,-0.439,0.926,0.053
44.440,-0.441,0.932,0.055
44.450,-0.443,0.938,0.051
44.459,-0.441,0.939,0.051
44.469,-0.443,0.939,0.051
44.479,-0.445,0.936,0.051
44.489,-0.445,0.934,0.053
44.499,-0.449,0.934,0.055
44.509,-0.443,0.932,0.051
44.519,-0.445,0.930,0.051
44.529,-0.445,0.932,0.055
44.539,-0.441,0.932,0.055
44.549,-0.445,0.934,0.053
44.559,-0.443,0.932,0.055
44.569,-0.445,0.932,0.053
44.579,-0.447,0.930,0.053
44.589,-0.443,0.930,0.055
44.598,-0.443,0.932,0.055
44.608,-0.445,0.932,0.053
44.618,-0.445,0.932,0.053
44.628,-0.447,0.934,0.051
44.638,-0.445,0.934,0.053
44.648,-0.449,0.936,0.051
44.658,-0.449,0.938,0.051
44.668,-0.449,0.936,0.051
44.678,-0.447,0.934,0.049
44.688,-0.449,0.934,0.053
44.698,-0.445,0.936,0.055
44.708,-0.447,0.930,0.051
44.718,-0.445,0.930,0.055
44.728,-0.445,0.930,0.051
44.737,-0.443,0.932,0.051
44.747,-0.443,0.934,0.053
44.757,-0.445,0.932,0.053
44.767,-0.443,0.934,0.055
44.777,-0.447,0.934,0.051
44.787,-0.447,0.934,0.049
44.797,-0.447,0.934,0.051
44.807,-0.445,0.936,0.053
44.817,-0.445,0.934,0.051
44.827,-0.445,0.936,0.051
44.837,-0.445,0.932,0.051
44.847,-0.443,0.934,0.053
44.857,-0.443,0.934,0.057
44.867,-0.443,0.934,0.051
44.877,-0.441,0.928,0.055
44.886,-0.441,0.930,0.055
44.896,-0.443,0.928,0.059
44.906,-0.441,0.924,0.057
44.916,-0.441,0.930,0.059
44.926,-0.445,0.932,0.057
44.936,-0.445,0.938,0.055
44.946,-0.443,0.934,0.057
44.956,-0.447,0.934,0.055
44.966,-0.451,0.936,0.055
44.976,-0.451,0.941,0.055
44.986,-0.449,0.941,0.053
44.996,-0.449,0.941,0.057
45.006,-0.451,0.938,0.055
45.016,-0.451,0.934,0.055
45.025,-0.449,0.928,0.057
45.035,-0.447,0.924,0.057
45.045,-0.445,0.924,0.055
45.055,-0.443,0.924,0.057
45.065,-0.443,0.926,0.059
45.075,-0.441,0.924,0.059
45.085,-0.449,0.926,0.055
45.095,-0.447,0.930,0.057
45.105,-0.447,0.930,0.055
45.115,-0.447,0.932,0.057
45.125,-0.447,0.936,0.051
45.135,-0.451,0.932,0.049
45.145,-0.451,0.934,0.053
45.155,-0.449,0.936,0.051
45.164,-0.451,0.936,0.051
45.174,-0.449,0.932,0.053
45.184,-0.449,0.934,0.053
45.194,-0.449,0.936,0.057
45.204,-0.443,0.936,0.053
45.214,-0.445,0.930,0.053
45.224,-0.443,0.926,0.051
45.234,-0.447,0.928,0.049
45.244,-0.447,0.932,0.049
45.254,-0.447,0.936,0.051
45.264,-0.447,0.938,0.051
45.274,-0.443,0.939,0.057
45.284,-0.449,0.936,0.053
45.294,-0.449,0.936,0.057
45.303,-0.449,0.932,0.055
45.313,-0.445,0.934,0.053
45.323,-0.447,0.932,0.053
45.333,-0.445,0.934,0.049
45.343,-0.447,0.928,0.053
45.353,-0.447,0.930,0.055
45.363,-0.451,0.932,0.051
45.373,-0.449,0.930,0.053
45.383,-0.449,0.930,0.051
45.393,-0.445,0.934,0.055
45.403,-0.449,0.930,0.049
45.413,-0.451,0.930,0.049
45.423,-0.445,0.932,0.051
45.433,-0.451,0.932,0.051
45.443,-0.449,0.932,0.051
45.452,-0.447,0.928,0.049
45.462,-0.449,0.934,0.051
45.472,-0.445,0.934,0.051
45.482,-0.449,0.936,0.049
45.492,-0.445,0.936,0.051
45.502,-0.449,0.934,0.053
45.512,-0.447,0.932,0.055
45.522,-0.449,0.934,0.051
45.532,-0.447,0.936,0.053
45.542,-0.447,0.932,0.053
45.552,-0.449,0.932,0.051
45.562,-0.447,0.934,0.053
45.572,-0.451,0.932,0.057
45.582,-0.447,0.932,0.055
45.591,-0.445,0.930,0.055
45.601,-0.445,0.930,0.055
45.611,-0.445,0.930,0.057
45.621,-0.445,0.924,0.057
45.631,-0.447,0.928,0.057
45.641,-0.445,0.930,0.059
45.651,-0.445,0.934,0.053
45.661,-0.447,0.934,0.059
45.671,-0.449,0.932,0.057
45.681,-0.447,0.932,0.055
45.691,-0.445,0.930,0.055
45.701,-0.451,0.936,0.053
45.711,-0.449,0.936,0.055
45.721,-0.451,0.939,0.057
45.730,-0.451,0.939,0.059
45.740,-0.449,0.939,0.059
45.750,-0.449,0.938,0.062
45.760,-0.447,0.932,0.061
45.770,-0.443,0.928,0.061
45.780,-0.441,0.922,0.059
45.790,-0.441,0.920,0.062
45.800,-0.443,0.924,0.059
45.810,-0.443,0.924,0.061
45.820,-0.443,0.928,0.059
45.830,-0.449,0.930,0.059
45.840,-0.453,0.930,0.057
45.850,-0.451,0.930,0.059
45.860,-0.447,0.934,0.053
45.870,-0.453,0.936,0.051
45.879,-0.449,0.938,0.053
45.889,-0.451,0.938,0.051
45.899,-0.449,0.934,0.051
45.909,-0.445,0.932,0.053
45.919,-0.447,0.936,0.055
45.929,-0.445,0.936,0.057
45.939,-0.443,0.936,0.059
45.949,-0.441,0.928,0.051
45.959,-0.443,0.928,0.053
45.969,-0.445,0.926,0.055
45.979,-0.443,0.932,0.055
45.989,-0.443,0.934,0.053
45.999,-0.443,0.936,0.057
46.009,-0.443,0.938,0.059
46.018,-0.447,0.934,0.057
46.028,-0.447,0.932,0.057
46.038,-0.449,0.934,0.059
46.048,-0.445,0.930,0.057
46.058,-0.443,0.932,0.055
46.068,-0.443,0.932,0.057
46.078,-0.443,0.930,0.059
46.088,-0.445,0.932,0.057
46.098,-0.443,0.934,0.057
46.108,-0.445,0.932,0.061
46.118,-0.445,0.934,0.057
46.128,-0.443,0.930,0.057
46.138,-0.445,0.930,0.057
46.148,-0.445,0.930,0.053
46.157,-0.447,0.930,0.053
46.167,-0.443,0.934,0.059
46.177,-0.447,0.932,0.055
46.187,-0.447,0.934,0.055
46.197,-0.445,0.934,0.053
46.207,-0.447,0.939,0.055
46.217,-0.447,0.936,0.057
46.227,-0.445,0.938,0.053
46.237,-0.443,0.936,0.053
46.247,-0.443,0.938,0.055
46.257,-0.445,0.936,0.053
46.267,-0.445,0.936,0.055
46.277,-0.445,0.936,0.055
46.287,-0.449,0.934,0.059
46.296,-0.449,0.930,0.055
46.306,-0.445,0.930,0.055
46.316,-0.447,0.932,0.055
46.326,-0.447,0.930,0.053
46.336,-0.445,0.924,0.057
46.346,-0.439,0.928,0.055
46.356,-0.441,0.934,0.057
46.366,-0.439,0.932,0.055
46.376,-0.439,0.934,0.057
46.386,-0.441,0.936,0.057
46.396,-0.441,0.936,0.053
46.406,-0.443,0.936,0.055
46.416,-0.443,0.938,0.049
46.426,-0.447,0.938,0.053
46.436,-0.447,0.941,0.057
46.445,-0.449,0.941,0.057
46.455,-0.447,0.939,0.055
46.465,-0.445,0.934,0.061
46.475,-0.445,0.930,0.059
46.485,-0.443,0.926,0.059
46.495,-0.443,0.924,0.059
46.505,-0.439,0.924,0.061
46.515,-0.443,0.922,0.059
46.525,-0.443,0.924,0.059
46.535,-0.445,0.930,0.057
46.545,-0.447,0.932,0.055
46.555,-0.451,0.932,0.053
46.565,-0.447,0.932,0.051
46.575,-0.447,0.936,0.053
46.584,-0.451,0.938,0.057
46.594,-0.449,0.934,0.053
46.604,-0.449,0.936,0.049
46.614,-0.441,0.938,0.053
46.624,-0.445,0.936,0.049
46.634,-0.443,0.936,0.053
46.644,-0.441,0.939,0.053
46.654,-0.441,0.939,0.057
46.664,-0.439,0.934,0.055
46.674,-0.443,0.932,0.053
46.684,-0.445,0.932,0.053
46.694,-0.439,0.930,0.051
46.704,-0.439,0.934,0.053
46.714,-0.441,0.936,0.051
46.723,-0.441,0.936,0.051
46.733,-0.443,0.936,0.053
46.743,-0.441,0.936,0.051
46.753,-0.441,0.932,0.051
46.763,-0.445,0.934,0.053
46.773,-0.445,0.932,0.051
46.783,-0.443,0.936,0.053
46.793,-0.445,0.936,0.051
46.803,-0.441,0.936,0.051
46.813,-0.447,0.936,0.053
46.823,-0.445,0.934,0.051
46.833,-0.445,0.936,0.051
46.843,-0.445,0.932,0.053
46.853,-0.443,0.932,0.051
46.862,-0.443,0.932,0.047
46.872,-0.445,0.930,0.049
46.882,-0.445,0.932,0.051
46.892,-0.445,0.934,0.053
46.902,-0.443,0.936,0.051
46.912,-0.445,0.934,0.049
46.922,-0.445,0.936,0.053
46.932,-0.447,0.934,0.051
46.942,-0.443,0.934,0.051
46.952,-0.445,0.932,0.051
46.962,-0.447,0.932,0.053
46.972,-0.441,0.936,0.053
46.982,-0.441,0.930,0.053
46.992,-0.441,0.934,0.051
47.002,-0.443,0.932,0.053
47.011,-0.441,0.932,0.057
47.021,-0.445,0.934,0.051
47.031,-0.445,0.938,0.051
47.041,-0.447,0.934,0.051
47.051,-0.447,0.934,0.051
47.061,-0.443,0.934,0.053
47.071,-0.445,0.936,0.049
47.081,-0.445,0.936,0.049
47.091,-0.445,0.934,0.049
47.101,-0.445,0.930,0.053
47.111,-0.441,0.932,0.051
47.121,-0.439,0.932,0.055
47.131,-0.439,0.932,0.053
47.141,-0.445,0.934,0.055
47.150,-0.441,0.936,0.051
47.160,-0.441,0.934,0.053
47.170,-0.445,0.932,0.051
47.180,-0.447,0.938,0.053
47.190,-0.445,0.939,0.053
47.200,-0.445,0.941,0.053
47.210,-0.443,0.941,0.053
47.220,-0.449,0.936,0.053
47.230,-0.449,0.936,0.051
47.240,-0.447,0.928,0.053
47.250,-0.447,0.930,0.053
47.260,-0.445,0.926,0.051
47.270,-0.447,0.926,0.053
47.280,-0.449,0.930,0.053
47.289,-0.447,0.928,0.051
47.299,-0.443,0.930,0.055
47.309,-0.445,0.930,0.055
47.319,-0.445,0.932,0.053
47.329,-0.449,0.934,0.051
47.339,-0.445,0.936,0.047
47.349,-0.447,0.932,0.051
47.359,-0.447,0.936,0.049
47.369,-0.447,0.930,0.053
47.379,-0.445,0.934,0.049
47.389,-0.445,0.932,0.051
47.399,-0.445,0.936,0.049
47.409,-0.447,0.938,0.053
47.419,-0.443,0.936,0.053
47.428,-0.445,0.928,0.051
47.438,-0.441,0.930,0.049
47.448,-0.445,0.928,0.051
47.458,-0.445,0.930,0.051
47.468,-0.445,0.934,0.055
47.478,-0.443,0.938,0.053
47.488,-0.443,0.936,0.053
47.498,-0.445,0.939,0.049
47.508,-0.449,0.934,0.051
47.518,-0.447,0.934,0.051
47.528,-0.447,0.934,0.051
47.538,-0.447,0.936,0.049
47.548,-0.447,0.930,0.053
47.558,-0.447,0.932,0.051
47.568,-0.447,0.930,0.051
47.577,-0.443,0.936,0.053
47.587,-0.447,0.934,0.049
47.597,-0.447,0.934,0.051
47.607,-0.449,0.932,0.051
47.617,-0.449,0.930,0.049
47.627,-0.445,0.930,0.051
47.637,-0.443,0.932,0.053
47.647,-0.443,0.930,0.051
47.657,-0.447,0.932,0.049
47.667,-0.447,0.934,0.049
47.677,-0.449,0.936,0.053
47.687,-0.449,0.934,0.053
47.697,-0.449,0.934,0.051
47.707,-0.449,0.932,0.053
47.716,-0.447,0.930,0.053
47.726,-0.449,0.934,0.047
47.736,-0.447,0.932,0.051
47.746,-0.447,0.932,0.049
47.756,-0.449,0.932,0.049
47.766,-0.447,0.932,0.053
47.776,-0.445,0.930,0.051
47.786,-0.449,0.932,0.053
47.796,-0.443,0.934,0.051
47.806,-0.447,0.936,0.053
47.816,-0.447,0.936,0.051
47.826,-0.445,0.932,0.053
47.836,-0.447,0.932,0.049
47.846,-0.445,0.930,0.055
47.855,-0.449,0.932,0.051
47.865,-0.445,0.926,0.049
47.875,-0.447,0.926,0.051
47.885,-0.445,0.930,0.053
47.895,-0.445,0.930,0.047
47.905,-0.439,0.928,0.053
47.915,-0.443,0.932,0.053
47.925,-0.441,0.936,0.051
47.935,-0.441,0.936,0.053
47.945,-0.441,0.932,0.047
47.955,-0.445,0.936,0.051
47.965,-0.451,0.939,0.051
47.975,-0.447,0.943,0.053
47.985,-0.451,0.943,0.055
47.994,-0.451,0.941,0.053
48.004,-0.453,0.936,0.053
48.014,-0.453,0.930,0.049
48.024,-0.449,0.924,0.049
48.034,-0.449,0.920,0.051
48.044,-0.443,0.922,0.053
48.054,-0.443,0.922,0.053
48.064,-0.443,0.924,0.051
48.074,-0.441,0.928,0.053
48.084,-0.445,0.932,0.053
48.094,-0.447,0.932,0.051
48.104,-0.449,0.934,0.049
48.114,-0.451,0.932,0.049
48.124,-0.451,0.934,0.047
48.134,-0.453,0.932,0.047
48.143,-0.451,0.932,0.045
48.153,-0.451,0.936,0.047
48.163,-0.449,0.934,0.045
48.173,-0.447,0.934,0.051
48.183,-0.447,0.934,0.051
48.193,-0.447,0.934,0.051
48.203,-0.445,0.930,0.049
48.213,-0.445,0.924,0.051
48.223,-0.447,0.926,0.051
48.233,-0.445,0.930,0.053
48.243,-0.447,0.932,0.053
48.253,-0.447,0.936,0.049
48.263,-0.451,0.936,0.055
48.273,-0.455,0.934,0.053
48.282,-0.453,0.936,0.049
48.292,-0.449,0.932,0.053
48.302,-0.449,0.928,0.049
48.312,-0.449,0.930,0.053
48.322,-0.449,0.928,0.051
48.332,-0.447,0.926,0.057
48.342,-0.449,0.928,0.053
48.352,-0.447,0.930,0.053
48.362,-0.447,0.932,0.051
48.372,-0.447,0.932,0.053
48.382,-0.449,0.930,0.051
48.392,-0.451,0.930,0.051
48.402,-0.451,0.930,0.051
48.412,-0.455,0.932,0.051
48.421,-0.449,0.932,0.049
48.431,-0.447,0.934,0.049
48.441,-0.449,0.932,0.051
48.451,-0.447,0.930,0.051
48.461,-0.443,0.934,0.053
48.471,-0.447,0.936,0.051
48.481,-0.447,0.938,0.049
48.491,-0.447,0.936,0.055
48.501,-0.449,0.934,0.049
48.511,-0.449,0.930,0.053
48.521,-0.451,0.928,0.051
48.531,-0.451,0.930,0.055
48.541,-0.449,0.932,0.051
48.551,-0.449,0.930,0.053
48.561,-0.449,0.932,0.055
48.570,-0.449,0.932,0.055
48.580,-0.447,0.928,0.051
48.590,-0.445,0.926,0.057
48.600,-0.445,0.932,0.057
48.610,-0.443,0.930,0.053
48.620,-0.443,0.928,0.051
48.630,-0.441,0.928,0.057
48.640,-0.443,0.936,0.055
48.650,-0.445,0.932,0.053
48.660,-0.445,0.932,0.051
48.670,-0.447,0.934,0.055
48.680,-0.447,0.934,0.049
48.690,-0.449,0.936,0.055
48.700,-0.449,0.934,0.051
48.709,-0.449,0.941,0.053
48.719,-0.451,0.943,0.055
48.729,-0.447,0.939,0.057
48.739,-0.447,0.938,0.057
48.749,-0.445,0.932,0.059
48.759,-0.443,0.928,0.055
48.769,-0.445,0.920,0.055
48.779,-0.443,0.922,0.061
48.789,-0.445,0.920,0.057
48.799,-0.445,0.922,0.059
48.809,-0.445,0.930,0.053
48.819,-0.449,0.928,0.057
48.829,-0.449,0.930,0.057
48.839,-0.451,0.934,0.055
48.848,-0.451,0.932,0.055
48.858,-0.449,0.934,0.053
48.868,-0.453,0.936,0.049
48.878,-0.451,0.938,0.049
48.888,-0.451,0.939,0.049
48.898,-0.447,0.934,0.051
48.908,-0.447,0.936,0.053
48.918,-0.447,0.938,0.051
48.928,-0.445,0.939,0.053
48.938,-0.441,0.936,0.053
48.948,-0.445,0.932,0.053
48.958,-0.443,0.928,0.049
48.968,-0.447,0.932,0.053
48.978,-0.441,0.932,0.055
48.987,-0.443,0.936,0.055
48.997,-0.441,0.936,0.055
49.007,-0.445,0.936,0.051
49.017,-0.447,0.934,0.053
49.027,-0.445,0.932,0.049
49.037,-0.447,0.934,0.055
49.047,-0.447,0.932,0.049
49.057,-0.445,0.932,0.049
49.067,-0.447,0.932,0.051
49.077,-0.447,0.934,0.051
49.087,-0.445,0.936,0.051
49.097,-0.447,0.936,0.051
49.107,-0.447,0.934,0.051
49.117,-0.445,0.934,0.053
49.127,-0.447,0.934,0.051
49.136,-0.443,0.930,0.053
49.146,-0.449,0.930,0.051
49.156,-0.445,0.930,0.049
49.166,-0.447,0.932,0.051
49.176,-0.443,0.932,0.053
49.186,-0.441,0.932,0.053
49.196,-0.443,0.936,0.051
49.206,-0.443,0.936,0.051
49.216,-0.445,0.936,0.049
49.226,-0.449,0.938,0.049
49.236,-0.445,0.938,0.053
49.246,-0.447,0.930,0.049
49.256,-0.451,0.938,0.051
49.266,-0.445,0.932,0.051
49.275,-0.447,0.934,0.051
49.285,-0.441,0.934,0.051
49.295,-0.441,0.932,0.055
49.305,-0.439,0.934,0.051
49.315,-0.441,0.936,0.053
49.325,-0.443,0.934,0.053
49.335,-0.441,0.938,0.053
49.345,-0.443,0.934,0.053
49.355,-0.439,0.934,0.051
49.365,-0.439,0.932,0.053
49.375,-0.439,0.932,0.049
49.385,-0.439,0.928,0.051
49.395,-0.439,0.930,0.055
49.405,-0.438,0.932,0.053
49.414,-0.438,0.930,0.053
49.424,-0.436,0.934,0.055
49.434,-0.436,0.938,0.051
49.444,-0.436,0.938,0.051
49.454,-0.438,0.936,0.051
49.464,-0.439,0.938,0.051
49.474,-0.443,0.941,0.051
49.484,-0.443,0.943,0.051
49.494,-0.445,0.943,0.051
49.504,-0.445,0.943,0.053
49.514,-0.449,0.938,0.055
49.524,-0.445,0.932,0.053
49.534,-0.441,0.928,0.055
49.544,-0.441,0.926,0.053
49.553,-0.441,0.926,0.055
49.563,-0.443,0.930,0.055
49.573,-0.441,0.926,0.051
49.583,-0.441,0.932,0.053
49.593,-0.441,0.930,0.053
49.603,-0.445,0.932,0.053
49.613,-0.445,0.934,0.049
49.623,-0.443,0.936,0.047
49.633,-0.445,0.936,0.047
49.643,-0.443,0.934,0.047
49.653,-0.445,0.936,0.047
49.663,-0.445,0.934,0.047
49.673,-0.441,0.934,0.047
49.683,-0.438,0.938,0.047
49.693,-0.438,0.941,0.049
49.702,-0.438,0.938,0.049
49.712,-0.441,0.938,0.049
49.722,-0.443,0.930,0.051
49.732,-0.441,0.930,0.051
49.742,-0.441,0.928,0.047
49.752,-0.443,0.934,0.051
49.762,-0.441,0.938,0.051
49.772,-0.443,0.939,0.051
49.782,-0.443,0.938,0.051
49.792,-0.443,0.938,0.051
49.802,-0.445,0.936,0.049
49.812,-0.449,0.934,0.049
49.822,-0.445,0.934,0.051
49.832,-0.443,0.928,0.051
49.841,-0.447,0.932,0.053
49.851,-0.447,0.930,0.047
49.861,-0.447,0.932,0.051
49.871,-0.451,0.934,0.051
49.881,-0.449,0.932,0.049
49.891,-0.447,0.932,0.053
49.901,-0.449,0.930,0.051
49.911,-0.447,0.930,0.049
49.921,-0.449,0.932,0.053
49.931,-0.447,0.932,0.051
49.941,-0.447,0.936,0.049
49.951,-0.443,0.932,0.049
49.961,-0.445,0.932,0.051
49.971,-0.449,0.934,0.049
49.980,-0.445,0.934,0.049
49.990,-0.447,0.934,0.053
50.000,-0.447,0.930,0.051
50.010,-0.447,0.932,0.051
50.020,-0.445,0.932,0.051
50.030,-0.451,0.928,0.055
50.040,-0.447,0.930,0.049
50.050,-0.447,0.930,0.051
50.060,-0.447,0.934,0.049
50.070,-0.447,0.930,0.051
50.080,-0.449,0.932,0.049
50.090,-0.445,0.930,0.051
50.100,-0.445,0.932,0.049
50.110,-0.445,0.934,0.049
50.119,-0.443,0.934,0.049
50.129,-0.445,0.936,0.047
50.139,-0.451,0.934,0.053
50.149,-0.451,0.932,0.049
50.159,-0.449,0.932,0.047
50.169,-0.449,0.936,0.049
50.179,-0.449,0.930,0.047
50.189,-0.447,0.924,0.051
50.199,-0.445,0.932,0.053
50.209,-0.443,0.932,0.049
50.219,-0.439,0.932,0.053
50.229,-0.443,0.930,0.051
50.239,-0.443,0.934,0.059
50.249,-0.445,0.934,0.049
50.259,-0.447,0.932,0.047
50.268,-0.451,0.934,0.047
50.278,-0.453,0.938,0.049
50.288,-0.455,0.941,0.047
50.298,-0.453,0.945,0.047
50.308,-0.451,0.939,0.053
50.318,-0.455,0.934,0.053
50.328,-0.451,0.932,0.047
50.338,-0.447,0.926,0.051
50.348,-0.447,0.922,0.053
