df_hash,22ZHK4.FHJ395
device,HZ2X61
project_hash,29R7
project_name,istanbul_aydin_university
person_hash,29R7.JXQ5
person_label,V16
date_time_start,2025-05-23_09-42-38.064000_+03
date_time_start_unix,1747982558.064
date_time_end,2025-05-23_09-51-23.087000_+03
length_difference_noticed,no

time,acc_x,acc_y,acc_z
5.345,-0.650,0.740,0.191
5.355,-0.650,0.740,0.188
5.365,-0.650,0.742,0.191
5.374,-0.654,0.742,0.191
5.384,-0.652,0.744,0.189
5.394,-0.652,0.744,0.191
5.404,-0.652,0.744,0.191
5.414,-0.650,0.744,0.189
5.424,-0.652,0.744,0.191
5.434,-0.650,0.744,0.193
5.444,-0.650,0.746,0.193
5.454,-0.648,0.746,0.189
5.464,-0.645,0.740,0.191
5.474,-0.646,0.740,0.195
5.484,-0.648,0.740,0.193
5.494,-0.648,0.738,0.195
5.503,-0.648,0.740,0.193
5.513,-0.652,0.740,0.193
5.523,-0.652,0.742,0.191
5.533,-0.652,0.742,0.191
5.543,-0.652,0.744,0.191
5.553,-0.652,0.742,0.193
5.563,-0.652,0.738,0.191
5.573,-0.652,0.738,0.188
5.583,-0.654,0.740,0.191
5.593,-0.652,0.740,0.189
5.603,-0.654,0.742,0.193
5.613,-0.654,0.740,0.191
5.623,-0.652,0.740,0.191
5.632,-0.652,0.740,0.191
5.642,-0.654,0.738,0.193
5.652,-0.654,0.740,0.189
5.662,-0.656,0.738,0.191
5.672,-0.658,0.740,0.188
5.682,-0.660,0.742,0.191
5.692,-0.660,0.742,0.184
5.702,-0.660,0.742,0.186
5.712,-0.662,0.738,0.184
5.722,-0.658,0.742,0.186
5.732,-0.656,0.742,0.182
5.742,-0.656,0.740,0.186
5.752,-0.652,0.740,0.186
5.762,-0.652,0.740,0.184
5.771,-0.656,0.740,0.186
5.781,-0.650,0.738,0.188
5.791,-0.646,0.738,0.189
5.801,-0.648,0.738,0.188
5.811,-0.646,0.740,0.186
5.821,-0.648,0.740,0.188
5.831,-0.648,0.738,0.188
5.841,-0.648,0.740,0.188
5.851,-0.652,0.736,0.188
5.861,-0.656,0.736,0.184
5.871,-0.658,0.740,0.186
5.881,-0.658,0.740,0.188
5.891,-0.660,0.740,0.188
5.900,-0.658,0.740,0.188
5.910,-0.658,0.740,0.186
5.920,-0.656,0.738,0.188
5.930,-0.654,0.738,0.188
5.940,-0.648,0.738,0.189
5.950,-0.648,0.742,0.188
5.960,-0.646,0.740,0.191
5.970,-0.646,0.746,0.193
5.980,-0.643,0.744,0.188
5.990,-0.646,0.740,0.195
6.000,-0.645,0.740,0.189
6.010,-0.652,0.740,0.188
6.020,-0.654,0.742,0.189
6.029,-0.656,0.742,0.189
6.039,-0.656,0.744,0.189
6.049,-0.656,0.746,0.188
6.059,-0.656,0.746,0.191
6.069,-0.656,0.740,0.189
6.079,-0.654,0.740,0.186
6.089,-0.646,0.740,0.186
6.099,-0.645,0.746,0.189
6.109,-0.643,0.740,0.191
6.119,-0.645,0.742,0.188
6.129,-0.645,0.744,0.193
6.139,-0.645,0.744,0.191
6.149,-0.650,0.748,0.191
6.159,-0.648,0.746,0.191
6.168,-0.646,0.744,0.193
6.178,-0.650,0.746,0.195
6.188,-0.654,0.744,0.191
6.198,-0.654,0.742,0.195
6.208,-0.656,0.742,0.189
6.218,-0.656,0.740,0.193
6.228,-0.654,0.740,0.195
6.238,-0.650,0.744,0.193
6.248,-0.648,0.740,0.195
6.258,-0.646,0.742,0.193
6.268,-0.643,0.742,0.193
6.278,-0.643,0.738,0.195
6.288,-0.641,0.742,0.193
6.297,-0.643,0.742,0.195
6.307,-0.646,0.746,0.195
6.317,-0.650,0.748,0.195
6.327,-0.650,0.746,0.195
6.337,-0.648,0.744,0.195
6.347,-0.650,0.738,0.195
6.357,-0.652,0.738,0.193
6.367,-0.650,0.736,0.195
6.377,-0.654,0.738,0.193
6.387,-0.652,0.738,0.199
6.397,-0.650,0.742,0.197
6.407,-0.646,0.740,0.195
6.417,-0.646,0.740,0.193
6.426,-0.648,0.740,0.195
6.436,-0.646,0.744,0.197
6.446,-0.648,0.740,0.193
6.456,-0.650,0.738,0.193
6.466,-0.648,0.742,0.193
6.476,-0.652,0.742,0.191
6.486,-0.652,0.746,0.193
6.496,-0.652,0.746,0.195
6.506,-0.650,0.742,0.193
6.516,-0.652,0.742,0.193
6.526,-0.648,0.742,0.195
6.536,-0.648,0.740,0.191
6.546,-0.650,0.744,0.193
6.555,-0.646,0.738,0.191
6.565,-0.648,0.738,0.191
6.575,-0.645,0.740,0.193
6.585,-0.646,0.740,0.193
6.595,-0.648,0.742,0.191
6.605,-0.648,0.742,0.191
6.615,-0.650,0.742,0.193
6.625,-0.646,0.740,0.195
6.635,-0.648,0.740,0.195
6.645,-0.652,0.740,0.195
6.655,-0.652,0.740,0.193
6.665,-0.650,0.740,0.195
6.675,-0.650,0.738,0.195
6.685,-0.652,0.740,0.193
6.694,-0.652,0.744,0.193
6.704,-0.654,0.744,0.197
6.714,-0.652,0.738,0.195
6.724,-0.652,0.742,0.193
6.734,-0.652,0.738,0.193
6.744,-0.654,0.740,0.191
6.754,-0.652,0.744,0.193
6.764,-0.652,0.746,0.193
6.774,-0.650,0.744,0.195
6.784,-0.648,0.744,0.195
6.794,-0.648,0.742,0.195
6.804,-0.646,0.738,0.197
6.814,-0.652,0.736,0.193
6.823,-0.650,0.736,0.193
6.833,-0.650,0.740,0.199
6.843,-0.650,0.742,0.199
6.853,-0.654,0.740,0.197
6.863,-0.654,0.738,0.197
6.873,-0.654,0.740,0.197
6.883,-0.652,0.734,0.197
6.893,-0.658,0.736,0.195
6.903,-0.656,0.734,0.197
6.913,-0.656,0.732,0.193
6.923,-0.656,0.732,0.197
6.933,-0.652,0.736,0.199
6.943,-0.652,0.738,0.197
6.952,-0.652,0.740,0.195
6.962,-0.652,0.738,0.199
6.972,-0.652,0.738,0.197
6.982,-0.652,0.740,0.195
6.992,-0.654,0.734,0.197
7.002,-0.654,0.738,0.199
7.012,-0.660,0.736,0.199
7.022,-0.660,0.740,0.195
7.032,-0.664,0.736,0.195
7.042,-0.656,0.736,0.195
7.052,-0.654,0.742,0.195
7.062,-0.652,0.740,0.197
7.072,-0.652,0.738,0.197
7.081,-0.646,0.736,0.193
7.091,-0.648,0.734,0.195
7.101,-0.650,0.736,0.201
7.111,-0.650,0.738,0.199
7.121,-0.652,0.742,0.197
7.131,-0.654,0.742,0.197
7.141,-0.654,0.744,0.195
7.151,-0.654,0.742,0.195
7.161,-0.650,0.744,0.193
7.171,-0.648,0.742,0.195
7.181,-0.654,0.740,0.193
7.191,-0.650,0.740,0.193
7.201,-0.646,0.742,0.193
7.211,-0.648,0.742,0.195
7.220,-0.646,0.744,0.193
7.230,-0.652,0.740,0.195
7.240,-0.646,0.744,0.197
7.250,-0.646,0.740,0.195
7.260,-0.650,0.740,0.193
7.270,-0.650,0.740,0.189
7.280,-0.646,0.742,0.195
7.290,-0.652,0.744,0.197
7.300,-0.650,0.742,0.195
7.310,-0.650,0.740,0.195
7.320,-0.650,0.740,0.195
7.330,-0.652,0.740,0.191
7.340,-0.652,0.742,0.193
7.349,-0.650,0.740,0.193
7.359,-0.648,0.742,0.195
7.369,-0.648,0.742,0.197
7.379,-0.646,0.744,0.197
7.389,-0.646,0.746,0.195
7.399,-0.648,0.748,0.195
7.409,-0.648,0.746,0.193
7.419,-0.654,0.744,0.201
7.429,-0.654,0.744,0.203
7.439,-0.652,0.740,0.201
7.449,-0.654,0.738,0.199
7.459,-0.654,0.734,0.201
7.469,-0.654,0.727,0.201
7.478,-0.652,0.729,0.199
7.488,-0.652,0.723,0.197
7.498,-0.652,0.727,0.201
7.508,-0.654,0.729,0.199
7.518,-0.658,0.738,0.199
7.528,-0.660,0.736,0.199
7.538,-0.662,0.732,0.201
7.548,-0.666,0.736,0.199
7.558,-0.664,0.738,0.199
7.568,-0.660,0.734,0.195
7.578,-0.660,0.734,0.201
7.588,-0.662,0.734,0.203
7.598,-0.662,0.730,0.203
7.608,-0.664,0.742,0.203
7.617,-0.668,0.734,0.205
7.627,-0.664,0.734,0.207
7.637,-0.664,0.736,0.205
7.647,-0.660,0.738,0.203
7.657,-0.662,0.732,0.205
7.667,-0.664,0.732,0.203
7.677,-0.658,0.730,0.203
7.687,-0.654,0.736,0.205
7.697,-0.652,0.734,0.199
7.707,-0.646,0.732,0.199
7.717,-0.648,0.734,0.203
7.727,-0.639,0.734,0.201
7.737,-0.646,0.736,0.199
7.746,-0.646,0.740,0.199
7.756,-0.645,0.742,0.201
7.766,-0.648,0.738,0.203
7.776,-0.643,0.744,0.203
7.786,-0.643,0.740,0.195
7.796,-0.648,0.740,0.199
7.806,-0.646,0.740,0.197
7.816,-0.645,0.740,0.199
7.826,-0.648,0.746,0.195
7.836,-0.652,0.742,0.195
7.846,-0.648,0.738,0.189
7.856,-0.654,0.744,0.188
7.866,-0.652,0.742,0.189
7.875,-0.656,0.746,0.186
7.885,-0.652,0.738,0.188
7.895,-0.650,0.740,0.186
7.905,-0.648,0.740,0.186
7.915,-0.652,0.744,0.186
7.925,-0.646,0.740,0.188
7.935,-0.645,0.730,0.180
7.945,-0.648,0.729,0.180
7.955,-0.648,0.725,0.178
7.965,-0.650,0.734,0.184
7.975,-0.656,0.729,0.186
7.985,-0.648,0.744,0.195
7.995,-0.646,0.748,0.195
8.004,-0.648,0.760,0.195
8.014,-0.648,0.764,0.197
8.024,-0.650,0.766,0.199
8.034,-0.645,0.770,0.201
8.044,-0.637,0.770,0.199
8.054,-0.633,0.764,0.197
8.064,-0.635,0.762,0.199
8.074,-0.633,0.756,0.195
8.084,-0.633,0.754,0.195
8.094,-0.635,0.746,0.193
8.104,-0.637,0.744,0.195
8.114,-0.631,0.744,0.195
8.124,-0.633,0.744,0.188
8.134,-0.637,0.742,0.189
8.143,-0.639,0.740,0.189
8.153,-0.641,0.746,0.189
8.163,-0.641,0.746,0.188
8.173,-0.645,0.740,0.189
8.183,-0.648,0.742,0.188
8.193,-0.650,0.750,0.193
8.203,-0.650,0.748,0.191
8.213,-0.650,0.746,0.188
8.223,-0.650,0.744,0.191
8.233,-0.658,0.738,0.191
8.243,-0.658,0.740,0.191
8.253,-0.662,0.742,0.189
8.263,-0.664,0.740,0.195
8.272,-0.666,0.742,0.191
8.282,-0.662,0.742,0.197
8.292,-0.656,0.738,0.193
8.302,-0.656,0.742,0.197
8.312,-0.652,0.740,0.199
8.322,-0.648,0.738,0.197
8.332,-0.645,0.740,0.197
8.342,-0.646,0.738,0.193
8.352,-0.643,0.740,0.199
8.362,-0.643,0.736,0.199
8.372,-0.648,0.732,0.197
8.382,-0.658,0.727,0.197
8.392,-0.654,0.721,0.186
8.401,-0.662,0.729,0.201
8.411,-0.674,0.723,0.195
8.421,-0.678,0.717,0.193
8.431,-0.676,0.725,0.201
8.441,-0.678,0.725,0.201
8.451,-0.674,0.729,0.197
8.461,-0.658,0.742,0.201
8.471,-0.656,0.746,0.205
8.481,-0.646,0.742,0.203
8.491,-0.648,0.742,0.201
8.501,-0.646,0.746,0.197
8.511,-0.646,0.736,0.199
8.521,-0.646,0.732,0.193
8.530,-0.650,0.736,0.193
8.540,-0.660,0.732,0.191
8.550,-0.666,0.729,0.186
8.560,-0.666,0.729,0.188
8.570,-0.674,0.727,0.189
8.580,-0.676,0.727,0.188
8.590,-0.676,0.725,0.186
8.600,-0.678,0.729,0.188
8.610,-0.680,0.734,0.191
8.620,-0.676,0.725,0.189
8.630,-0.670,0.721,0.184
8.640,-0.666,0.719,0.180
8.650,-0.664,0.719,0.182
8.660,-0.666,0.729,0.178
8.669,-0.668,0.734,0.182
8.679,-0.670,0.729,0.180
8.689,-0.672,0.732,0.178
8.699,-0.672,0.732,0.180
8.709,-0.672,0.730,0.178
8.719,-0.670,0.730,0.172
8.729,-0.670,0.730,0.172
8.739,-0.682,0.727,0.176
8.749,-0.689,0.730,0.176
8.759,-0.688,0.732,0.178
8.769,-0.684,0.727,0.176
8.779,-0.680,0.729,0.178
8.789,-0.680,0.729,0.178
8.798,-0.676,0.727,0.178
8.808,-0.674,0.727,0.180
8.818,-0.674,0.727,0.182
8.828,-0.672,0.727,0.180
8.838,-0.674,0.729,0.184
8.848,-0.670,0.725,0.186
8.858,-0.668,0.729,0.182
8.868,-0.670,0.711,0.182
8.878,-0.674,0.727,0.182
8.888,-0.672,0.725,0.188
8.898,-0.674,0.717,0.186
8.908,-0.674,0.727,0.189
8.918,-0.672,0.725,0.193
8.927,-0.684,0.719,0.191
8.937,-0.686,0.713,0.193
8.947,-0.678,0.713,0.191
8.957,-0.678,0.713,0.189
8.967,-0.686,0.717,0.193
8.977,-0.693,0.717,0.193
8.987,-0.691,0.715,0.189
8.997,-0.688,0.701,0.191
9.007,-0.691,0.705,0.193
9.017,-0.691,0.701,0.195
9.027,-0.689,0.697,0.193
9.037,-0.689,0.709,0.191
9.047,-0.686,0.711,0.191
9.057,-0.684,0.711,0.188
9.066,-0.678,0.713,0.195
9.076,-0.676,0.721,0.195
9.086,-0.680,0.719,0.191
9.096,-0.678,0.717,0.189
9.106,-0.670,0.723,0.188
9.116,-0.672,0.721,0.188
9.126,-0.678,0.721,0.188
9.136,-0.686,0.725,0.188
9.146,-0.688,0.721,0.188
9.156,-0.689,0.723,0.186
9.166,-0.689,0.723,0.188
9.176,-0.688,0.717,0.188
9.186,-0.682,0.719,0.186
9.195,-0.680,0.719,0.184
9.205,-0.680,0.719,0.186
9.215,-0.676,0.721,0.182
9.225,-0.678,0.721,0.180
9.235,-0.676,0.721,0.182
9.245,-0.680,0.723,0.184
9.255,-0.680,0.721,0.184
9.265,-0.680,0.719,0.182
9.275,-0.678,0.717,0.184
9.285,-0.680,0.719,0.184
9.295,-0.680,0.717,0.184
9.305,-0.682,0.719,0.186
9.315,-0.688,0.715,0.186
9.324,-0.686,0.715,0.188
9.334,-0.686,0.721,0.186
9.344,-0.684,0.719,0.189
9.354,-0.680,0.719,0.182
9.364,-0.674,0.719,0.186
9.374,-0.678,0.717,0.180
9.384,-0.678,0.717,0.186
9.394,-0.680,0.715,0.184
9.404,-0.682,0.717,0.186
9.414,-0.682,0.717,0.182
9.424,-0.684,0.715,0.186
9.434,-0.684,0.719,0.180
9.444,-0.688,0.715,0.180
9.453,-0.688,0.717,0.182
9.463,-0.686,0.719,0.182
9.473,-0.688,0.717,0.184
9.483,-0.686,0.719,0.182
9.493,-0.688,0.721,0.184
9.503,-0.689,0.717,0.186
9.513,-0.686,0.717,0.182
9.523,-0.686,0.717,0.182
9.533,-0.684,0.719,0.182
9.543,-0.684,0.715,0.184
9.553,-0.684,0.717,0.184
9.563,-0.686,0.715,0.182
9.573,-0.684,0.717,0.180
9.583,-0.682,0.715,0.184
9.592,-0.684,0.715,0.180
9.602,-0.682,0.715,0.180
9.612,-0.680,0.715,0.180
9.622,-0.684,0.713,0.178
9.632,-0.686,0.715,0.176
9.642,-0.684,0.715,0.176
9.652,-0.684,0.719,0.176
9.662,-0.684,0.721,0.182
9.672,-0.682,0.721,0.178
9.682,-0.684,0.719,0.186
9.692,-0.686,0.717,0.182
9.702,-0.684,0.713,0.178
9.712,-0.688,0.715,0.182
9.721,-0.688,0.711,0.184
9.731,-0.686,0.711,0.184
9.741,-0.688,0.715,0.180
9.751,-0.686,0.709,0.184
9.761,-0.684,0.709,0.182
9.771,-0.684,0.709,0.184
9.781,-0.684,0.711,0.186
9.791,-0.686,0.715,0.182
9.801,-0.691,0.711,0.182
9.811,-0.691,0.715,0.184
9.821,-0.697,0.713,0.182
9.831,-0.695,0.713,0.186
9.841,-0.693,0.709,0.186
9.850,-0.691,0.711,0.184
9.860,-0.691,0.709,0.182
9.870,-0.691,0.713,0.180
9.880,-0.688,0.715,0.182
9.890,-0.686,0.713,0.184
9.900,-0.689,0.715,0.184
9.910,-0.688,0.713,0.182
9.920,-0.688,0.713,0.186
9.930,-0.688,0.711,0.180
9.940,-0.684,0.715,0.182
9.950,-0.684,0.717,0.184
9.960,-0.684,0.717,0.184
9.970,-0.680,0.715,0.182
9.979,-0.680,0.715,0.182
9.989,-0.684,0.719,0.184
9.999,-0.686,0.717,0.180
10.009,-0.684,0.713,0.178
10.019,-0.684,0.717,0.182
10.029,-0.682,0.719,0.182
10.039,-0.682,0.717,0.180
10.049,-0.680,0.717,0.178
10.059,-0.682,0.711,0.178
10.069,-0.678,0.717,0.180
10.079,-0.682,0.721,0.178
10.089,-0.678,0.717,0.178
10.099,-0.680,0.725,0.178
10.109,-0.684,0.721,0.178
10.118,-0.684,0.721,0.182
10.128,-0.680,0.725,0.182
10.138,-0.676,0.717,0.178
10.148,-0.676,0.717,0.182
10.158,-0.682,0.715,0.180
10.168,-0.678,0.719,0.178
10.178,-0.680,0.717,0.178
10.188,-0.682,0.717,0.178
10.198,-0.682,0.719,0.176
10.208,-0.684,0.717,0.180
10.218,-0.688,0.713,0.176
10.228,-0.688,0.715,0.178
10.238,-0.691,0.713,0.178
10.247,-0.693,0.715,0.180
10.257,-0.689,0.717,0.180
10.267,-0.691,0.713,0.182
10.277,-0.693,0.713,0.180
10.287,-0.693,0.711,0.180
10.297,-0.693,0.711,0.176
10.307,-0.695,0.707,0.180
10.317,-0.697,0.709,0.180
10.327,-0.695,0.705,0.182
10.337,-0.693,0.709,0.184
10.347,-0.695,0.705,0.186
10.357,-0.691,0.707,0.182
10.367,-0.693,0.703,0.184
10.376,-0.693,0.707,0.188
10.386,-0.693,0.705,0.184
10.396,-0.695,0.711,0.186
10.406,-0.695,0.711,0.188
10.416,-0.693,0.709,0.186
10.426,-0.693,0.711,0.186
10.436,-0.693,0.711,0.188
10.446,-0.691,0.709,0.188
10.456,-0.695,0.709,0.184
10.466,-0.693,0.707,0.186
10.476,-0.697,0.707,0.186
10.486,-0.695,0.705,0.184
10.496,-0.697,0.709,0.180
10.506,-0.693,0.711,0.182
10.515,-0.691,0.715,0.182
10.525,-0.691,0.703,0.186
10.535,-0.689,0.707,0.182
10.545,-0.689,0.707,0.182
10.555,-0.688,0.707,0.180
10.565,-0.688,0.711,0.180
10.575,-0.688,0.709,0.180
10.585,-0.686,0.709,0.182
10.595,-0.684,0.711,0.182
10.605,-0.689,0.711,0.178
10.615,-0.684,0.709,0.180
10.625,-0.682,0.711,0.182
10.635,-0.684,0.711,0.184
10.644,-0.684,0.713,0.182
10.654,-0.688,0.713,0.180
10.664,-0.691,0.717,0.180
10.674,-0.691,0.711,0.182
10.684,-0.691,0.711,0.184
10.694,-0.691,0.719,0.184
10.704,-0.693,0.715,0.180
10.714,-0.688,0.713,0.182
10.724,-0.689,0.707,0.182
10.734,-0.686,0.711,0.180
10.744,-0.688,0.713,0.178
10.754,-0.686,0.709,0.178
10.764,-0.689,0.711,0.180
10.773,-0.688,0.715,0.178
10.783,-0.693,0.717,0.184
10.793,-0.691,0.715,0.180
10.803,-0.695,0.713,0.186
10.813,-0.693,0.711,0.184
10.823,-0.693,0.711,0.180
10.833,-0.693,0.711,0.182
10.843,-0.693,0.711,0.182
10.853,-0.691,0.711,0.182
10.863,-0.691,0.713,0.184
10.873,-0.688,0.711,0.182
10.883,-0.689,0.715,0.184
10.893,-0.688,0.713,0.180
10.902,-0.686,0.713,0.184
10.912,-0.684,0.717,0.180
10.922,-0.688,0.715,0.182
10.932,-0.688,0.717,0.182
10.942,-0.686,0.715,0.184
10.952,-0.684,0.719,0.176
10.962,-0.682,0.719,0.178
10.972,-0.684,0.715,0.178
10.982,-0.684,0.715,0.178
10.992,-0.684,0.715,0.178
11.002,-0.682,0.713,0.182
11.012,-0.682,0.713,0.178
11.022,-0.684,0.711,0.180
11.032,-0.688,0.709,0.178
11.041,-0.688,0.711,0.180
11.051,-0.688,0.715,0.184
11.061,-0.689,0.713,0.182
11.071,-0.689,0.711,0.180
11.081,-0.689,0.709,0.180
11.091,-0.691,0.711,0.184
11.101,-0.691,0.713,0.182
11.111,-0.693,0.717,0.184
11.121,-0.691,0.713,0.180
11.131,-0.689,0.709,0.182
11.141,-0.688,0.711,0.186
11.151,-0.686,0.709,0.182
11.161,-0.689,0.707,0.182
11.170,-0.691,0.701,0.184
11.180,-0.695,0.705,0.188
11.190,-0.697,0.701,0.182
11.200,-0.697,0.703,0.184
11.210,-0.701,0.705,0.180
11.220,-0.699,0.703,0.184
11.230,-0.701,0.701,0.184
11.240,-0.699,0.701,0.184
11.250,-0.699,0.701,0.182
11.260,-0.697,0.701,0.178
11.270,-0.697,0.707,0.184
11.280,-0.697,0.705,0.180
11.290,-0.695,0.709,0.180
11.299,-0.697,0.707,0.178
11.309,-0.695,0.707,0.180
11.319,-0.695,0.709,0.182
11.329,-0.691,0.709,0.180
11.339,-0.689,0.705,0.184
11.349,-0.691,0.709,0.188
11.359,-0.689,0.707,0.182
11.369,-0.691,0.707,0.182
11.379,-0.691,0.709,0.178
11.389,-0.689,0.713,0.184
11.399,-0.689,0.719,0.182
11.409,-0.689,0.711,0.184
11.419,-0.686,0.711,0.184
11.428,-0.688,0.709,0.184
11.438,-0.686,0.707,0.176
11.448,-0.689,0.713,0.182
11.458,-0.688,0.715,0.178
11.468,-0.686,0.713,0.178
11.478,-0.686,0.717,0.176
11.488,-0.688,0.717,0.178
11.498,-0.684,0.721,0.176
11.508,-0.688,0.719,0.178
11.518,-0.684,0.717,0.180
11.528,-0.684,0.715,0.182
11.538,-0.686,0.717,0.178
11.548,-0.682,0.715,0.180
11.558,-0.686,0.719,0.180
11.567,-0.686,0.719,0.182
11.577,-0.688,0.717,0.180
11.587,-0.686,0.717,0.180
11.597,-0.686,0.717,0.182
11.607,-0.686,0.711,0.182
11.617,-0.686,0.711,0.178
11.627,-0.689,0.713,0.176
11.637,-0.688,0.713,0.182
11.647,-0.688,0.713,0.180
11.657,-0.688,0.713,0.178
11.667,-0.688,0.715,0.182
11.677,-0.689,0.715,0.178
11.687,-0.688,0.715,0.180
11.696,-0.686,0.713,0.180
11.706,-0.688,0.717,0.178
11.716,-0.688,0.715,0.180
11.726,-0.686,0.713,0.182
11.736,-0.684,0.717,0.182
11.746,-0.686,0.713,0.184
11.756,-0.688,0.713,0.184
11.766,-0.686,0.711,0.182
11.776,-0.689,0.711,0.180
11.786,-0.688,0.713,0.182
11.796,-0.691,0.707,0.180
11.806,-0.693,0.707,0.180
11.816,-0.693,0.709,0.186
11.825,-0.695,0.707,0.186
11.835,-0.697,0.705,0.188
11.845,-0.695,0.703,0.184
11.855,-0.695,0.707,0.186
11.865,-0.697,0.705,0.186
11.875,-0.697,0.705,0.186
11.885,-0.697,0.705,0.186
11.895,-0.697,0.703,0.186
11.905,-0.695,0.703,0.184
11.915,-0.697,0.705,0.186
11.925,-0.693,0.703,0.184
11.935,-0.693,0.711,0.188
11.945,-0.691,0.709,0.186
11.955,-0.691,0.705,0.189
11.964,-0.693,0.709,0.188
11.974,-0.693,0.709,0.189
11.984,-0.693,0.703,0.188
11.994,-0.695,0.705,0.186
12.004,-0.697,0.703,0.188
12.014,-0.697,0.703,0.189
12.024,-0.701,0.705,0.188
12.034,-0.703,0.707,0.188
12.044,-0.703,0.703,0.186
12.054,-0.703,0.701,0.188
12.064,-0.703,0.699,0.186
12.074,-0.705,0.699,0.188
12.084,-0.701,0.699,0.186
12.093,-0.701,0.697,0.188
12.103,-0.701,0.703,0.188
12.113,-0.697,0.701,0.186
12.123,-0.697,0.701,0.189
12.133,-0.693,0.705,0.188
12.143,-0.693,0.705,0.186
12.153,-0.693,0.705,0.188
12.163,-0.691,0.707,0.189
12.173,-0.691,0.707,0.186
12.183,-0.693,0.709,0.186
12.193,-0.693,0.707,0.188
12.203,-0.695,0.709,0.184
12.213,-0.697,0.709,0.184
12.222,-0.695,0.711,0.186
12.232,-0.695,0.711,0.188
12.242,-0.695,0.709,0.188
12.252,-0.691,0.709,0.188
12.262,-0.689,0.707,0.186
12.272,-0.693,0.707,0.188
12.282,-0.689,0.707,0.188
12.292,-0.689,0.707,0.189
12.302,-0.691,0.711,0.182
12.312,-0.689,0.711,0.186
12.322,-0.693,0.713,0.184
12.332,-0.689,0.711,0.186
12.342,-0.693,0.711,0.189
12.351,-0.691,0.709,0.188
12.361,-0.693,0.711,0.184
12.371,-0.693,0.709,0.184
12.381,-0.688,0.705,0.186
12.391,-0.688,0.709,0.186
12.401,-0.693,0.709,0.188
12.411,-0.691,0.707,0.188
12.421,-0.691,0.711,0.184
12.431,-0.693,0.711,0.186
12.441,-0.691,0.711,0.186
12.451,-0.691,0.707,0.186
12.461,-0.695,0.709,0.184
12.471,-0.697,0.711,0.186
12.481,-0.693,0.709,0.188
12.490,-0.693,0.707,0.186
12.500,-0.693,0.707,0.186
12.510,-0.695,0.707,0.186
12.520,-0.691,0.707,0.193
12.530,-0.693,0.709,0.188
12.540,-0.693,0.707,0.186
12.550,-0.693,0.707,0.188
12.560,-0.693,0.705,0.186
12.570,-0.695,0.705,0.188
12.580,-0.693,0.705,0.189
12.590,-0.693,0.705,0.195
12.600,-0.697,0.701,0.189
12.610,-0.695,0.703,0.189
12.619,-0.697,0.701,0.189
12.629,-0.693,0.701,0.191
12.639,-0.695,0.699,0.193
12.649,-0.693,0.697,0.195
12.659,-0.699,0.701,0.193
12.669,-0.699,0.699,0.191
12.679,-0.701,0.701,0.193
12.689,-0.697,0.701,0.193
12.699,-0.703,0.699,0.191
12.709,-0.701,0.701,0.191
12.719,-0.697,0.703,0.195
12.729,-0.699,0.699,0.193
12.739,-0.697,0.701,0.193
12.748,-0.693,0.701,0.191
12.758,-0.695,0.701,0.193
12.768,-0.693,0.699,0.191
12.778,-0.697,0.707,0.193
12.788,-0.697,0.701,0.193
12.798,-0.697,0.699,0.193
12.808,-0.695,0.705,0.193
12.818,-0.695,0.703,0.195
12.828,-0.697,0.701,0.195
12.838,-0.697,0.699,0.189
12.848,-0.699,0.699,0.197
12.858,-0.699,0.703,0.195
12.868,-0.701,0.703,0.195
12.877,-0.701,0.701,0.193
12.887,-0.701,0.701,0.193
12.897,-0.699,0.701,0.191
12.907,-0.697,0.701,0.195
12.917,-0.701,0.701,0.193
12.927,-0.699,0.699,0.191
12.937,-0.699,0.701,0.189
12.947,-0.697,0.697,0.193
12.957,-0.699,0.699,0.191
12.967,-0.699,0.697,0.193
12.977,-0.697,0.703,0.193
12.987,-0.701,0.701,0.191
12.997,-0.699,0.701,0.191
13.007,-0.701,0.705,0.193
13.016,-0.701,0.703,0.189
13.026,-0.701,0.703,0.195
13.036,-0.699,0.705,0.193
13.046,-0.701,0.703,0.189
13.056,-0.699,0.697,0.188
13.066,-0.697,0.703,0.189
13.076,-0.697,0.705,0.191
13.086,-0.697,0.705,0.188
13.096,-0.693,0.701,0.189
13.106,-0.693,0.699,0.189
13.116,-0.695,0.699,0.186
13.126,-0.693,0.699,0.191
13.136,-0.697,0.701,0.189
13.145,-0.697,0.703,0.188
13.155,-0.699,0.707,0.189
13.165,-0.699,0.707,0.189
13.175,-0.699,0.705,0.189
13.185,-0.699,0.703,0.188
13.195,-0.701,0.703,0.188
13.205,-0.699,0.701,0.184
13.215,-0.701,0.699,0.188
13.225,-0.703,0.699,0.186
13.235,-0.705,0.703,0.188
13.245,-0.707,0.699,0.188
13.255,-0.705,0.699,0.189
13.265,-0.707,0.701,0.186
13.274,-0.707,0.697,0.188
13.284,-0.705,0.699,0.189
13.294,-0.703,0.699,0.188
13.304,-0.703,0.701,0.184
13.314,-0.703,0.699,0.186
13.324,-0.703,0.701,0.186
13.334,-0.701,0.699,0.188
13.344,-0.701,0.701,0.186
13.354,-0.703,0.703,0.186
13.364,-0.697,0.705,0.186
13.374,-0.695,0.705,0.184
13.384,-0.695,0.709,0.186
13.394,-0.695,0.707,0.182
13.404,-0.695,0.707,0.188
13.413,-0.688,0.707,0.188
13.423,-0.691,0.707,0.186
13.433,-0.689,0.705,0.186
13.443,-0.691,0.705,0.186
13.453,-0.693,0.707,0.186
13.463,-0.693,0.707,0.186
13.473,-0.693,0.705,0.188
13.483,-0.693,0.707,0.186
13.493,-0.697,0.707,0.186
13.503,-0.699,0.707,0.186
13.513,-0.701,0.711,0.186
13.523,-0.697,0.709,0.188
13.533,-0.697,0.707,0.186
13.542,-0.695,0.703,0.186
13.552,-0.695,0.705,0.186
13.562,-0.697,0.703,0.188
13.572,-0.699,0.707,0.188
13.582,-0.697,0.707,0.189
13.592,-0.693,0.707,0.189
13.602,-0.695,0.709,0.191
13.612,-0.695,0.707,0.193
13.622,-0.695,0.707,0.189
13.632,-0.697,0.705,0.189
13.642,-0.695,0.707,0.191
13.652,-0.697,0.705,0.189
13.662,-0.699,0.705,0.191
13.671,-0.703,0.705,0.188
13.681,-0.701,0.705,0.189
13.691,-0.703,0.703,0.191
13.701,-0.697,0.701,0.191
13.711,-0.697,0.703,0.189
13.721,-0.693,0.699,0.189
13.731,-0.691,0.699,0.191
13.741,-0.695,0.699,0.189
13.751,-0.693,0.703,0.188
13.761,-0.691,0.703,0.193
13.771,-0.697,0.705,0.193
13.781,-0.695,0.707,0.191
13.791,-0.693,0.705,0.189
13.800,-0.693,0.703,0.193
13.810,-0.695,0.705,0.191
13.820,-0.693,0.703,0.193
13.830,-0.697,0.705,0.191
13.840,-0.697,0.705,0.188
13.850,-0.697,0.703,0.191
13.860,-0.695,0.707,0.189
13.870,-0.697,0.709,0.189
13.880,-0.691,0.707,0.193
13.890,-0.688,0.703,0.191
13.900,-0.691,0.703,0.189
13.910,-0.695,0.703,0.191
13.920,-0.695,0.705,0.186
13.930,-0.693,0.701,0.188
13.939,-0.697,0.701,0.189
13.949,-0.701,0.709,0.188
13.959,-0.697,0.707,0.189
13.969,-0.699,0.709,0.188
13.979,-0.699,0.705,0.184
13.989,-0.697,0.703,0.186
13.999,-0.699,0.705,0.188
14.009,-0.697,0.701,0.184
14.019,-0.699,0.709,0.184
14.029,-0.701,0.709,0.186
14.039,-0.699,0.707,0.186
14.049,-0.699,0.711,0.188
14.059,-0.695,0.707,0.184
14.068,-0.689,0.705,0.186
14.078,-0.688,0.709,0.182
14.088,-0.688,0.711,0.184
14.098,-0.688,0.707,0.184
14.108,-0.688,0.711,0.184
14.118,-0.691,0.713,0.186
14.128,-0.693,0.713,0.184
14.138,-0.693,0.711,0.186
14.148,-0.695,0.707,0.186
14.158,-0.691,0.705,0.184
14.168,-0.695,0.705,0.186
14.178,-0.693,0.705,0.184
14.188,-0.691,0.703,0.186
14.197,-0.691,0.705,0.182
14.207,-0.688,0.703,0.186
14.217,-0.689,0.707,0.186
14.227,-0.689,0.711,0.186
14.237,-0.691,0.709,0.188
14.247,-0.693,0.713,0.188
14.257,-0.697,0.711,0.188
14.267,-0.697,0.707,0.186
14.277,-0.699,0.707,0.186
14.287,-0.697,0.705,0.188
14.297,-0.697,0.705,0.184
14.307,-0.699,0.703,0.184
14.317,-0.701,0.701,0.188
14.326,-0.701,0.699,0.186
14.336,-0.701,0.703,0.184
14.346,-0.699,0.701,0.182
14.356,-0.701,0.703,0.188
14.366,-0.697,0.707,0.184
14.376,-0.695,0.701,0.184
14.386,-0.699,0.701,0.182
14.396,-0.695,0.705,0.182
14.406,-0.695,0.705,0.186
14.416,-0.695,0.711,0.184
14.426,-0.691,0.713,0.186
14.436,-0.697,0.711,0.184
14.446,-0.695,0.713,0.186
14.456,-0.695,0.709,0.184
14.465,-0.695,0.705,0.182
14.475,-0.697,0.707,0.184
14.485,-0.701,0.703,0.184
14.495,-0.705,0.707,0.186
14.505,-0.703,0.707,0.186
14.515,-0.703,0.707,0.186
14.525,-0.703,0.701,0.184
14.535,-0.703,0.701,0.184
14.545,-0.701,0.697,0.182
14.555,-0.701,0.699,0.184
14.565,-0.701,0.699,0.184
14.575,-0.695,0.701,0.188
14.585,-0.699,0.701,0.188
14.594,-0.699,0.701,0.188
14.604,-0.699,0.701,0.186
14.614,-0.699,0.707,0.191
14.624,-0.701,0.705,0.188
14.634,-0.699,0.705,0.191
14.644,-0.699,0.705,0.189
14.654,-0.697,0.705,0.189
14.664,-0.697,0.705,0.189
14.674,-0.699,0.703,0.188
14.684,-0.697,0.709,0.189
14.694,-0.695,0.703,0.188
14.704,-0.691,0.703,0.189
14.714,-0.691,0.705,0.188
14.723,-0.693,0.705,0.188
14.733,-0.689,0.701,0.188
14.743,-0.689,0.705,0.189
14.753,-0.691,0.703,0.184
14.763,-0.689,0.705,0.188
14.773,-0.689,0.705,0.186
14.783,-0.691,0.707,0.186
14.793,-0.693,0.709,0.189
14.803,-0.695,0.711,0.184
14.813,-0.697,0.709,0.188
14.823,-0.695,0.707,0.186
14.833,-0.695,0.707,0.184
14.843,-0.695,0.707,0.184
14.853,-0.695,0.707,0.186
14.862,-0.695,0.711,0.186
14.872,-0.695,0.707,0.184
14.882,-0.693,0.709,0.191
14.892,-0.695,0.711,0.186
14.902,-0.697,0.711,0.184
14.912,-0.695,0.709,0.184
14.922,-0.693,0.711,0.186
14.932,-0.697,0.707,0.184
14.942,-0.695,0.707,0.186
14.952,-0.699,0.711,0.188
14.962,-0.693,0.711,0.184
14.972,-0.693,0.707,0.189
14.982,-0.693,0.707,0.186
14.991,-0.693,0.707,0.184
15.001,-0.691,0.707,0.186
15.011,-0.691,0.707,0.188
15.021,-0.691,0.707,0.188
15.031,-0.689,0.707,0.186
15.041,-0.689,0.707,0.186
15.051,-0.689,0.709,0.186
15.061,-0.689,0.711,0.189
15.071,-0.695,0.707,0.188
15.081,-0.691,0.709,0.188
15.091,-0.693,0.707,0.184
15.101,-0.695,0.707,0.188
15.111,-0.697,0.703,0.186
15.120,-0.697,0.703,0.188
15.130,-0.699,0.701,0.184
15.140,-0.703,0.701,0.184
15.150,-0.699,0.703,0.186
15.160,-0.701,0.703,0.184
15.170,-0.701,0.701,0.188
15.180,-0.701,0.699,0.186
15.190,-0.701,0.697,0.186
15.200,-0.701,0.701,0.184
15.210,-0.701,0.701,0.184
15.220,-0.703,0.703,0.180
15.230,-0.701,0.707,0.184
15.240,-0.697,0.705,0.184
15.249,-0.695,0.707,0.184
15.259,-0.695,0.707,0.188
15.269,-0.695,0.705,0.186
15.279,-0.697,0.705,0.186
15.289,-0.695,0.703,0.188
15.299,-0.697,0.703,0.188
15.309,-0.701,0.699,0.188
15.319,-0.701,0.699,0.186
15.329,-0.701,0.705,0.186
15.339,-0.703,0.703,0.186
15.349,-0.701,0.701,0.188
15.359,-0.697,0.699,0.188
15.369,-0.699,0.699,0.186
15.379,-0.699,0.701,0.184
15.388,-0.701,0.701,0.184
15.398,-0.701,0.701,0.184
15.408,-0.697,0.703,0.188
15.418,-0.695,0.703,0.184
15.428,-0.695,0.705,0.186
15.438,-0.693,0.705,0.186
15.448,-0.691,0.705,0.182
15.458,-0.695,0.707,0.188
15.468,-0.693,0.705,0.188
15.478,-0.697,0.705,0.182
15.488,-0.697,0.707,0.184
15.498,-0.697,0.709,0.186
15.508,-0.699,0.709,0.182
15.517,-0.699,0.707,0.188
15.527,-0.695,0.713,0.188
15.537,-0.695,0.711,0.186
15.547,-0.693,0.709,0.188
15.557,-0.693,0.703,0.188
15.567,-0.691,0.705,0.186
15.577,-0.691,0.709,0.184
15.587,-0.689,0.707,0.188
15.597,-0.689,0.709,0.188
15.607,-0.688,0.711,0.184
15.617,-0.691,0.711,0.186
15.627,-0.691,0.709,0.182
15.637,-0.693,0.713,0.182
15.646,-0.695,0.711,0.188
15.656,-0.691,0.709,0.186
15.666,-0.689,0.709,0.186
15.676,-0.689,0.709,0.184
15.686,-0.689,0.709,0.182
15.696,-0.689,0.709,0.186
15.706,-0.691,0.709,0.188
15.716,-0.691,0.709,0.189
15.726,-0.691,0.707,0.188
15.736,-0.693,0.709,0.188
15.746,-0.695,0.707,0.184
15.756,-0.695,0.707,0.186
15.766,-0.695,0.707,0.186
15.776,-0.695,0.709,0.184
15.785,-0.695,0.709,0.182
15.795,-0.697,0.709,0.184
15.805,-0.699,0.709,0.186
15.815,-0.699,0.705,0.182
15.825,-0.697,0.703,0.186
15.835,-0.693,0.707,0.182
15.845,-0.697,0.705,0.184
15.855,-0.695,0.705,0.184
15.865,-0.695,0.707,0.184
15.875,-0.699,0.703,0.186
15.885,-0.697,0.703,0.184
15.895,-0.699,0.703,0.186
15.905,-0.697,0.703,0.186
15.914,-0.701,0.703,0.182
15.924,-0.701,0.701,0.186
15.934,-0.701,0.701,0.184
15.944,-0.705,0.703,0.184
15.954,-0.703,0.705,0.182
15.964,-0.701,0.705,0.184
15.974,-0.699,0.705,0.182
15.984,-0.699,0.707,0.186
15.994,-0.699,0.701,0.184
16.004,-0.697,0.701,0.184
16.014,-0.699,0.701,0.184
16.024,-0.699,0.705,0.188
16.034,-0.699,0.701,0.184
16.043,-0.699,0.699,0.182
16.053,-0.701,0.703,0.184
16.063,-0.701,0.705,0.186
16.073,-0.703,0.707,0.184
16.083,-0.703,0.703,0.186
16.093,-0.693,0.705,0.188
16.103,-0.695,0.707,0.188
16.113,-0.691,0.707,0.186
16.123,-0.689,0.705,0.193
16.133,-0.688,0.703,0.188
16.143,-0.686,0.701,0.186
16.153,-0.689,0.697,0.189
16.163,-0.693,0.701,0.189
16.172,-0.695,0.707,0.189
16.182,-0.699,0.707,0.184
16.192,-0.699,0.707,0.186
16.202,-0.701,0.707,0.184
16.212,-0.695,0.707,0.188
16.222,-0.697,0.707,0.184
16.232,-0.697,0.707,0.186
16.242,-0.693,0.703,0.186
16.252,-0.691,0.707,0.184
16.262,-0.688,0.705,0.186
16.272,-0.686,0.705,0.186
16.282,-0.688,0.707,0.186
16.292,-0.689,0.713,0.186
16.302,-0.688,0.711,0.184
16.311,-0.688,0.707,0.184
16.321,-0.695,0.711,0.188
16.331,-0.693,0.707,0.184
16.341,-0.699,0.709,0.182
16.351,-0.697,0.709,0.184
16.361,-0.701,0.709,0.188
16.371,-0.697,0.709,0.182
16.381,-0.699,0.705,0.186
16.391,-0.695,0.711,0.189
16.401,-0.693,0.707,0.191
16.411,-0.689,0.705,0.189
16.421,-0.689,0.705,0.189
16.431,-0.691,0.703,0.186
16.440,-0.691,0.705,0.188
16.450,-0.693,0.709,0.189
16.460,-0.693,0.709,0.189
16.470,-0.693,0.707,0.186
16.480,-0.693,0.709,0.186
16.490,-0.695,0.709,0.191
16.500,-0.693,0.707,0.189
16.510,-0.695,0.705,0.188
16.520,-0.693,0.705,0.188
16.530,-0.691,0.705,0.189
16.540,-0.689,0.707,0.189
16.550,-0.688,0.709,0.189
16.560,-0.688,0.711,0.191
16.569,-0.686,0.709,0.186
16.579,-0.686,0.709,0.191
16.589,-0.689,0.709,0.186
16.599,-0.688,0.707,0.188
16.609,-0.697,0.711,0.188
16.619,-0.693,0.709,0.186
16.629,-0.693,0.713,0.186
16.639,-0.693,0.709,0.186
16.649,-0.695,0.709,0.184
16.659,-0.689,0.709,0.188
16.669,-0.691,0.709,0.182
16.679,-0.689,0.711,0.189
16.689,-0.688,0.711,0.184
16.698,-0.689,0.707,0.188
16.708,-0.691,0.709,0.186
16.718,-0.689,0.707,0.184
16.728,-0.689,0.709,0.186
16.738,-0.688,0.709,0.186
16.748,-0.691,0.707,0.186
16.758,-0.689,0.709,0.188
16.768,-0.693,0.711,0.186
16.778,-0.693,0.705,0.188
16.788,-0.691,0.711,0.186
16.798,-0.693,0.707,0.186
16.808,-0.695,0.705,0.186
16.818,-0.695,0.703,0.186
16.828,-0.693,0.705,0.186
16.837,-0.693,0.705,0.186
16.847,-0.693,0.709,0.186
16.857,-0.695,0.709,0.186
16.867,-0.693,0.707,0.188
16.877,-0.695,0.711,0.184
16.887,-0.693,0.705,0.182
16.897,-0.695,0.705,0.182
16.907,-0.693,0.703,0.186
16.917,-0.693,0.703,0.188
16.927,-0.691,0.711,0.186
16.937,-0.693,0.713,0.186
16.947,-0.691,0.709,0.184
16.957,-0.693,0.713,0.182
16.966,-0.689,0.709,0.186
16.976,-0.691,0.711,0.186
16.986,-0.691,0.707,0.186
16.996,-0.689,0.709,0.189
17.006,-0.693,0.707,0.186
17.016,-0.693,0.709,0.188
17.026,-0.693,0.709,0.184
17.036,-0.695,0.713,0.186
17.046,-0.693,0.705,0.188
17.056,-0.695,0.707,0.186
17.066,-0.695,0.707,0.182
17.076,-0.693,0.705,0.184
17.086,-0.695,0.703,0.186
17.095,-0.697,0.707,0.182
17.105,-0.693,0.709,0.186
17.115,-0.693,0.707,0.184
17.125,-0.691,0.711,0.184
17.135,-0.693,0.711,0.188
17.145,-0.693,0.713,0.186
17.155,-0.695,0.711,0.182
17.165,-0.695,0.713,0.186
17.175,-0.693,0.713,0.184
17.185,-0.689,0.709,0.184
17.195,-0.691,0.709,0.186
17.205,-0.691,0.711,0.184
17.215,-0.691,0.709,0.184
17.225,-0.691,0.711,0.189
17.234,-0.689,0.713,0.184
17.244,-0.688,0.709,0.188
17.254,-0.684,0.707,0.188
17.264,-0.686,0.705,0.188
17.274,-0.686,0.709,0.186
17.284,-0.689,0.709,0.189
17.294,-0.689,0.709,0.188
17.304,-0.689,0.707,0.184
17.314,-0.689,0.713,0.189
17.324,-0.689,0.711,0.186
17.334,-0.693,0.705,0.184
17.344,-0.695,0.709,0.182
17.354,-0.695,0.705,0.184
17.363,-0.693,0.705,0.188
17.373,-0.695,0.705,0.184
17.383,-0.693,0.707,0.184
17.393,-0.695,0.707,0.189
17.403,-0.693,0.711,0.189
17.413,-0.695,0.709,0.189
17.423,-0.695,0.707,0.186
17.433,-0.693,0.705,0.188
17.443,-0.697,0.709,0.184
17.453,-0.697,0.709,0.184
17.463,-0.693,0.707,0.184
17.473,-0.693,0.707,0.182
17.483,-0.693,0.709,0.186
17.492,-0.691,0.711,0.182
17.502,-0.688,0.713,0.186
17.512,-0.689,0.715,0.186
17.522,-0.688,0.711,0.184
17.532,-0.688,0.715,0.182
17.542,-0.689,0.711,0.186
17.552,-0.691,0.709,0.184
17.562,-0.689,0.711,0.182
17.572,-0.693,0.709,0.188
17.582,-0.693,0.705,0.184
17.592,-0.689,0.709,0.184
17.602,-0.693,0.707,0.186
17.612,-0.691,0.709,0.186
17.621,-0.691,0.709,0.189
17.631,-0.693,0.705,0.189
17.641,-0.689,0.707,0.188
17.651,-0.695,0.707,0.184
17.661,-0.697,0.705,0.188
17.671,-0.697,0.705,0.186
17.681,-0.699,0.703,0.184
17.691,-0.697,0.701,0.188
17.701,-0.699,0.703,0.186
17.711,-0.699,0.703,0.186
17.721,-0.697,0.703,0.186
17.731,-0.697,0.705,0.186
17.741,-0.693,0.707,0.188
17.751,-0.695,0.713,0.188
17.760,-0.691,0.715,0.189
17.770,-0.695,0.711,0.186
17.780,-0.691,0.711,0.191
17.790,-0.693,0.709,0.186
17.800,-0.691,0.705,0.188
17.810,-0.693,0.705,0.186
17.820,-0.693,0.701,0.184
17.830,-0.695,0.705,0.188
17.840,-0.697,0.709,0.188
17.850,-0.697,0.707,0.188
17.860,-0.693,0.707,0.186
17.870,-0.699,0.705,0.186
17.880,-0.697,0.703,0.186
17.889,-0.699,0.707,0.186
17.899,-0.695,0.703,0.184
17.909,-0.691,0.699,0.186
17.919,-0.693,0.703,0.184
17.929,-0.695,0.701,0.188
17.939,-0.693,0.707,0.186
17.949,-0.695,0.709,0.186
17.959,-0.693,0.707,0.188
17.969,-0.695,0.705,0.186
17.979,-0.695,0.707,0.186
17.989,-0.693,0.705,0.186
17.999,-0.699,0.709,0.188
18.009,-0.695,0.709,0.184
18.018,-0.699,0.707,0.186
18.028,-0.697,0.707,0.186
18.038,-0.693,0.707,0.188
18.048,-0.695,0.709,0.186
18.058,-0.693,0.709,0.188
18.068,-0.691,0.707,0.186
18.078,-0.689,0.705,0.188
18.088,-0.691,0.707,0.188
18.098,-0.691,0.707,0.188
18.108,-0.691,0.707,0.186
18.118,-0.691,0.707,0.188
18.128,-0.689,0.711,0.191
18.138,-0.691,0.709,0.189
18.147,-0.693,0.713,0.191
18.157,-0.691,0.711,0.189
18.167,-0.693,0.709,0.186
18.177,-0.691,0.707,0.191
18.187,-0.693,0.705,0.189
18.197,-0.689,0.709,0.189
18.207,-0.688,0.709,0.189
18.217,-0.688,0.711,0.189
18.227,-0.688,0.709,0.189
18.237,-0.693,0.707,0.188
18.247,-0.689,0.707,0.191
18.257,-0.693,0.709,0.191
18.267,-0.691,0.711,0.186
18.277,-0.693,0.711,0.191
18.286,-0.695,0.707,0.191
18.296,-0.695,0.709,0.189
18.306,-0.693,0.709,0.189
18.316,-0.695,0.709,0.191
18.326,-0.693,0.711,0.189
18.336,-0.691,0.707,0.188
18.346,-0.689,0.709,0.191
18.356,-0.691,0.707,0.191
18.366,-0.689,0.709,0.191
18.376,-0.691,0.707,0.188
18.386,-0.689,0.709,0.189
18.396,-0.691,0.707,0.189
18.406,-0.688,0.711,0.188
18.415,-0.693,0.709,0.191
18.425,-0.691,0.711,0.188
18.435,-0.691,0.705,0.189
18.445,-0.693,0.705,0.189
18.455,-0.693,0.707,0.191
18.465,-0.697,0.705,0.189
18.475,-0.695,0.705,0.191
18.485,-0.697,0.707,0.189
18.495,-0.695,0.703,0.188
18.505,-0.695,0.703,0.189
18.515,-0.695,0.703,0.193
18.525,-0.695,0.705,0.191
18.535,-0.693,0.705,0.189
18.544,-0.695,0.707,0.186
18.554,-0.697,0.707,0.189
18.564,-0.699,0.705,0.188
18.574,-0.699,0.705,0.188
18.584,-0.699,0.701,0.188
18.594,-0.693,0.705,0.189
18.604,-0.695,0.709,0.193
18.614,-0.693,0.707,0.188
18.624,-0.693,0.707,0.189
18.634,-0.691,0.711,0.189
18.644,-0.689,0.707,0.191
18.654,-0.691,0.705,0.193
18.664,-0.695,0.703,0.191
18.674,-0.693,0.705,0.191
18.683,-0.693,0.707,0.191
18.693,-0.695,0.707,0.191
18.703,-0.695,0.709,0.189
18.713,-0.693,0.709,0.189
18.723,-0.693,0.711,0.191
18.733,-0.695,0.707,0.191
18.743,-0.695,0.705,0.188
18.753,-0.689,0.703,0.191
18.763,-0.689,0.703,0.191
18.773,-0.689,0.705,0.188
18.783,-0.693,0.707,0.189
18.793,-0.691,0.703,0.186
18.803,-0.691,0.707,0.188
18.812,-0.693,0.707,0.188
18.822,-0.695,0.705,0.188
18.832,-0.693,0.707,0.188
18.842,-0.691,0.711,0.191
18.852,-0.695,0.705,0.189
18.862,-0.695,0.705,0.186
18.872,-0.695,0.709,0.188
18.882,-0.697,0.709,0.186
18.892,-0.695,0.705,0.188
18.902,-0.691,0.713,0.188
18.912,-0.693,0.707,0.193
18.922,-0.691,0.707,0.189
18.932,-0.689,0.709,0.193
18.941,-0.695,0.707,0.188
18.951,-0.691,0.711,0.189
18.961,-0.689,0.707,0.191
18.971,-0.693,0.707,0.188
18.981,-0.693,0.713,0.188
18.991,-0.693,0.713,0.186
19.001,-0.691,0.711,0.189
19.011,-0.693,0.709,0.189
19.021,-0.691,0.709,0.186
19.031,-0.693,0.709,0.189
19.041,-0.689,0.711,0.189
19.051,-0.689,0.707,0.188
19.061,-0.689,0.711,0.188
19.070,-0.689,0.707,0.189
19.080,-0.689,0.709,0.189
19.090,-0.693,0.709,0.189
19.100,-0.693,0.707,0.186
19.110,-0.693,0.707,0.189
19.120,-0.693,0.703,0.188
19.130,-0.693,0.707,0.188
19.140,-0.697,0.707,0.184
19.150,-0.695,0.705,0.188
19.160,-0.691,0.705,0.188
19.170,-0.691,0.707,0.188
19.180,-0.693,0.705,0.186
19.190,-0.691,0.709,0.188
19.200,-0.691,0.707,0.188
19.209,-0.693,0.709,0.186
19.219,-0.693,0.707,0.186
19.229,-0.695,0.709,0.188
19.239,-0.695,0.703,0.188
19.249,-0.699,0.705,0.188
19.259,-0.697,0.703,0.184
19.269,-0.699,0.703,0.186
19.279,-0.699,0.705,0.188
19.289,-0.693,0.703,0.189
19.299,-0.697,0.703,0.188
19.309,-0.697,0.707,0.186
19.319,-0.697,0.705,0.184
19.329,-0.699,0.705,0.186
19.338,-0.697,0.707,0.186
19.348,-0.697,0.707,0.189
19.358,-0.695,0.709,0.191
19.368,-0.699,0.709,0.186
19.378,-0.693,0.711,0.184
19.388,-0.693,0.709,0.189
19.398,-0.691,0.709,0.188
19.408,-0.691,0.705,0.186
19.418,-0.691,0.703,0.184
19.428,-0.688,0.705,0.186
19.438,-0.686,0.709,0.186
19.448,-0.689,0.711,0.188
19.458,-0.688,0.711,0.186
19.467,-0.688,0.711,0.186
19.477,-0.691,0.715,0.186
19.487,-0.691,0.713,0.189
19.497,-0.697,0.711,0.186
19.507,-0.693,0.711,0.184
19.517,-0.691,0.711,0.188
19.527,-0.695,0.711,0.188
19.537,-0.699,0.707,0.188
19.547,-0.701,0.709,0.188
19.557,-0.705,0.703,0.189
19.567,-0.699,0.699,0.188
19.577,-0.697,0.697,0.191
19.587,-0.699,0.697,0.189
19.596,-0.693,0.701,0.186
19.606,-0.695,0.697,0.193
19.616,-0.693,0.699,0.189
19.626,-0.691,0.703,0.193
19.636,-0.688,0.707,0.189
19.646,-0.695,0.707,0.188
19.656,-0.693,0.709,0.188
19.666,-0.695,0.707,0.188
19.676,-0.693,0.709,0.186
19.686,-0.695,0.713,0.188
19.696,-0.695,0.715,0.188
19.706,-0.693,0.709,0.184
19.716,-0.695,0.713,0.188
19.726,-0.693,0.713,0.188
19.735,-0.691,0.707,0.189
19.745,-0.691,0.711,0.191
19.755,-0.686,0.713,0.188
19.765,-0.684,0.711,0.191
19.775,-0.684,0.705,0.188
19.785,-0.684,0.707,0.184
19.795,-0.688,0.707,0.186
19.805,-0.691,0.707,0.188
19.815,-0.691,0.707,0.189
19.825,-0.695,0.705,0.188
19.835,-0.697,0.707,0.191
19.845,-0.697,0.705,0.191
19.855,-0.695,0.709,0.188
19.864,-0.695,0.705,0.188
19.874,-0.693,0.707,0.188
19.884,-0.689,0.711,0.186
19.894,-0.691,0.711,0.189
19.904,-0.689,0.711,0.188
19.914,-0.691,0.709,0.186
19.924,-0.691,0.707,0.188
19.934,-0.693,0.707,0.186
19.944,-0.697,0.705,0.186
19.954,-0.697,0.707,0.186
19.964,-0.695,0.707,0.188
19.974,-0.699,0.705,0.182
19.984,-0.697,0.709,0.186
19.993,-0.695,0.709,0.184
20.003,-0.697,0.705,0.184
20.013,-0.697,0.705,0.184
20.023,-0.697,0.705,0.188
20.033,-0.693,0.707,0.186
20.043,-0.693,0.709,0.188
20.053,-0.691,0.707,0.184
20.063,-0.689,0.709,0.189
20.073,-0.691,0.705,0.188
20.083,-0.691,0.709,0.188
20.093,-0.691,0.709,0.188
20.103,-0.691,0.707,0.184
20.113,-0.691,0.707,0.186
20.123,-0.697,0.709,0.184
20.132,-0.693,0.707,0.184
20.142,-0.695,0.707,0.186
20.152,-0.699,0.709,0.186
20.162,-0.699,0.707,0.186
20.172,-0.699,0.707,0.188
20.182,-0.699,0.705,0.188
20.192,-0.697,0.705,0.191
20.202,-0.693,0.705,0.188
20.212,-0.693,0.707,0.188
20.222,-0.691,0.703,0.189
20.232,-0.693,0.703,0.186
20.242,-0.693,0.709,0.189
20.252,-0.695,0.711,0.191
20.261,-0.695,0.711,0.188
20.271,-0.691,0.707,0.189
20.281,-0.695,0.711,0.191
20.291,-0.691,0.711,0.189
20.301,-0.689,0.709,0.189
20.311,-0.688,0.707,0.189
20.321,-0.689,0.707,0.188
20.331,-0.689,0.707,0.188
20.341,-0.689,0.709,0.189
20.351,-0.689,0.709,0.188
20.361,-0.689,0.713,0.186
20.371,-0.691,0.711,0.186
20.381,-0.691,0.711,0.188
20.390,-0.691,0.705,0.189
20.400,-0.693,0.707,0.188
20.410,-0.693,0.705,0.186
20.420,-0.691,0.703,0.186
20.430,-0.693,0.709,0.188
20.440,-0.691,0.707,0.189
20.450,-0.691,0.709,0.188
20.460,-0.691,0.711,0.188
20.470,-0.693,0.709,0.186
20.480,-0.693,0.711,0.188
20.490,-0.693,0.711,0.188
20.500,-0.693,0.711,0.188
20.510,-0.693,0.709,0.186
20.519,-0.699,0.707,0.191
20.529,-0.693,0.709,0.188
20.539,-0.699,0.709,0.186
20.549,-0.695,0.709,0.184
20.559,-0.695,0.715,0.189
20.569,-0.693,0.713,0.189
20.579,-0.691,0.711,0.189
20.589,-0.689,0.707,0.191
20.599,-0.691,0.705,0.189
20.609,-0.691,0.705,0.188
20.619,-0.691,0.707,0.193
20.629,-0.689,0.709,0.188
20.639,-0.691,0.711,0.191
20.649,-0.691,0.713,0.188
20.658,-0.693,0.713,0.188
20.668,-0.691,0.711,0.191
20.678,-0.691,0.709,0.188
20.688,-0.691,0.709,0.188
20.698,-0.691,0.713,0.189
20.708,-0.693,0.707,0.189
20.718,-0.688,0.707,0.195
20.728,-0.684,0.709,0.191
20.738,-0.684,0.709,0.191
20.748,-0.688,0.709,0.189
20.758,-0.688,0.707,0.189
20.768,-0.688,0.705,0.191
20.778,-0.689,0.707,0.191
20.787,-0.691,0.707,0.188
20.797,-0.693,0.709,0.189
20.807,-0.695,0.713,0.188
20.817,-0.697,0.709,0.188
20.827,-0.693,0.711,0.189
20.837,-0.691,0.709,0.189
20.847,-0.691,0.709,0.189
20.857,-0.693,0.707,0.186
20.867,-0.691,0.709,0.189
20.877,-0.688,0.709,0.189
20.887,-0.688,0.707,0.189
20.897,-0.689,0.711,0.189
20.907,-0.689,0.711,0.191
20.916,-0.689,0.709,0.189
20.926,-0.691,0.711,0.189
20.936,-0.691,0.707,0.191
20.946,-0.691,0.709,0.189
20.956,-0.695,0.709,0.191
20.966,-0.695,0.707,0.188
20.976,-0.693,0.705,0.189
20.986,-0.695,0.705,0.191
20.996,-0.695,0.707,0.191
21.006,-0.693,0.705,0.191
21.016,-0.689,0.705,0.191
21.026,-0.691,0.705,0.195
21.036,-0.695,0.703,0.191
21.045,-0.695,0.705,0.191
21.055,-0.693,0.709,0.197
21.065,-0.691,0.709,0.195
21.075,-0.689,0.709,0.191
21.085,-0.689,0.707,0.191
21.095,-0.693,0.707,0.193
21.105,-0.693,0.707,0.193
21.115,-0.693,0.705,0.193
21.125,-0.693,0.709,0.193
21.135,-0.691,0.711,0.189
21.145,-0.691,0.709,0.191
21.155,-0.688,0.711,0.195
21.165,-0.686,0.711,0.193
21.175,-0.688,0.711,0.193
21.184,-0.689,0.709,0.193
21.194,-0.689,0.709,0.191
21.204,-0.691,0.709,0.191
21.214,-0.691,0.713,0.189
21.224,-0.695,0.711,0.193
21.234,-0.697,0.711,0.191
21.244,-0.699,0.709,0.191
21.254,-0.695,0.709,0.191
21.264,-0.695,0.705,0.191
21.274,-0.695,0.707,0.188
21.284,-0.691,0.703,0.189
21.294,-0.688,0.705,0.191
21.304,-0.689,0.709,0.191
21.313,-0.688,0.709,0.188
21.323,-0.691,0.713,0.189
21.333,-0.691,0.709,0.191
21.343,-0.693,0.709,0.191
21.353,-0.693,0.709,0.188
21.363,-0.691,0.709,0.193
21.373,-0.695,0.709,0.191
21.383,-0.695,0.709,0.191
21.393,-0.697,0.707,0.188
21.403,-0.695,0.709,0.189
21.413,-0.697,0.709,0.191
21.423,-0.699,0.705,0.189
21.433,-0.695,0.709,0.193
21.442,-0.691,0.715,0.189
21.452,-0.691,0.707,0.193
21.462,-0.684,0.705,0.191
21.472,-0.689,0.707,0.189
21.482,-0.688,0.709,0.195
21.492,-0.689,0.707,0.193
21.502,-0.691,0.711,0.189
21.512,-0.689,0.711,0.191
21.522,-0.691,0.711,0.189
21.532,-0.693,0.709,0.191
21.542,-0.695,0.711,0.191
21.552,-0.695,0.711,0.188
21.562,-0.689,0.707,0.189
21.572,-0.689,0.709,0.191
21.581,-0.689,0.707,0.191
21.591,-0.686,0.709,0.189
21.601,-0.684,0.709,0.191
21.611,-0.686,0.709,0.189
21.621,-0.684,0.711,0.193
21.631,-0.686,0.709,0.191
21.641,-0.688,0.711,0.189
21.651,-0.689,0.709,0.191
21.661,-0.691,0.709,0.191
21.671,-0.693,0.709,0.191
21.681,-0.697,0.711,0.189
21.691,-0.693,0.709,0.188
21.701,-0.697,0.709,0.189
21.710,-0.695,0.713,0.189
21.720,-0.691,0.711,0.188
21.730,-0.691,0.709,0.188
21.740,-0.691,0.709,0.193
21.750,-0.689,0.713,0.188
21.760,-0.689,0.711,0.189
21.770,-0.688,0.711,0.191
21.780,-0.688,0.711,0.188
21.790,-0.688,0.711,0.191
21.800,-0.688,0.709,0.189
21.810,-0.691,0.709,0.188
21.820,-0.691,0.709,0.195
21.830,-0.691,0.705,0.193
21.839,-0.693,0.709,0.189
21.849,-0.691,0.709,0.191
21.859,-0.693,0.707,0.191
21.869,-0.693,0.709,0.191
21.879,-0.689,0.709,0.191
21.889,-0.689,0.707,0.193
21.899,-0.691,0.707,0.191
21.909,-0.693,0.705,0.191
21.919,-0.691,0.705,0.191
21.929,-0.693,0.707,0.191
21.939,-0.691,0.707,0.191
21.949,-0.695,0.705,0.191
21.959,-0.695,0.707,0.189
21.968,-0.697,0.709,0.189
21.978,-0.693,0.709,0.189
21.988,-0.689,0.705,0.186
21.998,-0.693,0.707,0.189
22.008,-0.691,0.711,0.189
22.018,-0.688,0.713,0.189
22.028,-0.686,0.717,0.191
22.038,-0.689,0.709,0.191
22.048,-0.688,0.713,0.191
22.058,-0.688,0.713,0.193
22.068,-0.689,0.711,0.191
22.078,-0.689,0.709,0.189
22.088,-0.693,0.709,0.191
22.098,-0.691,0.707,0.193
22.107,-0.695,0.711,0.191
22.117,-0.697,0.709,0.191
22.127,-0.699,0.707,0.189
22.137,-0.697,0.707,0.188
22.147,-0.699,0.705,0.193
22.157,-0.695,0.709,0.191
22.167,-0.691,0.709,0.193
22.177,-0.697,0.703,0.191
22.187,-0.693,0.705,0.189
22.197,-0.686,0.711,0.193
22.207,-0.689,0.709,0.191
22.217,-0.693,0.709,0.189
22.227,-0.689,0.713,0.191
22.236,-0.695,0.709,0.189
22.246,-0.697,0.707,0.191
22.256,-0.699,0.707,0.189
22.266,-0.699,0.713,0.191
22.276,-0.699,0.705,0.191
22.286,-0.693,0.707,0.193
22.296,-0.691,0.709,0.191
22.306,-0.693,0.705,0.193
22.316,-0.691,0.705,0.191
22.326,-0.691,0.711,0.193
22.336,-0.688,0.713,0.193
22.346,-0.686,0.711,0.193
22.356,-0.684,0.705,0.193
22.365,-0.686,0.707,0.189
22.375,-0.684,0.707,0.193
22.385,-0.688,0.709,0.197
22.395,-0.689,0.709,0.191
22.405,-0.689,0.709,0.193
22.415,-0.693,0.711,0.191
22.425,-0.691,0.713,0.189
22.435,-0.691,0.715,0.191
22.445,-0.693,0.713,0.191
22.455,-0.691,0.713,0.191
22.465,-0.688,0.713,0.191
22.475,-0.689,0.709,0.191
22.485,-0.688,0.711,0.193
22.494,-0.686,0.711,0.193
22.504,-0.686,0.711,0.191
22.514,-0.686,0.709,0.193
22.524,-0.684,0.711,0.195
22.534,-0.686,0.711,0.195
22.544,-0.688,0.709,0.189
22.554,-0.689,0.711,0.189
22.564,-0.686,0.709,0.195
22.574,-0.689,0.713,0.191
22.584,-0.688,0.715,0.189
22.594,-0.689,0.711,0.191
22.604,-0.689,0.713,0.189
22.614,-0.688,0.715,0.191
22.624,-0.689,0.715,0.193
22.633,-0.686,0.713,0.191
22.643,-0.682,0.713,0.193
22.653,-0.686,0.713,0.193
22.663,-0.682,0.713,0.193
22.673,-0.688,0.713,0.193
22.683,-0.686,0.713,0.191
22.693,-0.688,0.713,0.193
22.703,-0.686,0.713,0.193
22.713,-0.686,0.713,0.193
22.723,-0.688,0.717,0.195
22.733,-0.689,0.711,0.191
22.743,-0.693,0.711,0.195
22.753,-0.691,0.709,0.195
22.762,-0.691,0.707,0.189
22.772,-0.691,0.707,0.195
22.782,-0.693,0.705,0.191
22.792,-0.691,0.707,0.195
22.802,-0.689,0.705,0.193
22.812,-0.691,0.707,0.195
22.822,-0.689,0.709,0.193
22.832,-0.689,0.709,0.193
22.842,-0.688,0.709,0.195
22.852,-0.688,0.711,0.193
22.862,-0.691,0.711,0.191
22.872,-0.691,0.711,0.191
22.882,-0.691,0.713,0.191
22.891,-0.691,0.711,0.189
22.901,-0.693,0.711,0.193
22.911,-0.691,0.713,0.189
22.921,-0.693,0.711,0.191
22.931,-0.691,0.709,0.191
22.941,-0.688,0.713,0.189
22.951,-0.688,0.713,0.191
22.961,-0.686,0.713,0.189
22.971,-0.686,0.711,0.189
22.981,-0.686,0.715,0.191
22.991,-0.688,0.709,0.191
23.001,-0.688,0.709,0.191
23.011,-0.691,0.707,0.191
23.021,-0.693,0.713,0.189
23.030,-0.693,0.709,0.188
23.040,-0.697,0.709,0.188
23.050,-0.699,0.713,0.189
23.060,-0.695,0.711,0.186
23.070,-0.691,0.711,0.188
23.080,-0.691,0.713,0.188
23.090,-0.689,0.709,0.189
23.100,-0.686,0.709,0.188
23.110,-0.684,0.709,0.189
23.120,-0.686,0.711,0.189
23.130,-0.686,0.711,0.191
23.140,-0.688,0.711,0.189
23.150,-0.688,0.709,0.189
23.159,-0.691,0.709,0.193
23.169,-0.695,0.711,0.193
23.179,-0.695,0.709,0.193
23.189,-0.693,0.709,0.191
23.199,-0.695,0.705,0.191
23.209,-0.695,0.703,0.191
23.219,-0.695,0.709,0.195
23.229,-0.693,0.709,0.195
23.239,-0.691,0.707,0.189
23.249,-0.691,0.709,0.191
23.259,-0.688,0.713,0.193
23.269,-0.691,0.709,0.193
23.279,-0.686,0.713,0.193
23.288,-0.684,0.707,0.193
23.298,-0.686,0.707,0.191
23.308,-0.688,0.709,0.191
23.318,-0.688,0.711,0.191
23.328,-0.689,0.715,0.195
23.338,-0.689,0.715,0.193
23.348,-0.693,0.717,0.191
23.358,-0.691,0.715,0.191
23.368,-0.688,0.713,0.193
23.378,-0.686,0.711,0.193
23.388,-0.689,0.711,0.191
23.398,-0.686,0.709,0.193
23.408,-0.689,0.709,0.195
23.417,-0.686,0.711,0.193
23.427,-0.686,0.713,0.195
23.437,-0.686,0.711,0.193
23.447,-0.686,0.711,0.193
23.457,-0.688,0.709,0.193
23.467,-0.689,0.709,0.193
23.477,-0.688,0.709,0.191
23.487,-0.691,0.713,0.193
23.497,-0.689,0.713,0.191
23.507,-0.689,0.713,0.191
23.517,-0.686,0.717,0.189
23.527,-0.688,0.711,0.197
23.537,-0.686,0.711,0.193
23.547,-0.686,0.715,0.193
23.556,-0.682,0.713,0.189
23.566,-0.686,0.711,0.189
23.576,-0.686,0.713,0.191
23.586,-0.688,0.711,0.193
23.596,-0.688,0.711,0.193
23.606,-0.688,0.713,0.195
23.616,-0.689,0.713,0.193
23.626,-0.688,0.709,0.195
23.636,-0.688,0.707,0.195
23.646,-0.689,0.711,0.195
23.656,-0.689,0.705,0.195
23.666,-0.691,0.709,0.195
23.676,-0.688,0.709,0.195
23.685,-0.691,0.707,0.195
23.695,-0.691,0.707,0.197
23.705,-0.695,0.709,0.193
23.715,-0.693,0.707,0.193
23.725,-0.693,0.709,0.193
23.735,-0.695,0.709,0.191
23.745,-0.695,0.707,0.193
23.755,-0.695,0.709,0.193
23.765,-0.697,0.707,0.189
23.775,-0.695,0.705,0.191
23.785,-0.691,0.707,0.193
23.795,-0.689,0.709,0.195
23.805,-0.693,0.713,0.193
23.814,-0.689,0.715,0.193
23.824,-0.684,0.711,0.189
23.834,-0.686,0.713,0.193
23.844,-0.686,0.715,0.193
23.854,-0.686,0.711,0.193
23.864,-0.689,0.711,0.193
23.874,-0.688,0.707,0.195
23.884,-0.689,0.709,0.189
23.894,-0.691,0.711,0.193
23.904,-0.695,0.711,0.191
23.914,-0.689,0.711,0.193
23.924,-0.691,0.713,0.189
23.934,-0.689,0.711,0.193
23.943,-0.689,0.707,0.193
23.953,-0.691,0.711,0.193
23.963,-0.689,0.707,0.189
23.973,-0.688,0.707,0.189
23.983,-0.686,0.709,0.191
23.993,-0.688,0.713,0.193
24.003,-0.689,0.713,0.191
24.013,-0.686,0.713,0.191
24.023,-0.691,0.715,0.191
24.033,-0.689,0.711,0.191
24.043,-0.686,0.715,0.193
24.053,-0.688,0.713,0.193
24.063,-0.689,0.713,0.189
24.073,-0.688,0.713,0.193
24.082,-0.691,0.711,0.193
24.092,-0.688,0.711,0.191
24.102,-0.688,0.709,0.195
24.112,-0.686,0.711,0.195
24.122,-0.684,0.715,0.195
24.132,-0.688,0.707,0.195
24.142,-0.689,0.709,0.193
24.152,-0.684,0.709,0.191
24.162,-0.686,0.711,0.197
24.172,-0.689,0.715,0.195
24.182,-0.689,0.715,0.195
24.192,-0.688,0.711,0.193
24.202,-0.686,0.713,0.193
24.211,-0.689,0.715,0.193
24.221,-0.688,0.713,0.195
24.231,-0.688,0.713,0.193
24.241,-0.688,0.711,0.197
24.251,-0.684,0.709,0.193
24.261,-0.686,0.713,0.199
24.271,-0.688,0.711,0.191
24.281,-0.688,0.711,0.191
24.291,-0.686,0.713,0.199
24.301,-0.688,0.711,0.191
24.311,-0.691,0.711,0.193
24.321,-0.693,0.707,0.195
24.331,-0.689,0.705,0.195
24.340,-0.691,0.709,0.199
24.350,-0.693,0.709,0.195
24.360,-0.695,0.707,0.197
24.370,-0.693,0.711,0.195
24.380,-0.691,0.709,0.193
24.390,-0.691,0.709,0.195
24.400,-0.691,0.709,0.195
24.410,-0.691,0.709,0.195
24.420,-0.689,0.709,0.193
24.430,-0.689,0.709,0.195
24.440,-0.691,0.709,0.195
24.450,-0.689,0.709,0.193
24.460,-0.689,0.711,0.195
24.470,-0.689,0.711,0.195
24.479,-0.689,0.709,0.193
24.489,-0.689,0.709,0.193
24.499,-0.691,0.711,0.197
24.509,-0.691,0.709,0.195
24.519,-0.693,0.709,0.197
24.529,-0.689,0.705,0.195
24.539,-0.693,0.705,0.197
24.549,-0.695,0.707,0.195
24.559,-0.693,0.703,0.197
24.569,-0.693,0.705,0.193
24.579,-0.695,0.703,0.197
24.589,-0.695,0.705,0.197
24.599,-0.695,0.705,0.199
24.608,-0.695,0.707,0.197
24.618,-0.693,0.709,0.193
24.628,-0.693,0.705,0.195
24.638,-0.695,0.709,0.195
24.648,-0.689,0.707,0.195
24.658,-0.689,0.709,0.197
24.668,-0.688,0.715,0.195
24.678,-0.688,0.709,0.193
24.688,-0.686,0.713,0.195
24.698,-0.686,0.713,0.199
24.708,-0.686,0.711,0.197
24.718,-0.684,0.707,0.195
24.728,-0.686,0.711,0.197
24.737,-0.691,0.713,0.197
24.747,-0.691,0.709,0.195
24.757,-0.691,0.709,0.199
24.767,-0.689,0.711,0.193
24.777,-0.691,0.707,0.193
24.787,-0.691,0.707,0.193
24.797,-0.691,0.705,0.193
24.807,-0.689,0.707,0.195
24.817,-0.691,0.705,0.193
24.827,-0.689,0.707,0.193
24.837,-0.691,0.707,0.189
24.847,-0.689,0.711,0.193
24.857,-0.691,0.709,0.193
24.866,-0.695,0.713,0.193
24.876,-0.695,0.705,0.193
24.886,-0.695,0.709,0.191
24.896,-0.697,0.709,0.193
24.906,-0.697,0.709,0.189
24.916,-0.697,0.707,0.195
24.926,-0.695,0.711,0.193
24.936,-0.695,0.709,0.193
24.946,-0.695,0.707,0.191
24.956,-0.689,0.707,0.193
24.966,-0.689,0.711,0.195
24.976,-0.688,0.711,0.197
24.986,-0.688,0.707,0.195
24.996,-0.682,0.705,0.195
25.005,-0.686,0.709,0.195
25.015,-0.686,0.705,0.193
25.025,-0.688,0.707,0.197
25.035,-0.688,0.713,0.195
25.045,-0.688,0.717,0.193
25.055,-0.689,0.715,0.189
25.065,-0.689,0.707,0.189
25.075,-0.689,0.709,0.191
25.085,-0.691,0.717,0.189
25.095,-0.693,0.715,0.193
25.105,-0.691,0.715,0.189
25.115,-0.686,0.717,0.188
25.125,-0.682,0.717,0.193
25.134,-0.682,0.715,0.197
25.144,-0.680,0.713,0.193
25.154,-0.678,0.713,0.195
25.164,-0.678,0.709,0.199
25.174,-0.688,0.709,0.199
25.184,-0.688,0.707,0.195
25.194,-0.693,0.709,0.197
25.204,-0.695,0.709,0.195
25.214,-0.693,0.709,0.195
25.224,-0.695,0.705,0.195
25.234,-0.693,0.707,0.193
25.244,-0.693,0.709,0.193
25.254,-0.688,0.711,0.195
25.263,-0.688,0.715,0.197
25.273,-0.686,0.713,0.195
25.283,-0.684,0.713,0.193
25.293,-0.682,0.717,0.197
25.303,-0.682,0.715,0.195
25.313,-0.682,0.713,0.193
25.323,-0.686,0.713,0.195
25.333,-0.686,0.713,0.195
25.343,-0.688,0.713,0.195
25.353,-0.688,0.715,0.197
25.363,-0.688,0.713,0.197
25.373,-0.689,0.713,0.193
25.383,-0.688,0.709,0.193
25.392,-0.689,0.711,0.195
25.402,-0.689,0.715,0.197
25.412,-0.686,0.709,0.197
25.422,-0.688,0.709,0.199
25.432,-0.688,0.705,0.203
25.442,-0.688,0.709,0.197
25.452,-0.688,0.705,0.199
25.462,-0.691,0.707,0.201
25.472,-0.691,0.711,0.199
25.482,-0.688,0.709,0.199
25.492,-0.688,0.707,0.199
25.502,-0.689,0.711,0.201
25.512,-0.688,0.709,0.199
25.522,-0.688,0.717,0.201
25.531,-0.688,0.715,0.197
25.541,-0.686,0.709,0.199
25.551,-0.686,0.715,0.197
25.561,-0.686,0.715,0.199
25.571,-0.684,0.715,0.199
25.581,-0.684,0.711,0.199
25.591,-0.684,0.715,0.199
25.601,-0.686,0.717,0.199
25.611,-0.688,0.715,0.199
25.621,-0.688,0.715,0.199
25.631,-0.689,0.711,0.201
25.641,-0.693,0.711,0.197
25.651,-0.691,0.709,0.199
25.660,-0.691,0.707,0.199
25.670,-0.691,0.703,0.195
25.680,-0.688,0.705,0.195
25.690,-0.688,0.703,0.197
25.700,-0.686,0.707,0.199
25.710,-0.688,0.709,0.195
25.720,-0.688,0.709,0.199
25.730,-0.688,0.711,0.195
25.740,-0.691,0.709,0.195
25.750,-0.691,0.711,0.193
25.760,-0.691,0.711,0.197
25.770,-0.693,0.709,0.195
25.780,-0.695,0.713,0.195
25.789,-0.691,0.707,0.197
25.799,-0.693,0.709,0.193
25.809,-0.691,0.711,0.191
25.819,-0.691,0.707,0.197
25.829,-0.688,0.715,0.197
25.839,-0.689,0.711,0.195
25.849,-0.684,0.709,0.195
25.859,-0.686,0.707,0.193
25.869,-0.686,0.709,0.195
25.879,-0.682,0.709,0.193
25.889,-0.689,0.713,0.191
25.899,-0.689,0.713,0.191
25.909,-0.686,0.713,0.193
25.919,-0.689,0.715,0.191
25.928,-0.691,0.715,0.191
25.938,-0.689,0.713,0.197
25.948,-0.689,0.711,0.195
25.958,-0.686,0.713,0.195
25.968,-0.688,0.711,0.193
25.978,-0.686,0.713,0.195
25.988,-0.684,0.713,0.195
25.998,-0.686,0.709,0.195
26.008,-0.688,0.709,0.191
26.018,-0.684,0.707,0.199
26.028,-0.688,0.713,0.195
26.038,-0.686,0.711,0.195
26.048,-0.689,0.713,0.197
26.057,-0.689,0.715,0.195
26.067,-0.691,0.709,0.195
26.077,-0.689,0.713,0.191
26.087,-0.689,0.711,0.193
26.097,-0.688,0.713,0.193
26.107,-0.686,0.713,0.193
26.117,-0.684,0.713,0.193
26.127,-0.680,0.713,0.195
26.137,-0.680,0.715,0.197
26.147,-0.680,0.713,0.199
26.157,-0.682,0.713,0.195
26.167,-0.684,0.709,0.195
26.177,-0.686,0.709,0.195
26.186,-0.686,0.709,0.197
26.196,-0.689,0.709,0.197
26.206,-0.691,0.709,0.195
26.216,-0.691,0.707,0.199
26.226,-0.693,0.705,0.195
26.236,-0.697,0.705,0.195
26.246,-0.697,0.705,0.195
26.256,-0.695,0.705,0.201
26.266,-0.697,0.707,0.195
26.276,-0.699,0.705,0.195
26.286,-0.695,0.707,0.191
26.296,-0.693,0.707,0.197
26.306,-0.697,0.707,0.197
26.315,-0.699,0.701,0.197
26.325,-0.699,0.703,0.193
26.335,-0.697,0.705,0.195
26.345,-0.699,0.707,0.197
26.355,-0.697,0.709,0.199
26.365,-0.695,0.705,0.195
26.375,-0.697,0.705,0.197
26.385,-0.697,0.709,0.201
26.395,-0.693,0.705,0.197
26.405,-0.695,0.705,0.199
26.415,-0.697,0.705,0.197
26.425,-0.695,0.705,0.197
26.435,-0.697,0.703,0.197
26.445,-0.699,0.705,0.197
26.454,-0.701,0.707,0.197
26.464,-0.701,0.703,0.197
26.474,-0.703,0.701,0.195
26.484,-0.699,0.699,0.197
26.494,-0.697,0.697,0.195
26.504,-0.697,0.697,0.197
26.514,-0.693,0.693,0.197
26.524,-0.693,0.693,0.199
26.534,-0.688,0.695,0.199
26.544,-0.689,0.697,0.195
26.554,-0.691,0.695,0.201
26.564,-0.691,0.699,0.201
26.574,-0.693,0.701,0.203
26.583,-0.697,0.701,0.197
26.593,-0.701,0.699,0.201
26.603,-0.697,0.699,0.201
26.613,-0.699,0.697,0.197
26.623,-0.705,0.703,0.201
26.633,-0.709,0.701,0.197
26.643,-0.703,0.701,0.199
26.653,-0.705,0.703,0.197
26.663,-0.705,0.703,0.199
26.673,-0.699,0.699,0.195
26.683,-0.697,0.699,0.199
26.693,-0.701,0.697,0.193
26.703,-0.699,0.699,0.197
26.712,-0.699,0.703,0.197
26.722,-0.701,0.703,0.191
26.732,-0.701,0.705,0.193
26.742,-0.697,0.707,0.193
26.752,-0.701,0.709,0.191
26.762,-0.701,0.707,0.193
26.772,-0.699,0.707,0.189
26.782,-0.695,0.709,0.189
26.792,-0.695,0.705,0.189
26.802,-0.693,0.709,0.191
26.812,-0.693,0.707,0.191
26.822,-0.693,0.709,0.193
26.832,-0.691,0.707,0.191
26.841,-0.691,0.707,0.191
26.851,-0.693,0.707,0.193
26.861,-0.693,0.705,0.193
26.871,-0.695,0.705,0.191
26.881,-0.697,0.705,0.195
26.891,-0.697,0.705,0.191
26.901,-0.695,0.709,0.193
26.911,-0.695,0.707,0.193
26.921,-0.693,0.703,0.195
26.931,-0.693,0.703,0.193
26.941,-0.693,0.705,0.195
26.951,-0.693,0.701,0.197
26.961,-0.693,0.701,0.195
26.971,-0.695,0.703,0.199
26.980,-0.695,0.701,0.197
26.990,-0.691,0.701,0.195
27.000,-0.695,0.707,0.197
27.010,-0.697,0.705,0.197
27.020,-0.697,0.703,0.199
27.030,-0.699,0.701,0.197
27.040,-0.699,0.703,0.199
27.050,-0.701,0.701,0.197
27.060,-0.701,0.703,0.197
27.070,-0.701,0.701,0.195
27.080,-0.697,0.701,0.197
27.090,-0.701,0.703,0.197
27.100,-0.699,0.699,0.193
27.109,-0.701,0.701,0.197
27.119,-0.701,0.705,0.193
27.129,-0.701,0.707,0.191
27.139,-0.699,0.705,0.191
27.149,-0.697,0.707,0.193
27.159,-0.695,0.705,0.193
27.169,-0.695,0.705,0.189
27.179,-0.695,0.703,0.191
27.189,-0.695,0.697,0.195
27.199,-0.695,0.703,0.193
27.209,-0.697,0.703,0.193
27.219,-0.701,0.707,0.191
27.229,-0.697,0.711,0.197
27.238,-0.695,0.711,0.197
27.248,-0.693,0.707,0.191
27.258,-0.691,0.709,0.197
27.268,-0.693,0.705,0.199
27.278,-0.689,0.703,0.197
27.288,-0.695,0.705,0.195
27.298,-0.695,0.703,0.197
27.308,-0.699,0.701,0.193
27.318,-0.697,0.701,0.199
27.328,-0.699,0.705,0.195
27.338,-0.697,0.703,0.195
27.348,-0.699,0.699,0.195
27.358,-0.697,0.701,0.197
27.368,-0.697,0.701,0.199
27.377,-0.697,0.699,0.197
27.387,-0.693,0.699,0.197
27.397,-0.695,0.701,0.197
27.407,-0.695,0.701,0.199
27.417,-0.693,0.705,0.201
27.427,-0.697,0.705,0.201
27.437,-0.695,0.707,0.201
27.447,-0.699,0.705,0.199
27.457,-0.699,0.707,0.197
27.467,-0.693,0.707,0.199
27.477,-0.693,0.703,0.197
27.487,-0.695,0.705,0.199
27.497,-0.691,0.701,0.203
27.506,-0.693,0.703,0.199
27.516,-0.695,0.703,0.197
27.526,-0.693,0.707,0.201
27.536,-0.693,0.711,0.199
27.546,-0.693,0.703,0.199
27.556,-0.689,0.701,0.197
27.566,-0.693,0.701,0.197
27.576,-0.693,0.703,0.195
27.586,-0.693,0.707,0.195
27.596,-0.691,0.705,0.193
27.606,-0.693,0.707,0.197
27.616,-0.695,0.707,0.197
27.626,-0.693,0.711,0.195
27.635,-0.695,0.711,0.193
27.645,-0.697,0.707,0.193
27.655,-0.693,0.705,0.199
27.665,-0.695,0.707,0.195
27.675,-0.695,0.707,0.197
27.685,-0.691,0.705,0.197
27.695,-0.693,0.701,0.197
27.705,-0.691,0.707,0.199
27.715,-0.691,0.705,0.193
27.725,-0.693,0.701,0.197
27.735,-0.691,0.703,0.197
27.745,-0.695,0.705,0.195
27.755,-0.693,0.701,0.193
27.764,-0.693,0.703,0.193
27.774,-0.695,0.703,0.197
27.784,-0.693,0.705,0.195
27.794,-0.695,0.707,0.195
27.804,-0.695,0.707,0.197
27.814,-0.691,0.711,0.191
27.824,-0.695,0.709,0.193
27.834,-0.689,0.711,0.191
27.844,-0.688,0.709,0.188
27.854,-0.689,0.715,0.193
27.864,-0.689,0.711,0.193
27.874,-0.689,0.713,0.191
27.884,-0.689,0.709,0.191
27.894,-0.689,0.709,0.193
27.903,-0.695,0.705,0.191
27.913,-0.693,0.709,0.193
27.923,-0.693,0.707,0.193
27.933,-0.695,0.709,0.193
27.943,-0.697,0.705,0.191
27.953,-0.695,0.703,0.191
27.963,-0.697,0.705,0.189
27.973,-0.699,0.705,0.193
27.983,-0.697,0.705,0.188
27.993,-0.693,0.705,0.191
28.003,-0.699,0.707,0.197
28.013,-0.693,0.705,0.191
28.023,-0.693,0.703,0.188
28.032,-0.693,0.705,0.189
28.042,-0.693,0.705,0.193
28.052,-0.691,0.709,0.191
28.062,-0.693,0.713,0.193
28.072,-0.691,0.707,0.191
28.082,-0.693,0.711,0.191
28.092,-0.691,0.707,0.193
28.102,-0.691,0.707,0.197
28.112,-0.693,0.705,0.195
28.122,-0.695,0.705,0.195
28.132,-0.691,0.707,0.193
28.142,-0.695,0.701,0.193
28.152,-0.695,0.703,0.193
28.161,-0.699,0.705,0.195
28.171,-0.701,0.705,0.197
28.181,-0.703,0.699,0.195
28.191,-0.699,0.701,0.197
28.201,-0.701,0.697,0.191
28.211,-0.701,0.695,0.191
28.221,-0.701,0.699,0.191
28.231,-0.695,0.699,0.195
28.241,-0.697,0.703,0.189
28.251,-0.699,0.703,0.195
28.261,-0.699,0.707,0.191
28.271,-0.697,0.709,0.191
28.281,-0.697,0.709,0.191
28.290,-0.697,0.711,0.188
28.300,-0.695,0.709,0.189
28.310,-0.697,0.707,0.191
28.320,-0.701,0.707,0.191
28.330,-0.695,0.707,0.189
28.340,-0.701,0.707,0.188
28.350,-0.691,0.703,0.191
28.360,-0.691,0.711,0.189
28.370,-0.693,0.709,0.193
28.380,-0.688,0.705,0.191
28.390,-0.688,0.705,0.193
28.400,-0.691,0.703,0.191
28.410,-0.689,0.707,0.195
28.420,-0.689,0.705,0.193
28.429,-0.693,0.709,0.193
28.439,-0.695,0.709,0.193
28.449,-0.697,0.707,0.193
28.459,-0.699,0.709,0.193
28.469,-0.697,0.709,0.193
28.479,-0.695,0.705,0.191
28.489,-0.693,0.705,0.191
28.499,-0.691,0.709,0.195
28.509,-0.691,0.711,0.191
28.519,-0.689,0.709,0.193
28.529,-0.688,0.711,0.193
28.539,-0.688,0.709,0.197
28.549,-0.691,0.709,0.195
28.558,-0.693,0.707,0.195
28.568,-0.693,0.703,0.195
28.578,-0.693,0.699,0.193
28.588,-0.693,0.707,0.193
28.598,-0.691,0.705,0.195
28.608,-0.695,0.707,0.191
28.618,-0.691,0.705,0.197
28.628,-0.693,0.705,0.193
28.638,-0.695,0.707,0.195
28.648,-0.695,0.707,0.195
28.658,-0.695,0.707,0.193
28.668,-0.691,0.707,0.193
28.678,-0.695,0.703,0.195
28.687,-0.695,0.707,0.193
28.697,-0.697,0.707,0.195
28.707,-0.697,0.703,0.193
28.717,-0.695,0.707,0.193
28.727,-0.693,0.703,0.195
28.737,-0.695,0.703,0.195
28.747,-0.695,0.703,0.195
28.757,-0.699,0.701,0.195
28.767,-0.697,0.701,0.193
28.777,-0.697,0.701,0.193
28.787,-0.703,0.703,0.193
28.797,-0.701,0.701,0.191
28.807,-0.697,0.701,0.191
28.817,-0.701,0.699,0.191
28.826,-0.699,0.703,0.195
28.836,-0.697,0.703,0.193
28.846,-0.695,0.703,0.191
28.856,-0.697,0.699,0.193
28.866,-0.697,0.705,0.189
28.876,-0.697,0.701,0.195
28.886,-0.699,0.705,0.191
28.896,-0.693,0.709,0.191
28.906,-0.695,0.699,0.191
28.916,-0.697,0.707,0.195
28.926,-0.693,0.707,0.199
28.936,-0.693,0.705,0.193
28.946,-0.691,0.701,0.193
28.955,-0.695,0.705,0.197
28.965,-0.695,0.705,0.193
28.975,-0.695,0.707,0.197
28.985,-0.697,0.707,0.193
28.995,-0.697,0.705,0.189
29.005,-0.699,0.705,0.193
29.015,-0.701,0.703,0.195
29.025,-0.697,0.705,0.189
29.035,-0.697,0.703,0.189
29.045,-0.699,0.705,0.189
29.055,-0.695,0.701,0.191
29.065,-0.693,0.705,0.193
29.075,-0.693,0.705,0.189
29.084,-0.691,0.705,0.193
29.094,-0.691,0.709,0.189
29.104,-0.693,0.707,0.189
29.114,-0.693,0.709,0.188
29.124,-0.693,0.709,0.189
29.134,-0.695,0.707,0.189
29.144,-0.699,0.709,0.191
29.154,-0.699,0.707,0.189
29.164,-0.699,0.707,0.193
29.174,-0.697,0.707,0.193
29.184,-0.697,0.705,0.193
29.194,-0.697,0.709,0.193
29.204,-0.689,0.711,0.193
29.213,-0.691,0.709,0.193
29.223,-0.688,0.705,0.195
29.233,-0.689,0.707,0.197
29.243,-0.689,0.705,0.195
29.253,-0.688,0.707,0.193
29.263,-0.691,0.707,0.191
29.273,-0.689,0.707,0.193
29.283,-0.691,0.709,0.191
29.293,-0.691,0.711,0.191
29.303,-0.693,0.711,0.191
29.313,-0.691,0.709,0.191
29.323,-0.693,0.707,0.189
29.333,-0.691,0.709,0.193
29.343,-0.689,0.713,0.189
29.352,-0.688,0.707,0.193
29.362,-0.688,0.711,0.193
29.372,-0.689,0.709,0.197
29.382,-0.688,0.711,0.193
29.392,-0.693,0.709,0.189
29.402,-0.693,0.707,0.193
29.412,-0.695,0.705,0.191
29.422,-0.695,0.705,0.191
29.432,-0.697,0.705,0.191
29.442,-0.697,0.707,0.193
29.452,-0.695,0.709,0.191
29.462,-0.693,0.707,0.189
29.472,-0.691,0.707,0.189
29.481,-0.691,0.707,0.189
29.491,-0.689,0.705,0.188
29.501,-0.691,0.707,0.191
29.511,-0.688,0.707,0.193
29.521,-0.691,0.707,0.191
29.531,-0.693,0.709,0.193
29.541,-0.693,0.707,0.193
29.551,-0.691,0.707,0.195
29.561,-0.691,0.709,0.193
29.571,-0.695,0.705,0.191
29.581,-0.689,0.707,0.191
29.591,-0.691,0.707,0.195
29.601,-0.693,0.707,0.191
29.610,-0.691,0.705,0.195
29.620,-0.693,0.705,0.191
29.630,-0.695,0.707,0.195
29.640,-0.695,0.709,0.191
29.650,-0.693,0.707,0.195
29.660,-0.695,0.705,0.195
29.670,-0.693,0.707,0.197
29.680,-0.697,0.707,0.197
29.690,-0.695,0.705,0.191
29.700,-0.693,0.707,0.193
29.710,-0.693,0.705,0.195
29.720,-0.693,0.705,0.195
29.730,-0.693,0.707,0.189
29.740,-0.689,0.709,0.193
29.749,-0.691,0.711,0.193
29.759,-0.686,0.707,0.195
29.769,-0.688,0.717,0.197
29.779,-0.686,0.709,0.197
29.789,-0.688,0.711,0.195
29.799,-0.688,0.715,0.197
29.809,-0.688,0.709,0.197
29.819,-0.688,0.709,0.195
29.829,-0.689,0.707,0.189
29.839,-0.691,0.711,0.195
29.849,-0.691,0.713,0.189
29.859,-0.693,0.711,0.195
29.869,-0.693,0.713,0.195
29.878,-0.689,0.711,0.195
29.888,-0.693,0.709,0.191
29.898,-0.691,0.707,0.197
29.908,-0.691,0.707,0.191
29.918,-0.689,0.707,0.195
29.928,-0.686,0.703,0.195
29.938,-0.686,0.709,0.193
29.948,-0.688,0.709,0.193
29.958,-0.688,0.711,0.197
29.968,-0.689,0.711,0.193
29.978,-0.686,0.711,0.195
29.988,-0.689,0.713,0.195
29.998,-0.689,0.711,0.191
30.007,-0.691,0.709,0.193
30.017,-0.693,0.715,0.195
30.027,-0.689,0.711,0.191
30.037,-0.689,0.709,0.191
30.047,-0.691,0.711,0.191
30.057,-0.689,0.711,0.193
30.067,-0.688,0.715,0.195
30.077,-0.686,0.719,0.191
30.087,-0.684,0.711,0.193
30.097,-0.680,0.709,0.193
30.107,-0.684,0.709,0.193
30.117,-0.686,0.709,0.195
30.127,-0.684,0.711,0.193
30.136,-0.686,0.711,0.195
30.146,-0.688,0.711,0.191
30.156,-0.691,0.715,0.195
30.166,-0.691,0.715,0.193
30.176,-0.691,0.715,0.193
30.186,-0.689,0.711,0.193
30.196,-0.691,0.715,0.193
30.206,-0.691,0.711,0.195
30.216,-0.688,0.711,0.193
30.226,-0.689,0.715,0.189
30.236,-0.688,0.713,0.193
30.246,-0.686,0.713,0.193
30.256,-0.688,0.711,0.189
30.266,-0.686,0.711,0.193
30.275,-0.689,0.709,0.189
30.285,-0.688,0.711,0.193
30.295,-0.689,0.713,0.191
30.305,-0.689,0.715,0.188
30.315,-0.689,0.713,0.189
30.325,-0.689,0.713,0.189
30.335,-0.689,0.715,0.189
30.345,-0.693,0.713,0.191
30.355,-0.691,0.711,0.189
30.365,-0.693,0.711,0.193
30.375,-0.691,0.711,0.193
30.385,-0.691,0.711,0.195
30.395,-0.689,0.709,0.193
30.404,-0.689,0.709,0.197
30.414,-0.691,0.709,0.197
30.424,-0.689,0.709,0.197
30.434,-0.689,0.707,0.197
30.444,-0.691,0.705,0.199
30.454,-0.695,0.707,0.199
30.464,-0.691,0.707,0.195
30.474,-0.693,0.705,0.199
30.484,-0.691,0.705,0.193
30.494,-0.691,0.707,0.195
30.504,-0.691,0.705,0.197
30.514,-0.695,0.707,0.199
30.524,-0.691,0.707,0.197
30.533,-0.693,0.707,0.193
30.543,-0.695,0.707,0.197
30.553,-0.693,0.711,0.191
30.563,-0.695,0.709,0.193
30.573,-0.693,0.707,0.195
30.583,-0.691,0.707,0.197
30.593,-0.689,0.705,0.197
30.603,-0.688,0.707,0.195
30.613,-0.689,0.709,0.197
30.623,-0.691,0.707,0.195
30.633,-0.688,0.707,0.195
30.643,-0.691,0.711,0.199
30.653,-0.693,0.711,0.199
30.662,-0.693,0.709,0.199
30.672,-0.695,0.707,0.201
30.682,-0.693,0.707,0.197
30.692,-0.695,0.707,0.199
30.702,-0.695,0.705,0.197
30.712,-0.697,0.713,0.199
30.722,-0.693,0.709,0.199
30.732,-0.693,0.709,0.197
30.742,-0.689,0.707,0.195
30.752,-0.689,0.703,0.197
30.762,-0.689,0.703,0.197
30.772,-0.686,0.705,0.193
30.782,-0.686,0.707,0.195
30.792,-0.684,0.707,0.193
30.801,-0.688,0.709,0.197
30.811,-0.686,0.709,0.199
30.821,-0.691,0.713,0.199
30.831,-0.689,0.713,0.195
30.841,-0.689,0.711,0.197
30.851,-0.691,0.711,0.197
30.861,-0.691,0.713,0.199
30.871,-0.688,0.715,0.201
30.881,-0.688,0.713,0.199
30.891,-0.688,0.711,0.195
30.901,-0.686,0.713,0.199
30.911,-0.682,0.717,0.201
30.921,-0.678,0.713,0.195
30.930,-0.678,0.713,0.197
30.940,-0.676,0.709,0.197
30.950,-0.682,0.709,0.195
30.960,-0.680,0.715,0.197
30.970,-0.684,0.715,0.199
30.980,-0.684,0.717,0.197
30.990,-0.686,0.717,0.197
31.000,-0.688,0.717,0.199
31.010,-0.688,0.717,0.197
31.020,-0.689,0.717,0.195
31.030,-0.686,0.711,0.199
31.040,-0.688,0.713,0.197
31.050,-0.688,0.711,0.199
31.059,-0.688,0.713,0.197
31.069,-0.689,0.713,0.201
31.079,-0.686,0.711,0.201
31.089,-0.688,0.713,0.199
31.099,-0.686,0.717,0.197
31.109,-0.688,0.711,0.197
31.119,-0.688,0.715,0.197
31.129,-0.688,0.711,0.193
31.139,-0.688,0.713,0.197
31.149,-0.688,0.715,0.193
31.159,-0.688,0.713,0.193
31.169,-0.686,0.713,0.193
31.179,-0.688,0.715,0.193
31.189,-0.688,0.715,0.193
31.198,-0.688,0.715,0.191
31.208,-0.688,0.719,0.197
31.218,-0.686,0.715,0.191
31.228,-0.686,0.717,0.193
31.238,-0.684,0.713,0.195
31.248,-0.686,0.713,0.197
31.258,-0.689,0.713,0.197
31.268,-0.688,0.709,0.199
31.278,-0.691,0.709,0.193
31.288,-0.689,0.711,0.197
31.298,-0.691,0.709,0.195
31.308,-0.689,0.705,0.197
31.318,-0.689,0.703,0.199
31.327,-0.691,0.703,0.203
31.337,-0.689,0.705,0.197
31.347,-0.688,0.707,0.197
31.357,-0.689,0.707,0.201
31.367,-0.691,0.705,0.195
31.377,-0.689,0.709,0.197
31.387,-0.689,0.705,0.199
31.397,-0.693,0.707,0.197
31.407,-0.693,0.707,0.197
31.417,-0.693,0.709,0.199
31.427,-0.689,0.707,0.195
31.437,-0.691,0.707,0.199
31.447,-0.691,0.709,0.197
31.456,-0.688,0.707,0.193
31.466,-0.689,0.709,0.199
31.476,-0.689,0.713,0.197
31.486,-0.688,0.713,0.197
31.496,-0.686,0.715,0.201
31.506,-0.686,0.715,0.199
31.516,-0.688,0.713,0.199
31.526,-0.686,0.713,0.197
31.536,-0.688,0.709,0.197
31.546,-0.684,0.713,0.199
31.556,-0.686,0.719,0.197
31.566,-0.688,0.719,0.197
31.576,-0.688,0.719,0.197
31.585,-0.689,0.715,0.195
31.595,-0.684,0.711,0.197
31.605,-0.682,0.709,0.195
31.615,-0.682,0.705,0.195
31.625,-0.682,0.707,0.195
31.635,-0.686,0.711,0.197
31.645,-0.688,0.707,0.195
31.655,-0.686,0.713,0.195
31.665,-0.682,0.715,0.201
31.675,-0.686,0.715,0.199
31.685,-0.684,0.717,0.197
31.695,-0.684,0.717,0.195
31.705,-0.684,0.717,0.197
31.715,-0.680,0.717,0.195
31.724,-0.682,0.719,0.199
31.734,-0.682,0.721,0.197
31.744,-0.684,0.721,0.201
31.754,-0.684,0.717,0.199
31.764,-0.676,0.717,0.197
31.774,-0.674,0.725,0.203
31.784,-0.676,0.717,0.199
31.794,-0.668,0.715,0.203
31.804,-0.672,0.713,0.197
31.814,-0.672,0.717,0.197
31.824,-0.676,0.715,0.201
31.834,-0.680,0.717,0.201
31.844,-0.678,0.719,0.201
31.853,-0.676,0.721,0.201
31.863,-0.680,0.721,0.197
31.873,-0.680,0.721,0.199
31.883,-0.678,0.721,0.201
31.893,-0.680,0.719,0.199
31.903,-0.682,0.717,0.197
31.913,-0.678,0.719,0.201
31.923,-0.680,0.721,0.199
31.933,-0.674,0.721,0.199
31.943,-0.678,0.721,0.199
31.953,-0.676,0.723,0.199
31.963,-0.678,0.721,0.197
31.973,-0.678,0.719,0.199
31.982,-0.676,0.719,0.195
31.992,-0.678,0.721,0.191
32.002,-0.678,0.721,0.193
32.012,-0.676,0.725,0.193
32.022,-0.678,0.725,0.195
32.032,-0.674,0.721,0.193
32.042,-0.678,0.721,0.197
32.052,-0.678,0.717,0.195
32.062,-0.680,0.721,0.197
32.072,-0.682,0.715,0.197
32.082,-0.680,0.721,0.193
32.092,-0.676,0.717,0.197
32.102,-0.680,0.717,0.195
32.111,-0.684,0.719,0.195
32.121,-0.682,0.717,0.197
32.131,-0.682,0.719,0.193
32.141,-0.682,0.719,0.199
32.151,-0.682,0.719,0.197
32.161,-0.682,0.719,0.197
32.171,-0.680,0.717,0.197
32.181,-0.686,0.715,0.195
32.191,-0.684,0.719,0.195
32.201,-0.684,0.715,0.197
32.211,-0.682,0.717,0.199
32.221,-0.678,0.717,0.197
32.231,-0.680,0.711,0.193
32.241,-0.680,0.711,0.197
32.250,-0.680,0.713,0.199
32.260,-0.682,0.719,0.199
32.270,-0.684,0.719,0.197
32.280,-0.684,0.715,0.197
32.290,-0.684,0.717,0.199
32.300,-0.684,0.713,0.193
32.310,-0.682,0.717,0.199
32.320,-0.678,0.719,0.193
32.330,-0.678,0.717,0.195
32.340,-0.684,0.717,0.195
32.350,-0.680,0.719,0.199
32.360,-0.684,0.717,0.199
32.370,-0.680,0.717,0.197
32.379,-0.680,0.717,0.197
32.389,-0.682,0.717,0.199
32.399,-0.684,0.715,0.195
32.409,-0.682,0.713,0.195
32.419,-0.684,0.713,0.191
32.429,-0.686,0.709,0.191
32.439,-0.686,0.713,0.195
32.449,-0.688,0.715,0.193
32.459,-0.688,0.717,0.193
32.469,-0.688,0.713,0.195
32.479,-0.684,0.717,0.195
32.489,-0.686,0.715,0.191
32.499,-0.688,0.719,0.193
32.508,-0.686,0.719,0.193
32.518,-0.689,0.717,0.193
32.528,-0.686,0.717,0.195
32.538,-0.686,0.719,0.197
32.548,-0.688,0.713,0.193
32.558,-0.686,0.717,0.197
32.568,-0.684,0.721,0.197
32.578,-0.684,0.715,0.197
32.588,-0.680,0.715,0.197
32.598,-0.680,0.711,0.199
32.608,-0.686,0.713,0.201
32.618,-0.684,0.713,0.195
32.628,-0.688,0.715,0.197
32.638,-0.688,0.715,0.197
32.647,-0.686,0.715,0.195
32.657,-0.689,0.715,0.201
32.667,-0.686,0.717,0.197
32.677,-0.689,0.717,0.195
32.687,-0.686,0.713,0.197
32.697,-0.684,0.711,0.197
32.707,-0.682,0.715,0.199
32.717,-0.684,0.717,0.197
32.727,-0.682,0.717,0.197
32.737,-0.678,0.713,0.199
32.747,-0.678,0.715,0.199
32.757,-0.684,0.715,0.199
32.767,-0.684,0.715,0.197
32.776,-0.682,0.711,0.195
32.786,-0.686,0.711,0.197
32.796,-0.686,0.715,0.201
32.806,-0.688,0.711,0.195
32.816,-0.688,0.715,0.197
32.826,-0.689,0.711,0.195
32.836,-0.688,0.711,0.195
32.846,-0.686,0.713,0.199
32.856,-0.686,0.711,0.195
32.866,-0.686,0.713,0.197
32.876,-0.686,0.715,0.197
32.886,-0.684,0.711,0.197
32.896,-0.682,0.713,0.199
32.905,-0.688,0.711,0.197
32.915,-0.684,0.709,0.199
32.925,-0.688,0.713,0.195
32.935,-0.688,0.713,0.201
32.945,-0.686,0.713,0.197
32.955,-0.688,0.713,0.197
32.965,-0.688,0.711,0.199
32.975,-0.689,0.711,0.199
32.985,-0.691,0.707,0.199
32.995,-0.691,0.707,0.201
33.005,-0.691,0.709,0.201
33.015,-0.689,0.711,0.199
33.025,-0.691,0.709,0.203
33.034,-0.691,0.707,0.199
33.044,-0.689,0.711,0.199
33.054,-0.688,0.709,0.201
33.064,-0.688,0.709,0.199
33.074,-0.689,0.709,0.201
33.084,-0.684,0.713,0.199
33.094,-0.688,0.711,0.203
33.104,-0.684,0.713,0.199
33.114,-0.688,0.711,0.201
33.124,-0.686,0.715,0.201
33.134,-0.686,0.717,0.201
33.144,-0.684,0.717,0.203
33.154,-0.688,0.711,0.199
33.164,-0.686,0.709,0.199
33.173,-0.686,0.711,0.199
33.183,-0.689,0.713,0.199
33.193,-0.693,0.715,0.197
33.203,-0.691,0.715,0.199
33.213,-0.691,0.713,0.197
33.223,-0.693,0.709,0.197
33.233,-0.689,0.709,0.195
33.243,-0.691,0.709,0.195
33.253,-0.691,0.707,0.197
33.263,-0.688,0.705,0.195
33.273,-0.684,0.711,0.197
33.283,-0.689,0.709,0.197
33.293,-0.686,0.711,0.197
33.302,-0.688,0.711,0.199
33.312,-0.688,0.707,0.199
33.322,-0.691,0.709,0.199
33.332,-0.691,0.711,0.197
33.342,-0.693,0.709,0.193
33.352,-0.693,0.711,0.197
33.362,-0.695,0.709,0.195
33.372,-0.693,0.711,0.195
33.382,-0.695,0.713,0.197
33.392,-0.691,0.709,0.191
33.402,-0.689,0.707,0.199
33.412,-0.684,0.713,0.197
33.422,-0.686,0.707,0.201
33.431,-0.682,0.709,0.197
33.441,-0.680,0.705,0.199
33.451,-0.684,0.709,0.199
33.461,-0.688,0.707,0.197
33.471,-0.688,0.711,0.201
33.481,-0.691,0.711,0.197
33.491,-0.691,0.711,0.197
33.501,-0.691,0.711,0.195
33.511,-0.691,0.709,0.199
33.521,-0.689,0.709,0.195
33.531,-0.691,0.703,0.197
33.541,-0.689,0.709,0.197
33.551,-0.688,0.707,0.199
33.560,-0.686,0.711,0.195
33.570,-0.688,0.711,0.199
33.580,-0.688,0.711,0.197
33.590,-0.688,0.715,0.193
33.600,-0.686,0.715,0.191
33.610,-0.688,0.709,0.191
33.620,-0.688,0.711,0.191
33.630,-0.688,0.713,0.191
33.640,-0.689,0.717,0.189
33.650,-0.689,0.717,0.189
33.660,-0.689,0.717,0.189
33.670,-0.689,0.717,0.188
33.680,-0.688,0.717,0.189
33.690,-0.686,0.719,0.186
33.699,-0.686,0.715,0.189
33.709,-0.682,0.717,0.186
33.719,-0.682,0.719,0.188
33.729,-0.686,0.719,0.189
33.739,-0.682,0.719,0.188
33.749,-0.684,0.719,0.191
33.759,-0.686,0.717,0.188
33.769,-0.684,0.717,0.188
33.779,-0.684,0.717,0.191
33.789,-0.684,0.717,0.189
33.799,-0.680,0.719,0.189
33.809,-0.680,0.715,0.189
33.819,-0.682,0.713,0.191
33.828,-0.680,0.717,0.191
33.838,-0.684,0.717,0.191
33.848,-0.682,0.715,0.191
33.858,-0.688,0.713,0.189
33.868,-0.686,0.715,0.191
33.878,-0.688,0.713,0.191
33.888,-0.684,0.717,0.191
33.898,-0.688,0.713,0.189
33.908,-0.688,0.711,0.189
33.918,-0.689,0.713,0.189
33.928,-0.686,0.711,0.193
33.938,-0.688,0.715,0.195
33.948,-0.688,0.715,0.193
33.957,-0.688,0.711,0.191
33.967,-0.686,0.713,0.195
33.977,-0.688,0.711,0.193
33.987,-0.688,0.711,0.193
33.997,-0.689,0.711,0.195
34.007,-0.688,0.713,0.193
34.017,-0.689,0.713,0.195
34.027,-0.691,0.713,0.191
34.037,-0.695,0.711,0.195
34.047,-0.691,0.713,0.195
34.057,-0.691,0.713,0.189
34.067,-0.693,0.709,0.193
34.077,-0.693,0.709,0.193
34.087,-0.695,0.707,0.193
34.096,-0.695,0.705,0.191
34.106,-0.691,0.707,0.191
34.116,-0.688,0.709,0.193
34.126,-0.688,0.711,0.195
34.136,-0.688,0.711,0.193
34.146,-0.689,0.715,0.195
34.156,-0.689,0.713,0.193
34.166,-0.686,0.711,0.191
34.176,-0.688,0.711,0.193
34.186,-0.688,0.709,0.197
34.196,-0.697,0.707,0.195
34.206,-0.691,0.709,0.195
34.216,-0.693,0.707,0.197
34.225,-0.691,0.707,0.195
34.235,-0.691,0.709,0.195
34.245,-0.689,0.715,0.197
34.255,-0.691,0.709,0.201
34.265,-0.686,0.711,0.201
34.275,-0.686,0.709,0.197
34.285,-0.689,0.709,0.195
34.295,-0.686,0.707,0.199
34.305,-0.688,0.715,0.201
34.315,-0.689,0.709,0.197
34.325,-0.691,0.709,0.197
34.335,-0.693,0.707,0.197
34.345,-0.691,0.713,0.195
34.354,-0.691,0.711,0.197
34.364,-0.691,0.707,0.199
34.374,-0.691,0.709,0.197
34.384,-0.691,0.707,0.195
34.394,-0.689,0.709,0.195
34.404,-0.688,0.707,0.195
34.414,-0.691,0.707,0.197
34.424,-0.686,0.711,0.199
34.434,-0.688,0.707,0.197
34.444,-0.686,0.711,0.199
34.454,-0.688,0.711,0.199
34.464,-0.686,0.709,0.199
34.474,-0.691,0.709,0.195
34.483,-0.691,0.711,0.195
34.493,-0.691,0.711,0.195
34.503,-0.693,0.711,0.197
34.513,-0.689,0.711,0.195
34.523,-0.691,0.711,0.193
34.533,-0.691,0.709,0.193
34.543,-0.691,0.711,0.193
34.553,-0.689,0.707,0.191
34.563,-0.688,0.713,0.191
34.573,-0.691,0.711,0.195
34.583,-0.689,0.711,0.195
34.593,-0.688,0.709,0.199
34.603,-0.689,0.709,0.197
34.613,-0.689,0.711,0.195
34.622,-0.691,0.709,0.193
34.632,-0.693,0.705,0.195
34.642,-0.697,0.705,0.203
34.652,-0.695,0.703,0.199
34.662,-0.695,0.705,0.197
34.672,-0.697,0.703,0.199
34.682,-0.695,0.701,0.201
34.692,-0.693,0.705,0.197
34.702,-0.691,0.703,0.197
34.712,-0.691,0.707,0.199
34.722,-0.693,0.705,0.197
34.732,-0.693,0.705,0.197
34.742,-0.693,0.703,0.195
34.751,-0.693,0.707,0.201
34.761,-0.689,0.707,0.195
34.771,-0.689,0.707,0.195
34.781,-0.691,0.707,0.195
34.791,-0.691,0.711,0.193
34.801,-0.688,0.709,0.197
34.811,-0.688,0.713,0.195
34.821,-0.688,0.713,0.197
34.831,-0.688,0.713,0.193
34.841,-0.686,0.715,0.195
34.851,-0.689,0.709,0.197
34.861,-0.689,0.705,0.195
34.871,-0.689,0.709,0.191
34.880,-0.691,0.707,0.197
34.890,-0.695,0.709,0.197
34.900,-0.695,0.707,0.195
34.910,-0.697,0.707,0.193
34.920,-0.701,0.713,0.193
34.930,-0.701,0.707,0.195
34.940,-0.699,0.707,0.193
34.950,-0.701,0.703,0.199
34.960,-0.699,0.705,0.193
34.970,-0.697,0.701,0.195
34.980,-0.699,0.701,0.195
34.990,-0.697,0.703,0.195
35.000,-0.695,0.705,0.195
35.009,-0.697,0.707,0.197
35.019,-0.697,0.705,0.195
35.029,-0.699,0.707,0.193
35.039,-0.697,0.707,0.193
35.049,-0.693,0.705,0.197
35.059,-0.697,0.705,0.195
35.069,-0.691,0.707,0.195
35.079,-0.695,0.707,0.197
35.089,-0.697,0.707,0.195
35.099,-0.689,0.705,0.197
35.109,-0.688,0.707,0.197
35.119,-0.686,0.713,0.199
35.129,-0.688,0.709,0.197
35.139,-0.684,0.707,0.197
35.148,-0.684,0.705,0.197
35.158,-0.688,0.705,0.199
35.168,-0.689,0.705,0.197
35.178,-0.691,0.709,0.197
35.188,-0.693,0.711,0.199
35.198,-0.693,0.709,0.199
35.208,-0.697,0.709,0.197
35.218,-0.699,0.705,0.197
35.228,-0.699,0.703,0.197
35.238,-0.699,0.705,0.197
35.248,-0.697,0.707,0.197
35.258,-0.697,0.705,0.199
35.268,-0.697,0.705,0.199
35.277,-0.699,0.707,0.197
35.287,-0.695,0.703,0.199
35.297,-0.695,0.703,0.197
35.307,-0.697,0.703,0.197
35.317,-0.697,0.707,0.197
35.327,-0.701,0.701,0.193
35.337,-0.701,0.703,0.195
35.347,-0.699,0.705,0.189
35.357,-0.699,0.707,0.193
35.367,-0.699,0.711,0.191
35.377,-0.699,0.707,0.193
35.387,-0.693,0.709,0.195
35.397,-0.691,0.711,0.191
35.406,-0.688,0.711,0.197
35.416,-0.686,0.709,0.197
35.426,-0.688,0.713,0.197
35.436,-0.688,0.709,0.195
35.446,-0.686,0.709,0.197
35.456,-0.688,0.709,0.193
35.466,-0.688,0.707,0.197
35.476,-0.689,0.707,0.197
35.486,-0.689,0.705,0.193
35.496,-0.689,0.709,0.197
35.506,-0.691,0.705,0.195
35.516,-0.689,0.705,0.201
35.526,-0.689,0.707,0.199
35.536,-0.688,0.705,0.199
35.545,-0.689,0.707,0.201
35.555,-0.691,0.709,0.195
35.565,-0.691,0.709,0.197
35.575,-0.693,0.707,0.201
35.585,-0.691,0.705,0.199
35.595,-0.691,0.709,0.195
35.605,-0.695,0.707,0.197
35.615,-0.695,0.709,0.195
35.625,-0.691,0.705,0.191
35.635,-0.693,0.709,0.195
35.645,-0.693,0.713,0.197
35.655,-0.693,0.709,0.191
35.665,-0.693,0.711,0.195
35.674,-0.693,0.709,0.197
35.684,-0.693,0.709,0.195
35.694,-0.695,0.709,0.195
35.704,-0.693,0.709,0.195
35.714,-0.695,0.711,0.193
35.724,-0.695,0.713,0.197
35.734,-0.697,0.713,0.197
35.744,-0.695,0.711,0.197
35.754,-0.693,0.709,0.197
35.764,-0.693,0.707,0.197
35.774,-0.691,0.707,0.197
35.784,-0.693,0.703,0.195
35.794,-0.691,0.703,0.197
35.803,-0.689,0.701,0.197
35.813,-0.689,0.707,0.197
35.823,-0.691,0.705,0.201
35.833,-0.691,0.705,0.197
35.843,-0.689,0.707,0.199
35.853,-0.693,0.705,0.197
35.863,-0.693,0.705,0.195
35.873,-0.695,0.703,0.199
35.883,-0.695,0.705,0.199
35.893,-0.697,0.705,0.201
35.903,-0.701,0.701,0.199
35.913,-0.699,0.701,0.203
35.923,-0.699,0.701,0.199
35.932,-0.695,0.699,0.201
35.942,-0.699,0.707,0.203
35.952,-0.695,0.701,0.201
35.962,-0.693,0.703,0.205
35.972,-0.693,0.697,0.203
35.982,-0.693,0.699,0.201
35.992,-0.697,0.699,0.203
36.002,-0.697,0.701,0.201
36.012,-0.699,0.699,0.205
36.022,-0.699,0.699,0.201
36.032,-0.701,0.703,0.201
36.042,-0.703,0.705,0.203
36.052,-0.701,0.705,0.201
36.062,-0.703,0.701,0.203
36.071,-0.701,0.701,0.201
36.081,-0.701,0.699,0.203
36.091,-0.699,0.697,0.203
36.101,-0.699,0.701,0.205
36.111,-0.699,0.703,0.207
36.121,-0.699,0.697,0.205
36.131,-0.699,0.699,0.203
36.141,-0.699,0.697,0.207
36.151,-0.703,0.697,0.207
36.161,-0.705,0.695,0.199
36.171,-0.707,0.691,0.201
36.181,-0.705,0.695,0.203
36.191,-0.705,0.695,0.201
36.200,-0.705,0.695,0.203
36.210,-0.705,0.701,0.203
36.220,-0.705,0.697,0.201
36.230,-0.701,0.701,0.203
36.240,-0.699,0.701,0.203
36.250,-0.699,0.703,0.205
36.260,-0.699,0.699,0.207
36.270,-0.693,0.703,0.205
36.280,-0.693,0.701,0.205
36.290,-0.691,0.699,0.207
36.300,-0.693,0.699,0.207
36.310,-0.695,0.697,0.207
36.320,-0.699,0.699,0.205
36.329,-0.697,0.699,0.205
36.339,-0.699,0.699,0.203
36.349,-0.699,0.699,0.205
36.359,-0.701,0.699,0.203
36.369,-0.695,0.701,0.207
36.379,-0.697,0.699,0.203
36.389,-0.695,0.697,0.201
36.399,-0.699,0.701,0.203
36.409,-0.697,0.699,0.203
36.419,-0.697,0.701,0.205
36.429,-0.695,0.703,0.203
36.439,-0.697,0.703,0.199
36.449,-0.697,0.703,0.201
36.458,-0.697,0.703,0.201
36.468,-0.697,0.699,0.197
36.478,-0.697,0.705,0.201
36.488,-0.695,0.703,0.199
36.498,-0.693,0.703,0.201
36.508,-0.695,0.711,0.203
36.518,-0.695,0.709,0.201
36.528,-0.695,0.709,0.203
36.538,-0.693,0.707,0.203
36.548,-0.695,0.707,0.201
36.558,-0.695,0.705,0.201
36.568,-0.695,0.703,0.201
36.578,-0.697,0.705,0.201
36.588,-0.695,0.705,0.201
36.597,-0.697,0.707,0.201
36.607,-0.699,0.707,0.201
36.617,-0.697,0.703,0.195
36.627,-0.697,0.701,0.197
36.637,-0.697,0.701,0.199
36.647,-0.695,0.701,0.197
36.657,-0.695,0.703,0.199
36.667,-0.693,0.701,0.197
36.677,-0.693,0.701,0.195
36.687,-0.693,0.707,0.201
36.697,-0.693,0.709,0.199
36.707,-0.695,0.707,0.199
36.717,-0.693,0.707,0.195
36.726,-0.695,0.709,0.197
36.736,-0.697,0.709,0.197
36.746,-0.693,0.705,0.201
36.756,-0.695,0.705,0.199
36.766,-0.697,0.705,0.199
36.776,-0.693,0.705,0.197
36.786,-0.697,0.701,0.197
36.796,-0.693,0.705,0.197
36.806,-0.693,0.709,0.201
36.816,-0.693,0.709,0.199
36.826,-0.691,0.705,0.197
36.836,-0.688,0.703,0.197
36.846,-0.691,0.703,0.199
36.855,-0.689,0.705,0.193
36.865,-0.689,0.709,0.197
36.875,-0.693,0.711,0.195
36.885,-0.693,0.709,0.197
36.895,-0.689,0.711,0.201
36.905,-0.691,0.711,0.195
36.915,-0.691,0.711,0.197
36.925,-0.689,0.711,0.197
36.935,-0.688,0.711,0.199
36.945,-0.688,0.709,0.197
36.955,-0.684,0.713,0.199
36.965,-0.689,0.711,0.195
36.975,-0.689,0.711,0.199
36.985,-0.688,0.713,0.199
36.994,-0.689,0.711,0.199
37.004,-0.688,0.709,0.197
37.014,-0.686,0.709,0.197
37.024,-0.686,0.707,0.199
37.034,-0.688,0.709,0.197
37.044,-0.684,0.711,0.197
37.054,-0.689,0.707,0.199
37.064,-0.688,0.707,0.201
37.074,-0.688,0.709,0.197
37.084,-0.688,0.711,0.197
37.094,-0.688,0.711,0.199
37.104,-0.688,0.709,0.199
37.114,-0.688,0.707,0.197
37.123,-0.688,0.703,0.197
37.133,-0.688,0.707,0.201
37.143,-0.693,0.705,0.199
37.153,-0.691,0.705,0.201
37.163,-0.691,0.709,0.197
37.173,-0.691,0.709,0.199
37.183,-0.695,0.703,0.199
37.193,-0.693,0.703,0.203
37.203,-0.695,0.703,0.199
37.213,-0.699,0.705,0.201
37.223,-0.699,0.703,0.199
37.233,-0.703,0.701,0.197
37.243,-0.703,0.705,0.199
37.252,-0.701,0.705,0.199
37.262,-0.701,0.703,0.203
37.272,-0.701,0.705,0.199
37.282,-0.701,0.701,0.197
37.292,-0.701,0.699,0.197
37.302,-0.697,0.703,0.197
37.312,-0.697,0.707,0.199
37.322,-0.695,0.709,0.199
37.332,-0.695,0.711,0.197
37.342,-0.693,0.707,0.201
37.352,-0.691,0.709,0.199
37.362,-0.689,0.707,0.199
37.372,-0.691,0.705,0.201
37.381,-0.691,0.705,0.201
37.391,-0.689,0.703,0.199
37.401,-0.689,0.703,0.201
37.411,-0.693,0.705,0.197
37.421,-0.691,0.703,0.199
37.431,-0.695,0.705,0.205
37.441,-0.693,0.699,0.201
37.451,-0.695,0.701,0.201
37.461,-0.695,0.701,0.201
37.471,-0.695,0.703,0.197
37.481,-0.693,0.699,0.197
37.491,-0.691,0.701,0.199
37.501,-0.693,0.699,0.199
37.511,-0.691,0.699,0.197
37.520,-0.693,0.701,0.199
37.530,-0.697,0.705,0.197
37.540,-0.699,0.703,0.199
37.550,-0.697,0.705,0.199
37.560,-0.697,0.709,0.199
37.570,-0.697,0.705,0.195
37.580,-0.699,0.705,0.193
37.590,-0.699,0.707,0.191
37.600,-0.701,0.707,0.195
37.610,-0.701,0.705,0.191
37.620,-0.699,0.707,0.195
37.630,-0.699,0.707,0.193
37.640,-0.697,0.705,0.195
37.649,-0.695,0.705,0.197
37.659,-0.695,0.703,0.197
37.669,-0.693,0.703,0.195
37.679,-0.697,0.701,0.197
37.689,-0.699,0.703,0.197
37.699,-0.699,0.705,0.197
37.709,-0.701,0.707,0.195
37.719,-0.701,0.709,0.197
37.729,-0.699,0.705,0.193
37.739,-0.703,0.705,0.193
37.749,-0.697,0.701,0.195
37.759,-0.697,0.703,0.197
37.769,-0.695,0.703,0.201
37.778,-0.695,0.705,0.197
37.788,-0.693,0.701,0.199
37.798,-0.691,0.701,0.197
37.808,-0.689,0.703,0.199
37.818,-0.695,0.703,0.199
37.828,-0.695,0.705,0.203
37.838,-0.697,0.705,0.197
37.848,-0.699,0.705,0.197
37.858,-0.701,0.703,0.199
37.868,-0.703,0.701,0.199
37.878,-0.703,0.705,0.199
37.888,-0.705,0.701,0.199
37.898,-0.705,0.703,0.201
37.907,-0.701,0.701,0.197
37.917,-0.697,0.701,0.201
37.927,-0.695,0.703,0.201
37.937,-0.693,0.703,0.199
37.947,-0.689,0.697,0.199
37.957,-0.691,0.699,0.199
37.967,-0.695,0.697,0.203
37.977,-0.693,0.701,0.199
37.987,-0.701,0.703,0.197
37.997,-0.703,0.701,0.201
38.007,-0.707,0.701,0.203
38.017,-0.703,0.701,0.201
38.027,-0.707,0.699,0.199
38.037,-0.703,0.701,0.199
38.046,-0.703,0.699,0.201
38.056,-0.701,0.699,0.203
38.066,-0.703,0.701,0.199
38.076,-0.701,0.701,0.203
38.086,-0.699,0.699,0.203
38.096,-0.701,0.703,0.201
38.106,-0.699,0.701,0.201
38.116,-0.699,0.699,0.199
38.126,-0.703,0.697,0.199
38.136,-0.701,0.701,0.199
38.146,-0.701,0.701,0.199
38.156,-0.703,0.701,0.201
38.166,-0.705,0.701,0.197
38.175,-0.703,0.699,0.199
38.185,-0.697,0.697,0.203
38.195,-0.697,0.699,0.197
38.205,-0.693,0.701,0.199
38.215,-0.695,0.707,0.205
38.225,-0.691,0.707,0.197
38.235,-0.693,0.707,0.203
38.245,-0.691,0.709,0.203
38.255,-0.691,0.705,0.201
38.265,-0.693,0.703,0.201
38.275,-0.693,0.703,0.199
38.285,-0.699,0.705,0.197
38.295,-0.699,0.701,0.201
38.304,-0.699,0.703,0.197
38.314,-0.697,0.705,0.199
38.324,-0.699,0.703,0.199
38.334,-0.699,0.701,0.197
38.344,-0.697,0.703,0.197
38.354,-0.693,0.701,0.199
38.364,-0.695,0.705,0.195
38.374,-0.695,0.703,0.197
38.384,-0.691,0.707,0.197
38.394,-0.695,0.707,0.201
38.404,-0.693,0.703,0.197
38.414,-0.695,0.705,0.197
38.424,-0.697,0.705,0.199
38.434,-0.697,0.701,0.197
38.443,-0.697,0.703,0.195
38.453,-0.695,0.705,0.197
38.463,-0.697,0.703,0.199
38.473,-0.697,0.703,0.197
38.483,-0.695,0.707,0.195
38.493,-0.693,0.707,0.197
38.503,-0.693,0.705,0.197
38.513,-0.689,0.707,0.197
38.523,-0.689,0.713,0.199
38.533,-0.691,0.711,0.197
38.543,-0.686,0.707,0.195
38.553,-0.686,0.703,0.197
38.563,-0.689,0.709,0.195
38.572,-0.689,0.711,0.195
38.582,-0.693,0.705,0.195
38.592,-0.695,0.709,0.193
38.602,-0.693,0.709,0.193
38.612,-0.695,0.711,0.193
38.622,-0.695,0.709,0.193
38.632,-0.695,0.707,0.195
38.642,-0.693,0.711,0.195
38.652,-0.689,0.709,0.191
38.662,-0.691,0.707,0.195
38.672,-0.688,0.709,0.195
38.682,-0.688,0.711,0.195
38.692,-0.688,0.709,0.197
38.701,-0.689,0.709,0.195
38.711,-0.689,0.709,0.193
38.721,-0.693,0.709,0.191
38.731,-0.693,0.707,0.193
38.741,-0.693,0.707,0.195
38.751,-0.695,0.709,0.191
38.761,-0.695,0.711,0.193
38.771,-0.693,0.711,0.189
38.781,-0.691,0.709,0.193
38.791,-0.689,0.713,0.195
38.801,-0.689,0.713,0.195
38.811,-0.684,0.715,0.195
38.821,-0.682,0.711,0.197
38.830,-0.682,0.711,0.199
38.840,-0.684,0.711,0.197
38.850,-0.684,0.713,0.201
38.860,-0.688,0.713,0.195
38.870,-0.691,0.707,0.195
38.880,-0.691,0.709,0.197
38.890,-0.691,0.707,0.193
38.900,-0.691,0.709,0.195
38.910,-0.691,0.705,0.195
38.920,-0.693,0.707,0.197
38.930,-0.689,0.709,0.199
38.940,-0.689,0.705,0.195
38.950,-0.689,0.705,0.193
38.960,-0.689,0.707,0.197
38.969,-0.689,0.707,0.195
38.979,-0.691,0.709,0.195
38.989,-0.691,0.707,0.197
38.999,-0.695,0.709,0.193
39.009,-0.695,0.707,0.195
39.019,-0.695,0.703,0.193
39.029,-0.697,0.705,0.195
39.039,-0.697,0.705,0.193
39.049,-0.693,0.711,0.199
39.059,-0.695,0.709,0.197
39.069,-0.693,0.707,0.197
39.079,-0.689,0.711,0.197
39.089,-0.688,0.709,0.199
39.098,-0.689,0.707,0.203
39.108,-0.688,0.705,0.193
39.118,-0.691,0.705,0.199
39.128,-0.689,0.705,0.199
39.138,-0.691,0.707,0.197
39.148,-0.693,0.709,0.201
39.158,-0.699,0.707,0.195
39.168,-0.697,0.707,0.197
39.178,-0.699,0.705,0.193
39.188,-0.701,0.705,0.197
39.198,-0.699,0.705,0.197
39.208,-0.695,0.703,0.195
39.218,-0.693,0.703,0.199
39.227,-0.691,0.705,0.193
39.237,-0.691,0.705,0.199
39.247,-0.689,0.705,0.201
39.257,-0.691,0.709,0.197
39.267,-0.693,0.703,0.201
39.277,-0.695,0.705,0.197
39.287,-0.695,0.705,0.195
39.297,-0.695,0.703,0.195
39.307,-0.697,0.705,0.197
39.317,-0.699,0.707,0.197
39.327,-0.697,0.707,0.195
39.337,-0.699,0.705,0.197
39.347,-0.693,0.707,0.195
39.356,-0.695,0.709,0.201
39.366,-0.691,0.705,0.199
39.376,-0.691,0.707,0.195
39.386,-0.691,0.707,0.197
39.396,-0.693,0.701,0.197
39.406,-0.689,0.707,0.195
39.416,-0.693,0.707,0.193
39.426,-0.691,0.705,0.195
39.436,-0.693,0.707,0.193
39.446,-0.693,0.711,0.197
39.456,-0.697,0.711,0.197
39.466,-0.699,0.709,0.191
39.476,-0.695,0.705,0.197
39.486,-0.695,0.707,0.193
39.495,-0.697,0.707,0.199
39.505,-0.695,0.707,0.195
39.515,-0.693,0.707,0.195
39.525,-0.693,0.707,0.195
39.535,-0.693,0.705,0.195
39.545,-0.695,0.701,0.197
39.555,-0.695,0.703,0.197
39.565,-0.699,0.703,0.197
39.575,-0.693,0.705,0.195
39.585,-0.697,0.705,0.195
39.595,-0.697,0.703,0.195
39.605,-0.701,0.705,0.195
39.615,-0.699,0.705,0.191
39.624,-0.699,0.705,0.195
39.634,-0.699,0.707,0.195
39.644,-0.695,0.703,0.193
39.654,-0.693,0.705,0.195
39.664,-0.693,0.705,0.191
39.674,-0.691,0.705,0.193
39.684,-0.695,0.705,0.197
39.694,-0.693,0.703,0.193
39.704,-0.693,0.705,0.195
39.714,-0.695,0.705,0.195
39.724,-0.693,0.707,0.193
39.734,-0.695,0.705,0.197
39.744,-0.697,0.707,0.197
39.753,-0.697,0.707,0.197
39.763,-0.697,0.705,0.195
39.773,-0.697,0.707,0.195
39.783,-0.697,0.703,0.195
39.793,-0.699,0.703,0.193
39.803,-0.697,0.705,0.197
39.813,-0.697,0.703,0.199
39.823,-0.697,0.703,0.199
39.833,-0.695,0.703,0.197
39.843,-0.695,0.703,0.197
39.853,-0.697,0.703,0.195
39.863,-0.695,0.703,0.195
39.873,-0.695,0.705,0.197
39.883,-0.695,0.705,0.197
39.892,-0.697,0.705,0.199
39.902,-0.699,0.705,0.195
39.912,-0.695,0.703,0.195
39.922,-0.701,0.707,0.197
39.932,-0.695,0.703,0.197
39.942,-0.695,0.705,0.203
39.952,-0.693,0.705,0.197
39.962,-0.693,0.707,0.197
39.972,-0.691,0.711,0.201
39.982,-0.689,0.707,0.203
39.992,-0.689,0.699,0.199
40.002,-0.689,0.703,0.197
40.012,-0.693,0.705,0.201
40.021,-0.697,0.709,0.197
40.031,-0.699,0.711,0.197
40.041,-0.701,0.709,0.201
40.051,-0.701,0.711,0.197
40.061,-0.701,0.705,0.197
40.071,-0.699,0.707,0.197
40.081,-0.699,0.703,0.197
40.091,-0.697,0.701,0.197
40.101,-0.691,0.699,0.199
40.111,-0.689,0.703,0.199
40.121,-0.689,0.705,0.197
40.131,-0.688,0.703,0.197
40.141,-0.688,0.703,0.199
40.150,-0.691,0.707,0.195
40.160,-0.693,0.705,0.193
40.170,-0.695,0.707,0.195
40.180,-0.695,0.707,0.195
40.190,-0.695,0.709,0.197
40.200,-0.697,0.707,0.199
40.210,-0.693,0.709,0.195
40.220,-0.693,0.705,0.197
40.230,-0.695,0.703,0.195
40.240,-0.693,0.707,0.197
40.250,-0.689,0.711,0.197
40.260,-0.691,0.711,0.195
40.270,-0.689,0.709,0.197
40.279,-0.688,0.707,0.195
40.289,-0.695,0.705,0.197
40.299,-0.693,0.703,0.197
40.309,-0.695,0.705,0.197
40.319,-0.695,0.703,0.195
40.329,-0.697,0.707,0.195
40.339,-0.697,0.705,0.195
40.349,-0.697,0.707,0.197
40.359,-0.697,0.703,0.197
40.369,-0.695,0.705,0.197
40.379,-0.693,0.705,0.199
40.389,-0.691,0.705,0.199
40.399,-0.691,0.705,0.199
40.409,-0.691,0.705,0.201
40.418,-0.691,0.705,0.197
40.428,-0.693,0.707,0.195
40.438,-0.695,0.711,0.197
40.448,-0.695,0.707,0.197
40.458,-0.691,0.705,0.195
40.468,-0.695,0.705,0.195
40.478,-0.697,0.707,0.195
40.488,-0.691,0.707,0.193
40.498,-0.697,0.705,0.195
40.508,-0.697,0.707,0.195
40.518,-0.693,0.707,0.191
40.528,-0.695,0.709,0.193
40.538,-0.689,0.711,0.195
40.547,-0.693,0.709,0.191
40.557,-0.691,0.707,0.197
40.567,-0.691,0.711,0.193
40.577,-0.691,0.707,0.197
40.587,-0.693,0.707,0.197
40.597,-0.691,0.705,0.197
40.607,-0.693,0.707,0.193
40.617,-0.695,0.707,0.199
40.627,-0.695,0.707,0.195
40.637,-0.699,0.703,0.195
40.647,-0.701,0.703,0.199
40.657,-0.697,0.707,0.199
40.667,-0.697,0.705,0.195
40.676,-0.693,0.705,0.197
40.686,-0.693,0.707,0.197
40.696,-0.693,0.707,0.197
40.706,-0.691,0.707,0.201
40.716,-0.695,0.705,0.199
40.726,-0.695,0.705,0.201
40.736,-0.697,0.705,0.195
40.746,-0.695,0.703,0.197
40.756,-0.697,0.707,0.197
40.766,-0.697,0.707,0.197
40.776,-0.695,0.707,0.193
40.786,-0.697,0.705,0.197
40.796,-0.693,0.709,0.195
40.806,-0.693,0.707,0.195
40.815,-0.693,0.703,0.195
40.825,-0.691,0.707,0.199
40.835,-0.689,0.707,0.195
40.845,-0.688,0.711,0.197
40.855,-0.688,0.713,0.199
40.865,-0.686,0.711,0.197
40.875,-0.688,0.713,0.199
40.885,-0.689,0.711,0.199
40.895,-0.688,0.709,0.197
40.905,-0.689,0.711,0.197
40.915,-0.693,0.709,0.195
40.925,-0.691,0.709,0.199
40.935,-0.691,0.709,0.195
40.944,-0.693,0.709,0.195
40.954,-0.695,0.713,0.195
40.964,-0.695,0.709,0.197
40.974,-0.695,0.707,0.199
40.984,-0.689,0.709,0.195
40.994,-0.688,0.705,0.195
41.004,-0.689,0.707,0.193
41.014,-0.686,0.707,0.197
41.024,-0.686,0.709,0.197
41.034,-0.689,0.711,0.201
41.044,-0.691,0.711,0.197
41.054,-0.693,0.711,0.195
41.064,-0.695,0.709,0.195
41.073,-0.695,0.711,0.197
41.083,-0.695,0.709,0.195
41.093,-0.695,0.711,0.195
41.103,-0.697,0.709,0.195
41.113,-0.695,0.709,0.195
41.123,-0.695,0.707,0.195
41.133,-0.693,0.709,0.197
41.143,-0.691,0.705,0.197
41.153,-0.688,0.713,0.201
41.163,-0.688,0.709,0.197
41.173,-0.684,0.707,0.199
41.183,-0.682,0.701,0.197
41.193,-0.686,0.705,0.195
41.202,-0.689,0.707,0.199
41.212,-0.688,0.707,0.199
41.222,-0.688,0.709,0.197
41.232,-0.689,0.713,0.193
41.242,-0.691,0.713,0.193
41.252,-0.691,0.713,0.199
41.262,-0.689,0.711,0.195
41.272,-0.691,0.711,0.191
41.282,-0.691,0.713,0.197
41.292,-0.689,0.709,0.191
41.302,-0.689,0.713,0.197
41.312,-0.684,0.713,0.195
41.322,-0.688,0.711,0.195
41.332,-0.686,0.711,0.195
41.341,-0.688,0.709,0.193
41.351,-0.691,0.709,0.195
41.361,-0.693,0.709,0.195
41.371,-0.693,0.711,0.195
41.381,-0.695,0.709,0.191
41.391,-0.695,0.709,0.191
41.401,-0.697,0.709,0.193
41.411,-0.697,0.709,0.191
41.421,-0.695,0.711,0.195
41.431,-0.691,0.715,0.195
41.441,-0.693,0.711,0.193
41.451,-0.691,0.709,0.193
41.461,-0.689,0.711,0.191
41.470,-0.688,0.709,0.197
41.480,-0.691,0.713,0.195
41.490,-0.693,0.711,0.197
41.500,-0.691,0.707,0.199
41.510,-0.695,0.709,0.195
41.520,-0.693,0.709,0.197
41.530,-0.695,0.709,0.197
41.540,-0.693,0.709,0.197
41.550,-0.695,0.707,0.195
41.560,-0.693,0.707,0.199
41.570,-0.693,0.707,0.201
41.580,-0.693,0.705,0.197
41.590,-0.689,0.709,0.197
41.599,-0.693,0.707,0.197
41.609,-0.695,0.705,0.199
41.619,-0.695,0.709,0.197
41.629,-0.693,0.709,0.197
41.639,-0.693,0.705,0.193
41.649,-0.695,0.705,0.201
41.659,-0.691,0.703,0.195
41.669,-0.693,0.707,0.197
41.679,-0.693,0.709,0.197
41.689,-0.691,0.715,0.197
41.699,-0.688,0.711,0.195
41.709,-0.688,0.711,0.201
41.719,-0.689,0.709,0.197
41.728,-0.693,0.709,0.197
41.738,-0.688,0.709,0.195
41.748,-0.689,0.713,0.195
41.758,-0.693,0.711,0.199
41.768,-0.695,0.711,0.199
41.778,-0.697,0.709,0.199
41.788,-0.697,0.709,0.197
41.798,-0.699,0.707,0.195
41.808,-0.695,0.707,0.195
41.818,-0.693,0.705,0.197
41.828,-0.691,0.705,0.193
41.838,-0.689,0.703,0.193
41.848,-0.689,0.703,0.195
41.858,-0.689,0.707,0.197
41.867,-0.688,0.709,0.199
41.877,-0.689,0.709,0.197
41.887,-0.689,0.709,0.195
41.897,-0.689,0.711,0.197
41.907,-0.693,0.709,0.193
41.917,-0.693,0.711,0.197
41.927,-0.695,0.711,0.193
41.937,-0.695,0.711,0.193
41.947,-0.693,0.711,0.197
41.957,-0.693,0.709,0.199
41.967,-0.689,0.709,0.197
41.977,-0.689,0.707,0.197
41.987,-0.689,0.717,0.199
41.996,-0.689,0.711,0.199
42.006,-0.686,0.707,0.197
42.016,-0.682,0.707,0.199
42.026,-0.689,0.707,0.195
42.036,-0.688,0.711,0.199
42.046,-0.693,0.711,0.201
42.056,-0.691,0.711,0.193
42.066,-0.689,0.715,0.193
42.076,-0.691,0.715,0.193
42.086,-0.689,0.713,0.193
42.096,-0.689,0.713,0.195
42.106,-0.689,0.711,0.195
42.116,-0.688,0.713,0.197
42.125,-0.686,0.711,0.195
42.135,-0.688,0.713,0.197
42.145,-0.686,0.715,0.191
42.155,-0.684,0.711,0.199
42.165,-0.688,0.713,0.195
42.175,-0.686,0.713,0.197
42.185,-0.686,0.711,0.195
42.195,-0.691,0.711,0.191
42.205,-0.691,0.709,0.193
42.215,-0.688,0.709,0.193
42.225,-0.691,0.711,0.195
42.235,-0.689,0.713,0.193
42.245,-0.689,0.713,0.191
42.254,-0.686,0.711,0.193
42.264,-0.686,0.715,0.191
42.274,-0.684,0.711,0.193
42.284,-0.684,0.715,0.193
42.294,-0.689,0.717,0.191
42.304,-0.686,0.715,0.193
42.314,-0.688,0.711,0.195
42.324,-0.688,0.713,0.195
42.334,-0.688,0.711,0.195
42.344,-0.691,0.711,0.195
42.354,-0.689,0.707,0.195
42.364,-0.689,0.707,0.199
42.374,-0.689,0.707,0.195
42.384,-0.691,0.707,0.193
42.393,-0.688,0.709,0.199
42.403,-0.689,0.707,0.199
42.413,-0.691,0.707,0.197
42.423,-0.691,0.707,0.201
42.433,-0.693,0.703,0.199
42.443,-0.699,0.707,0.197
42.453,-0.697,0.707,0.195
42.463,-0.695,0.707,0.193
42.473,-0.695,0.707,0.195
42.483,-0.695,0.707,0.195
42.493,-0.695,0.703,0.193
42.503,-0.691,0.705,0.195
42.513,-0.689,0.707,0.193
42.522,-0.691,0.711,0.193
42.532,-0.689,0.715,0.197
42.542,-0.689,0.711,0.195
42.552,-0.689,0.713,0.197
42.562,-0.689,0.713,0.193
42.572,-0.691,0.711,0.197
42.582,-0.691,0.711,0.197
42.592,-0.691,0.713,0.197
42.602,-0.688,0.709,0.197
42.612,-0.693,0.709,0.199
42.622,-0.689,0.711,0.197
42.632,-0.689,0.707,0.197
42.642,-0.691,0.709,0.195
42.651,-0.691,0.707,0.195
42.661,-0.695,0.705,0.199
42.671,-0.691,0.707,0.195
42.681,-0.689,0.703,0.193
42.691,-0.689,0.703,0.195
42.701,-0.689,0.709,0.193
42.711,-0.689,0.707,0.197
42.721,-0.689,0.711,0.195
42.731,-0.688,0.711,0.197
42.741,-0.689,0.713,0.199
42.751,-0.689,0.715,0.195
42.761,-0.686,0.713,0.195
42.771,-0.686,0.713,0.195
42.781,-0.688,0.713,0.193
42.790,-0.688,0.713,0.195
42.800,-0.689,0.715,0.197
42.810,-0.691,0.711,0.193
42.820,-0.689,0.709,0.199
42.830,-0.688,0.715,0.197
42.840,-0.684,0.713,0.195
42.850,-0.688,0.711,0.197
42.860,-0.686,0.709,0.193
42.870,-0.684,0.707,0.195
42.880,-0.684,0.707,0.197
42.890,-0.686,0.713,0.197
42.900,-0.684,0.715,0.197
42.910,-0.688,0.717,0.195
42.919,-0.689,0.717,0.195
42.929,-0.689,0.717,0.195
42.939,-0.688,0.717,0.195
42.949,-0.686,0.713,0.195
42.959,-0.686,0.715,0.193
42.969,-0.686,0.713,0.201
42.979,-0.684,0.711,0.195
42.989,-0.686,0.713,0.199
42.999,-0.688,0.717,0.195
43.009,-0.688,0.713,0.197
43.019,-0.688,0.713,0.197
43.029,-0.686,0.713,0.195
43.039,-0.689,0.709,0.193
43.048,-0.689,0.711,0.197
43.058,-0.689,0.715,0.191
43.068,-0.688,0.707,0.197
43.078,-0.691,0.713,0.195
43.088,-0.693,0.711,0.191
43.098,-0.688,0.713,0.195
43.108,-0.688,0.715,0.195
43.118,-0.689,0.713,0.195
43.128,-0.688,0.711,0.195
43.138,-0.688,0.709,0.195
43.148,-0.689,0.711,0.195
43.158,-0.691,0.711,0.197
43.168,-0.689,0.709,0.195
43.177,-0.691,0.709,0.193
43.187,-0.691,0.707,0.197
43.197,-0.695,0.707,0.199
43.207,-0.697,0.705,0.199
43.217,-0.695,0.707,0.197
43.227,-0.691,0.709,0.195
43.237,-0.693,0.707,0.197
43.247,-0.693,0.707,0.197
43.257,-0.695,0.705,0.197
43.267,-0.695,0.703,0.199
43.277,-0.697,0.705,0.203
43.287,-0.695,0.709,0.199
43.297,-0.697,0.703,0.197
43.307,-0.699,0.705,0.197
43.316,-0.699,0.707,0.193
43.326,-0.699,0.707,0.199
43.336,-0.699,0.707,0.197
43.346,-0.699,0.703,0.195
43.356,-0.697,0.701,0.195
43.366,-0.699,0.703,0.195
43.376,-0.693,0.705,0.199
43.386,-0.693,0.707,0.199
43.396,-0.693,0.711,0.197
43.406,-0.689,0.707,0.199
43.416,-0.688,0.711,0.197
43.426,-0.689,0.713,0.201
43.436,-0.688,0.707,0.199
43.445,-0.688,0.707,0.199
43.455,-0.688,0.703,0.201
43.465,-0.693,0.711,0.197
43.475,-0.691,0.709,0.195
43.485,-0.693,0.713,0.197
43.495,-0.695,0.709,0.197
43.505,-0.693,0.711,0.195
43.515,-0.693,0.707,0.193
43.525,-0.691,0.705,0.197
43.535,-0.693,0.703,0.199
43.545,-0.686,0.707,0.197
43.555,-0.688,0.709,0.197
43.565,-0.686,0.711,0.197
43.574,-0.688,0.713,0.199
43.584,-0.684,0.711,0.195
43.594,-0.688,0.713,0.199
43.604,-0.689,0.715,0.197
43.614,-0.689,0.713,0.197
43.624,-0.689,0.713,0.197
43.634,-0.688,0.711,0.199
43.644,-0.688,0.707,0.197
43.654,-0.689,0.707,0.199
43.664,-0.693,0.705,0.197
43.674,-0.697,0.707,0.197
43.684,-0.695,0.707,0.199
43.694,-0.691,0.711,0.201
43.703,-0.693,0.713,0.199
43.713,-0.689,0.705,0.195
43.723,-0.686,0.709,0.199
43.733,-0.686,0.709,0.199
43.743,-0.686,0.713,0.197
43.753,-0.686,0.711,0.197
43.763,-0.686,0.713,0.199
43.773,-0.682,0.717,0.195
43.783,-0.684,0.719,0.195
43.793,-0.684,0.721,0.195
43.803,-0.686,0.721,0.195
43.813,-0.684,0.717,0.195
43.823,-0.682,0.715,0.197
43.833,-0.682,0.713,0.197
43.842,-0.682,0.711,0.195
43.852,-0.684,0.715,0.199
43.862,-0.684,0.713,0.197
43.872,-0.684,0.715,0.197
43.882,-0.684,0.711,0.197
43.892,-0.686,0.711,0.195
43.902,-0.684,0.713,0.193
43.912,-0.688,0.711,0.193
43.922,-0.688,0.713,0.195
43.932,-0.689,0.713,0.197
43.942,-0.688,0.711,0.193
43.952,-0.689,0.717,0.193
43.962,-0.686,0.713,0.191
43.971,-0.688,0.715,0.195
43.981,-0.686,0.715,0.191
43.991,-0.684,0.715,0.191
44.001,-0.688,0.713,0.193
44.011,-0.686,0.717,0.195
44.021,-0.688,0.711,0.191
44.031,-0.686,0.713,0.189
44.041,-0.689,0.711,0.195
44.051,-0.691,0.707,0.193
44.061,-0.689,0.711,0.193
44.071,-0.691,0.711,0.197
44.081,-0.691,0.707,0.195
44.091,-0.689,0.705,0.197
44.100,-0.691,0.709,0.197
44.110,-0.693,0.707,0.195
44.120,-0.691,0.707,0.195
44.130,-0.693,0.711,0.197
44.140,-0.695,0.709,0.195
44.150,-0.691,0.707,0.193
44.160,-0.693,0.711,0.197
44.170,-0.693,0.711,0.197
44.180,-0.695,0.709,0.197
44.190,-0.691,0.709,0.197
44.200,-0.693,0.711,0.193
44.210,-0.689,0.711,0.195
44.220,-0.691,0.713,0.197
44.230,-0.691,0.709,0.197
44.239,-0.691,0.707,0.195
44.249,-0.689,0.713,0.197
44.259,-0.691,0.713,0.199
44.269,-0.689,0.715,0.195
44.279,-0.686,0.713,0.195
44.289,-0.686,0.715,0.195
44.299,-0.686,0.715,0.199
44.309,-0.682,0.717,0.197
44.319,-0.686,0.711,0.195
44.329,-0.684,0.715,0.195
44.339,-0.686,0.713,0.199
44.349,-0.684,0.713,0.199
44.359,-0.688,0.713,0.199
44.368,-0.686,0.713,0.193
44.378,-0.686,0.713,0.195
44.388,-0.686,0.715,0.193
44.398,-0.686,0.713,0.197
44.408,-0.689,0.709,0.195
44.418,-0.686,0.709,0.195
44.428,-0.686,0.711,0.197
44.438,-0.686,0.713,0.199
44.448,-0.686,0.711,0.197
44.458,-0.684,0.715,0.199
44.468,-0.688,0.715,0.199
44.478,-0.684,0.717,0.199
44.488,-0.682,0.715,0.197
44.497,-0.684,0.713,0.197
44.507,-0.686,0.713,0.201
44.517,-0.686,0.717,0.197
44.527,-0.682,0.713,0.195
44.537,-0.686,0.713,0.195
44.547,-0.688,0.715,0.197
44.557,-0.686,0.715,0.199
44.567,-0.684,0.717,0.199
44.577,-0.684,0.717,0.199
44.587,-0.684,0.713,0.199
44.597,-0.682,0.711,0.201
44.607,-0.686,0.711,0.197
44.617,-0.684,0.711,0.199
44.626,-0.682,0.713,0.197
44.636,-0.686,0.711,0.199
44.646,-0.688,0.713,0.195
44.656,-0.691,0.715,0.199
44.666,-0.691,0.715,0.201
44.676,-0.691,0.711,0.199
44.686,-0.691,0.713,0.197
44.696,-0.689,0.711,0.197
44.706,-0.688,0.711,0.199
44.716,-0.686,0.709,0.199
44.726,-0.686,0.713,0.197
44.736,-0.686,0.711,0.199
44.746,-0.686,0.713,0.199
44.756,-0.688,0.709,0.197
44.765,-0.689,0.711,0.199
44.775,-0.689,0.707,0.195
44.785,-0.693,0.709,0.199
44.795,-0.689,0.707,0.199
44.805,-0.693,0.707,0.197
44.815,-0.693,0.709,0.195
44.825,-0.697,0.709,0.199
44.835,-0.697,0.709,0.197
44.845,-0.693,0.707,0.197
44.855,-0.695,0.707,0.197
44.865,-0.693,0.707,0.197
44.875,-0.689,0.707,0.197
44.885,-0.693,0.707,0.201
44.894,-0.689,0.707,0.193
44.904,-0.689,0.707,0.195
44.914,-0.693,0.707,0.197
44.924,-0.697,0.705,0.197
44.934,-0.695,0.707,0.201
44.944,-0.697,0.705,0.197
44.954,-0.699,0.703,0.195
44.964,-0.697,0.703,0.201
44.974,-0.701,0.703,0.199
44.984,-0.699,0.703,0.199
44.994,-0.699,0.705,0.195
45.004,-0.697,0.703,0.197
45.014,-0.695,0.705,0.201
45.023,-0.697,0.701,0.199
45.033,-0.695,0.705,0.201
45.043,-0.695,0.703,0.195
45.053,-0.697,0.701,0.197
45.063,-0.695,0.703,0.195
45.073,-0.695,0.705,0.199
45.083,-0.699,0.707,0.199
45.093,-0.699,0.705,0.197
45.103,-0.699,0.707,0.197
45.113,-0.693,0.707,0.197
45.123,-0.695,0.709,0.199
45.133,-0.693,0.707,0.195
45.143,-0.693,0.707,0.195
45.153,-0.691,0.709,0.197
45.162,-0.689,0.709,0.197
45.172,-0.689,0.709,0.201
45.182,-0.689,0.713,0.199
45.192,-0.688,0.711,0.199
45.202,-0.689,0.711,0.199
45.212,-0.689,0.709,0.197
45.222,-0.688,0.707,0.199
45.232,-0.689,0.709,0.195
45.242,-0.693,0.711,0.203
45.252,-0.695,0.707,0.199
45.262,-0.699,0.711,0.199
45.272,-0.695,0.711,0.195
45.282,-0.695,0.711,0.197
45.291,-0.695,0.709,0.201
45.301,-0.695,0.707,0.195
45.311,-0.691,0.705,0.199
45.321,-0.691,0.707,0.197
45.331,-0.689,0.705,0.193
45.341,-0.684,0.709,0.199
45.351,-0.688,0.707,0.199
45.361,-0.688,0.709,0.197
45.371,-0.688,0.711,0.199
45.381,-0.689,0.709,0.199
45.391,-0.686,0.709,0.195
45.401,-0.688,0.713,0.199
45.411,-0.691,0.713,0.197
45.420,-0.693,0.711,0.197
45.430,-0.689,0.711,0.195
45.440,-0.695,0.713,0.197
45.450,-0.691,0.711,0.197
45.460,-0.691,0.707,0.197
45.470,-0.691,0.709,0.201
45.480,-0.689,0.713,0.201
45.490,-0.688,0.707,0.199
45.500,-0.688,0.709,0.197
45.510,-0.684,0.711,0.201
45.520,-0.688,0.711,0.199
45.530,-0.688,0.709,0.197
45.540,-0.688,0.711,0.197
45.549,-0.691,0.711,0.199
45.559,-0.688,0.711,0.201
45.569,-0.691,0.713,0.197
45.579,-0.691,0.711,0.197
45.589,-0.689,0.715,0.195
45.599,-0.688,0.709,0.195
45.609,-0.688,0.713,0.195
45.619,-0.688,0.711,0.195
45.629,-0.688,0.711,0.201
45.639,-0.686,0.707,0.197
45.649,-0.688,0.711,0.197
45.659,-0.689,0.711,0.199
45.669,-0.689,0.711,0.199
45.679,-0.691,0.709,0.197
45.688,-0.691,0.707,0.197
45.698,-0.691,0.711,0.199
45.708,-0.689,0.709,0.193
45.718,-0.691,0.709,0.197
45.728,-0.688,0.711,0.197
45.738,-0.688,0.713,0.195
45.748,-0.691,0.715,0.195
45.758,-0.689,0.713,0.193
45.768,-0.689,0.715,0.199
45.778,-0.688,0.711,0.195
45.788,-0.686,0.711,0.193
45.798,-0.688,0.713,0.193
45.808,-0.688,0.711,0.195
45.817,-0.688,0.711,0.197
45.827,-0.688,0.711,0.197
45.837,-0.691,0.709,0.195
45.847,-0.689,0.711,0.199
45.857,-0.691,0.709,0.195
45.867,-0.691,0.713,0.199
45.877,-0.693,0.711,0.201
45.887,-0.691,0.709,0.197
45.897,-0.691,0.711,0.195
45.907,-0.691,0.709,0.197
45.917,-0.693,0.709,0.197
45.927,-0.691,0.707,0.199
45.937,-0.689,0.707,0.199
45.946,-0.693,0.707,0.199
45.956,-0.691,0.711,0.197
45.966,-0.693,0.711,0.199
45.976,-0.691,0.709,0.197
45.986,-0.693,0.707,0.193
45.996,-0.693,0.707,0.197
46.006,-0.691,0.713,0.197
46.016,-0.691,0.709,0.195
46.026,-0.689,0.709,0.193
46.036,-0.688,0.707,0.193
46.046,-0.688,0.711,0.193
46.056,-0.686,0.709,0.195
46.066,-0.688,0.711,0.195
46.075,-0.688,0.717,0.197
46.085,-0.684,0.713,0.193
46.095,-0.686,0.715,0.199
46.105,-0.686,0.715,0.201
46.115,-0.689,0.713,0.197
46.125,-0.689,0.713,0.195
46.135,-0.688,0.709,0.195
46.145,-0.691,0.713,0.197
46.155,-0.688,0.713,0.197
46.165,-0.691,0.713,0.199
46.175,-0.688,0.709,0.199
46.185,-0.689,0.711,0.197
46.195,-0.689,0.707,0.197
46.205,-0.689,0.707,0.195
46.214,-0.689,0.705,0.197
46.224,-0.691,0.707,0.197
46.234,-0.688,0.705,0.195
46.244,-0.693,0.709,0.199
46.254,-0.691,0.709,0.195
46.264,-0.693,0.711,0.195
46.274,-0.693,0.711,0.195
46.284,-0.695,0.711,0.193
46.294,-0.693,0.711,0.195
46.304,-0.693,0.711,0.193
46.314,-0.691,0.711,0.197
46.324,-0.693,0.713,0.193
46.334,-0.697,0.713,0.193
46.343,-0.693,0.711,0.195
46.353,-0.691,0.713,0.193
46.363,-0.691,0.709,0.195
46.373,-0.689,0.711,0.201
46.383,-0.688,0.717,0.199
46.393,-0.686,0.711,0.197
46.403,-0.682,0.707,0.199
46.413,-0.684,0.707,0.195
46.423,-0.688,0.707,0.199
46.433,-0.688,0.703,0.197
46.443,-0.686,0.711,0.197
46.453,-0.689,0.711,0.197
46.463,-0.691,0.713,0.197
46.472,-0.691,0.715,0.201
46.482,-0.691,0.711,0.199
46.492,-0.693,0.711,0.197
46.502,-0.693,0.707,0.199
46.512,-0.688,0.709,0.199
46.522,-0.691,0.709,0.199
46.532,-0.689,0.709,0.199
46.542,-0.689,0.709,0.201
46.552,-0.688,0.711,0.197
46.562,-0.689,0.709,0.201
46.572,-0.689,0.709,0.201
46.582,-0.688,0.707,0.203
46.592,-0.691,0.705,0.197
46.602,-0.691,0.707,0.201
46.611,-0.695,0.709,0.199
46.621,-0.695,0.705,0.201
46.631,-0.695,0.707,0.201
46.641,-0.695,0.707,0.199
46.651,-0.695,0.709,0.199
46.661,-0.693,0.709,0.195
46.671,-0.691,0.709,0.199
46.681,-0.691,0.707,0.201
46.691,-0.693,0.707,0.199
46.701,-0.688,0.709,0.203
46.711,-0.689,0.707,0.203
46.721,-0.693,0.705,0.197
46.731,-0.693,0.707,0.201
46.740,-0.691,0.709,0.199
46.750,-0.693,0.707,0.201
46.760,-0.695,0.711,0.201
46.770,-0.693,0.705,0.201
46.780,-0.693,0.705,0.201
46.790,-0.691,0.707,0.201
46.800,-0.693,0.705,0.203
46.810,-0.691,0.707,0.201
46.820,-0.691,0.707,0.203
46.830,-0.688,0.705,0.201
46.840,-0.689,0.703,0.203
46.850,-0.689,0.703,0.201
46.860,-0.691,0.703,0.201
46.869,-0.691,0.705,0.201
46.879,-0.693,0.709,0.203
46.889,-0.695,0.709,0.199
46.899,-0.693,0.709,0.201
46.909,-0.693,0.711,0.199
46.919,-0.695,0.711,0.199
46.929,-0.693,0.709,0.201
46.939,-0.695,0.707,0.199
46.949,-0.691,0.707,0.199
46.959,-0.689,0.705,0.199
46.969,-0.691,0.709,0.195
46.979,-0.688,0.709,0.199
46.989,-0.689,0.711,0.201
46.998,-0.689,0.709,0.199
47.008,-0.689,0.705,0.203
47.018,-0.689,0.707,0.199
47.028,-0.693,0.707,0.203
47.038,-0.693,0.707,0.201
47.048,-0.697,0.705,0.199
47.058,-0.695,0.709,0.197
47.068,-0.695,0.707,0.197
47.078,-0.693,0.709,0.197
47.088,-0.693,0.707,0.199
47.098,-0.695,0.705,0.195
47.108,-0.695,0.705,0.197
47.118,-0.688,0.705,0.197
47.128,-0.691,0.705,0.199
47.137,-0.693,0.709,0.199
47.147,-0.691,0.707,0.199
47.157,-0.688,0.711,0.201
47.167,-0.693,0.709,0.199
47.177,-0.693,0.709,0.203
47.187,-0.693,0.707,0.201
47.197,-0.693,0.707,0.203
47.207,-0.691,0.707,0.199
47.217,-0.693,0.707,0.199
47.227,-0.693,0.709,0.197
47.237,-0.693,0.713,0.199
47.247,-0.697,0.711,0.199
47.257,-0.693,0.709,0.199
47.266,-0.691,0.711,0.201
47.276,-0.688,0.715,0.201
47.286,-0.688,0.705,0.203
47.296,-0.686,0.707,0.201
47.306,-0.686,0.707,0.197
47.316,-0.688,0.711,0.201
47.326,-0.688,0.707,0.203
47.336,-0.688,0.709,0.201
47.346,-0.689,0.711,0.203
47.356,-0.691,0.715,0.201
47.366,-0.689,0.711,0.201
47.376,-0.693,0.709,0.203
47.386,-0.691,0.713,0.199
47.395,-0.689,0.709,0.201
47.405,-0.686,0.709,0.203
47.415,-0.691,0.707,0.203
47.425,-0.688,0.713,0.201
47.435,-0.688,0.711,0.201
47.445,-0.688,0.715,0.201
47.455,-0.688,0.713,0.197
47.465,-0.688,0.713,0.201
47.475,-0.688,0.705,0.199
47.485,-0.689,0.707,0.197
47.495,-0.689,0.711,0.199
47.505,-0.693,0.711,0.201
47.515,-0.695,0.711,0.201
47.524,-0.691,0.713,0.201
47.534,-0.689,0.711,0.201
47.544,-0.691,0.713,0.199
47.554,-0.689,0.713,0.197
47.564,-0.689,0.709,0.197
47.574,-0.688,0.711,0.197
47.584,-0.689,0.707,0.197
47.594,-0.691,0.713,0.199
47.604,-0.691,0.711,0.201
47.614,-0.691,0.713,0.197
47.624,-0.693,0.711,0.199
47.634,-0.693,0.713,0.197
47.644,-0.695,0.707,0.197
47.654,-0.695,0.703,0.199
47.663,-0.695,0.707,0.201
47.673,-0.693,0.711,0.203
47.683,-0.693,0.711,0.197
47.693,-0.693,0.711,0.201
47.703,-0.689,0.709,0.199
47.713,-0.691,0.709,0.197
47.723,-0.689,0.709,0.199
47.733,-0.684,0.709,0.201
47.743,-0.684,0.705,0.203
47.753,-0.682,0.709,0.199
47.763,-0.686,0.711,0.197
47.773,-0.684,0.711,0.195
47.783,-0.684,0.713,0.195
47.792,-0.688,0.711,0.195
47.802,-0.688,0.713,0.195
47.812,-0.688,0.713,0.197
47.822,-0.684,0.715,0.195
47.832,-0.682,0.715,0.197
47.842,-0.684,0.715,0.193
47.852,-0.684,0.719,0.195
47.862,-0.680,0.717,0.195
47.872,-0.678,0.717,0.195
47.882,-0.676,0.723,0.197
47.892,-0.676,0.721,0.197
47.902,-0.674,0.725,0.199
47.912,-0.676,0.725,0.199
47.921,-0.676,0.723,0.195
47.931,-0.678,0.719,0.193
47.941,-0.678,0.721,0.195
47.951,-0.680,0.719,0.195
47.961,-0.682,0.721,0.193
47.971,-0.682,0.721,0.197
47.981,-0.682,0.721,0.199
47.991,-0.680,0.721,0.201
48.001,-0.680,0.721,0.197
48.011,-0.678,0.719,0.195
48.021,-0.678,0.721,0.197
48.031,-0.676,0.717,0.199
48.041,-0.674,0.719,0.195
48.051,-0.674,0.721,0.195
48.060,-0.674,0.721,0.195
48.070,-0.674,0.725,0.197
48.080,-0.672,0.725,0.195
48.090,-0.674,0.725,0.199
48.100,-0.672,0.729,0.193
48.110,-0.672,0.721,0.195
48.120,-0.674,0.723,0.191
48.130,-0.670,0.727,0.197
48.140,-0.670,0.727,0.195
48.150,-0.668,0.725,0.197
48.160,-0.672,0.729,0.197
48.170,-0.670,0.729,0.193
48.180,-0.670,0.730,0.199
48.189,-0.670,0.732,0.195
48.199,-0.670,0.727,0.193
48.209,-0.664,0.723,0.197
48.219,-0.670,0.719,0.193
48.229,-0.670,0.721,0.189
48.239,-0.670,0.727,0.193
48.249,-0.672,0.729,0.197
48.259,-0.676,0.727,0.191
48.269,-0.674,0.729,0.193
48.279,-0.674,0.730,0.195
48.289,-0.672,0.729,0.193
48.299,-0.676,0.727,0.195
48.309,-0.674,0.727,0.193
48.318,-0.670,0.725,0.193
48.328,-0.672,0.727,0.193
48.338,-0.666,0.729,0.193
48.348,-0.672,0.725,0.195
48.358,-0.668,0.727,0.191
48.368,-0.672,0.727,0.193
48.378,-0.678,0.727,0.195
48.388,-0.674,0.725,0.193
48.398,-0.674,0.723,0.195
48.408,-0.676,0.725,0.193
48.418,-0.680,0.725,0.195
48.428,-0.674,0.727,0.193
48.438,-0.676,0.721,0.195
48.447,-0.678,0.725,0.193
48.457,-0.676,0.725,0.195
48.467,-0.678,0.721,0.197
48.477,-0.676,0.723,0.195
48.487,-0.680,0.721,0.191
48.497,-0.676,0.723,0.197
48.507,-0.676,0.719,0.197
48.517,-0.680,0.721,0.199
48.527,-0.676,0.719,0.193
48.537,-0.680,0.719,0.197
48.547,-0.676,0.719,0.197
48.557,-0.676,0.717,0.195
48.567,-0.674,0.717,0.197
48.577,-0.676,0.719,0.195
48.586,-0.680,0.721,0.197
48.596,-0.680,0.721,0.195
48.606,-0.680,0.719,0.197
48.616,-0.682,0.721,0.197
48.626,-0.682,0.719,0.197
48.636,-0.686,0.721,0.199
48.646,-0.682,0.719,0.197
48.656,-0.682,0.721,0.197
48.666,-0.680,0.719,0.197
48.676,-0.676,0.717,0.199
48.686,-0.680,0.717,0.195
48.696,-0.678,0.717,0.197
48.706,-0.678,0.719,0.197
48.715,-0.676,0.719,0.195
48.725,-0.674,0.721,0.195
48.735,-0.678,0.723,0.197
48.745,-0.678,0.723,0.195
48.755,-0.676,0.723,0.195
48.765,-0.672,0.725,0.197
48.775,-0.670,0.725,0.197
48.785,-0.672,0.723,0.197
48.795,-0.676,0.723,0.197
48.805,-0.672,0.727,0.195
48.815,-0.674,0.729,0.197
48.825,-0.674,0.727,0.197
48.835,-0.674,0.727,0.197
48.844,-0.674,0.721,0.195
48.854,-0.676,0.725,0.195
48.864,-0.676,0.725,0.193
48.874,-0.674,0.721,0.193
48.884,-0.674,0.723,0.193
48.894,-0.672,0.721,0.193
48.904,-0.672,0.723,0.193
48.914,-0.672,0.725,0.195
48.924,-0.670,0.723,0.191
48.934,-0.670,0.730,0.191
48.944,-0.672,0.730,0.195
48.954,-0.670,0.729,0.193
48.964,-0.670,0.727,0.193
48.973,-0.672,0.727,0.193
48.983,-0.670,0.727,0.193
48.993,-0.672,0.729,0.193
49.003,-0.672,0.729,0.197
49.013,-0.676,0.727,0.195
49.023,-0.674,0.723,0.195
49.033,-0.670,0.727,0.199
49.043,-0.672,0.730,0.197
49.053,-0.672,0.725,0.195
49.063,-0.664,0.721,0.197
49.073,-0.666,0.719,0.199
49.083,-0.670,0.725,0.197
49.093,-0.672,0.723,0.197
49.103,-0.674,0.721,0.197
49.112,-0.674,0.725,0.197
49.122,-0.678,0.725,0.195
49.132,-0.678,0.727,0.193
49.142,-0.678,0.729,0.195
49.152,-0.678,0.725,0.193
49.162,-0.680,0.725,0.193
49.172,-0.678,0.723,0.197
49.182,-0.676,0.721,0.191
49.192,-0.674,0.727,0.197
49.202,-0.674,0.725,0.195
49.212,-0.676,0.725,0.199
49.222,-0.676,0.725,0.197
49.232,-0.676,0.725,0.193
49.241,-0.676,0.723,0.197
49.251,-0.676,0.721,0.197
49.261,-0.676,0.719,0.195
49.271,-0.678,0.717,0.197
49.281,-0.680,0.721,0.193
49.291,-0.674,0.719,0.199
49.301,-0.680,0.721,0.195
49.311,-0.678,0.721,0.195
49.321,-0.676,0.721,0.195
49.331,-0.674,0.723,0.195
49.341,-0.676,0.721,0.197
49.351,-0.676,0.723,0.197
49.361,-0.676,0.723,0.193
49.370,-0.676,0.721,0.197
49.380,-0.676,0.723,0.199
49.390,-0.678,0.723,0.199
49.400,-0.678,0.723,0.197
49.410,-0.676,0.721,0.197
49.420,-0.678,0.721,0.199
49.430,-0.680,0.721,0.197
49.440,-0.680,0.719,0.195
49.450,-0.678,0.719,0.199
49.460,-0.680,0.721,0.197
49.470,-0.680,0.719,0.195
49.480,-0.680,0.717,0.199
49.490,-0.682,0.719,0.199
49.500,-0.682,0.719,0.197
49.509,-0.682,0.717,0.195
49.519,-0.682,0.719,0.197
49.529,-0.682,0.719,0.195
49.539,-0.684,0.719,0.199
49.549,-0.684,0.719,0.195
49.559,-0.684,0.719,0.195
49.569,-0.684,0.717,0.195
49.579,-0.684,0.721,0.193
49.589,-0.684,0.717,0.195
49.599,-0.682,0.721,0.193
49.609,-0.682,0.721,0.193
49.619,-0.678,0.719,0.195
49.629,-0.678,0.723,0.193
49.638,-0.678,0.723,0.193
49.648,-0.676,0.721,0.193
49.658,-0.676,0.725,0.195
49.668,-0.676,0.723,0.193
49.678,-0.676,0.721,0.191
49.688,-0.674,0.723,0.193
49.698,-0.672,0.721,0.193
49.708,-0.678,0.721,0.193
49.718,-0.678,0.723,0.189
49.728,-0.680,0.723,0.193
49.738,-0.680,0.721,0.191
49.748,-0.682,0.719,0.193
49.758,-0.680,0.719,0.193
49.767,-0.678,0.717,0.191
49.777,-0.678,0.717,0.191
49.787,-0.676,0.719,0.191
49.797,-0.674,0.719,0.191
49.807,-0.678,0.721,0.193
49.817,-0.678,0.725,0.195
49.827,-0.678,0.723,0.193
49.837,-0.678,0.721,0.189
49.847,-0.676,0.721,0.193
49.857,-0.680,0.721,0.193
49.867,-0.680,0.723,0.197
49.877,-0.678,0.723,0.193
49.887,-0.680,0.721,0.195
49.896,-0.682,0.719,0.193
49.906,-0.678,0.721,0.193
49.916,-0.680,0.719,0.195
49.926,-0.680,0.721,0.195
49.936,-0.678,0.727,0.201
49.946,-0.676,0.723,0.195
49.956,-0.672,0.719,0.197
49.966,-0.674,0.719,0.195
49.976,-0.674,0.721,0.197
49.986,-0.678,0.721,0.199
49.996,-0.676,0.721,0.197
50.006,-0.676,0.725,0.195
50.016,-0.676,0.723,0.197
50.026,-0.672,0.725,0.193
50.035,-0.676,0.725,0.195
50.045,-0.672,0.727,0.193
50.055,-0.672,0.725,0.195
50.065,-0.676,0.725,0.193
50.075,-0.672,0.723,0.197
50.085,-0.670,0.723,0.195
50.095,-0.670,0.727,0.197
50.105,-0.670,0.725,0.197
50.115,-0.672,0.725,0.199
50.125,-0.674,0.723,0.199
50.135,-0.672,0.721,0.195
50.145,-0.674,0.721,0.197
50.155,-0.676,0.723,0.199
50.164,-0.678,0.721,0.197
50.174,-0.676,0.721,0.197
50.184,-0.678,0.721,0.199
50.194,-0.680,0.723,0.199
50.204,-0.678,0.723,0.199
50.214,-0.678,0.721,0.199
50.224,-0.678,0.723,0.197
50.234,-0.676,0.725,0.201
50.244,-0.676,0.719,0.199
50.254,-0.676,0.721,0.203
50.264,-0.678,0.723,0.199
50.274,-0.678,0.723,0.201
50.284,-0.674,0.719,0.197
50.293,-0.678,0.719,0.199
50.303,-0.678,0.717,0.201
50.313,-0.682,0.717,0.197
50.323,-0.682,0.717,0.203
50.333,-0.680,0.717,0.203
50.343,-0.684,0.719,0.199
50.353,-0.684,0.717,0.203
50.363,-0.682,0.717,0.203
50.373,-0.678,0.717,0.201
50.383,-0.678,0.719,0.201
50.393,-0.680,0.717,0.203
50.403,-0.684,0.713,0.203
50.413,-0.680,0.719,0.205
50.422,-0.680,0.715,0.203
50.432,-0.682,0.715,0.201
50.442,-0.680,0.717,0.197
50.452,-0.682,0.717,0.201
50.462,-0.682,0.717,0.199
50.472,-0.684,0.715,0.199
50.482,-0.684,0.717,0.197
50.492,-0.682,0.717,0.199
50.502,-0.684,0.717,0.197
50.512,-0.684,0.719,0.197
50.522,-0.678,0.717,0.197
50.532,-0.680,0.721,0.199
50.542,-0.678,0.721,0.195
50.552,-0.680,0.723,0.199
50.561,-0.676,0.725,0.199
50.571,-0.674,0.725,0.199
50.581,-0.672,0.723,0.197
50.591,-0.676,0.723,0.199
50.601,-0.676,0.721,0.199
50.611,-0.674,0.719,0.201
50.621,-0.676,0.721,0.199
50.631,-0.682,0.721,0.195
50.641,-0.684,0.721,0.195
50.651,-0.682,0.721,0.199
50.661,-0.684,0.723,0.193
50.671,-0.686,0.723,0.195
50.681,-0.682,0.721,0.195
50.690,-0.680,0.719,0.195
50.700,-0.676,0.715,0.199
50.710,-0.676,0.717,0.193
50.720,-0.672,0.721,0.197
50.730,-0.674,0.725,0.195
50.740,-0.672,0.727,0.199
50.750,-0.674,0.729,0.195
50.760,-0.674,0.727,0.197
50.770,-0.676,0.721,0.195
50.780,-0.678,0.721,0.197
50.790,-0.678,0.725,0.197
50.800,-0.676,0.721,0.193
50.810,-0.676,0.727,0.197
50.819,-0.674,0.727,0.199
50.829,-0.676,0.729,0.197
50.839,-0.674,0.727,0.197
50.849,-0.666,0.725,0.197
50.859,-0.666,0.729,0.199
50.869,-0.664,0.729,0.199
50.879,-0.666,0.723,0.199
50.889,-0.664,0.721,0.197
50.899,-0.670,0.719,0.197
50.909,-0.672,0.723,0.199
50.919,-0.676,0.725,0.199
50.929,-0.678,0.723,0.193
50.939,-0.676,0.723,0.195
50.949,-0.678,0.725,0.197
50.958,-0.678,0.727,0.199
50.968,-0.678,0.725,0.193
50.978,-0.676,0.727,0.197
50.988,-0.674,0.723,0.195
50.998,-0.674,0.727,0.193
51.008,-0.672,0.729,0.197
51.018,-0.672,0.727,0.195
51.028,-0.668,0.725,0.195
51.038,-0.672,0.727,0.195
51.048,-0.672,0.725,0.197
51.058,-0.674,0.727,0.193
51.068,-0.676,0.723,0.191
51.078,-0.678,0.727,0.191
51.087,-0.678,0.725,0.195
51.097,-0.676,0.729,0.193
51.107,-0.676,0.725,0.197
51.117,-0.676,0.727,0.193
51.127,-0.674,0.729,0.193
51.137,-0.672,0.727,0.193
51.147,-0.670,0.729,0.195
51.157,-0.668,0.730,0.197
51.167,-0.668,0.727,0.193
51.177,-0.670,0.725,0.195
51.187,-0.668,0.725,0.197
51.197,-0.668,0.727,0.197
