df_hash,22ZHK4.BZ66S1
device,HZ2X61
project_hash,29R7
project_name,istanbul_aydin_university
person_hash,29R7.L1ZD
person_label,V10
date_time_start,2025-05-22_10-16-55.154000_+03
date_time_start_unix,1747898215.154
date_time_end,2025-05-22_10-24-39.213000_+03
length_difference_noticed,no

time,acc_x,acc_y,acc_z
4.929,-0.803,0.586,0.168
4.939,-0.803,0.578,0.162
4.949,-0.805,0.580,0.162
4.959,-0.809,0.586,0.166
4.969,-0.811,0.590,0.168
4.979,-0.811,0.588,0.164
4.989,-0.811,0.588,0.166
4.999,-0.809,0.586,0.164
5.009,-0.807,0.584,0.162
5.019,-0.809,0.586,0.164
5.028,-0.809,0.584,0.160
5.038,-0.809,0.584,0.162
5.048,-0.811,0.586,0.160
5.058,-0.811,0.588,0.164
5.068,-0.809,0.590,0.164
5.078,-0.807,0.588,0.160
5.088,-0.801,0.588,0.162
5.098,-0.803,0.588,0.164
5.108,-0.805,0.586,0.164
5.118,-0.809,0.582,0.164
5.128,-0.807,0.586,0.162
5.138,-0.807,0.588,0.166
5.148,-0.807,0.588,0.164
5.157,-0.809,0.592,0.162
5.167,-0.807,0.592,0.160
5.177,-0.803,0.590,0.162
5.187,-0.805,0.586,0.162
5.197,-0.805,0.588,0.158
5.207,-0.805,0.586,0.164
5.217,-0.805,0.586,0.164
5.227,-0.809,0.588,0.160
5.237,-0.807,0.582,0.164
5.247,-0.807,0.586,0.162
5.257,-0.805,0.590,0.160
5.267,-0.809,0.590,0.160
5.276,-0.807,0.590,0.164
5.286,-0.807,0.586,0.160
5.296,-0.807,0.588,0.162
5.306,-0.805,0.590,0.158
5.316,-0.803,0.590,0.162
5.326,-0.807,0.588,0.162
5.336,-0.805,0.588,0.164
5.346,-0.805,0.588,0.168
5.356,-0.807,0.590,0.162
5.366,-0.809,0.584,0.162
5.376,-0.809,0.584,0.164
5.386,-0.809,0.582,0.160
5.396,-0.807,0.584,0.164
5.405,-0.807,0.580,0.160
5.415,-0.805,0.580,0.160
5.425,-0.809,0.586,0.162
5.435,-0.809,0.588,0.156
5.445,-0.811,0.592,0.156
5.455,-0.811,0.590,0.160
5.465,-0.812,0.586,0.156
5.475,-0.811,0.584,0.156
5.485,-0.812,0.584,0.158
5.495,-0.812,0.580,0.160
5.505,-0.811,0.580,0.162
5.515,-0.812,0.582,0.158
5.524,-0.814,0.582,0.160
5.534,-0.814,0.580,0.162
5.544,-0.811,0.582,0.162
5.554,-0.814,0.582,0.162
5.564,-0.812,0.584,0.168
5.574,-0.818,0.580,0.162
5.584,-0.812,0.580,0.162
5.594,-0.811,0.582,0.168
5.604,-0.807,0.578,0.170
5.614,-0.807,0.578,0.168
5.624,-0.807,0.582,0.166
5.634,-0.807,0.582,0.166
5.644,-0.807,0.580,0.162
5.653,-0.811,0.580,0.160
5.663,-0.812,0.580,0.166
5.673,-0.816,0.582,0.168
5.683,-0.820,0.586,0.168
5.693,-0.818,0.578,0.164
5.703,-0.816,0.580,0.166
5.713,-0.816,0.580,0.166
5.723,-0.818,0.578,0.168
5.733,-0.816,0.572,0.166
5.743,-0.818,0.570,0.160
5.753,-0.812,0.572,0.162
5.763,-0.814,0.574,0.162
5.772,-0.816,0.576,0.164
5.782,-0.816,0.578,0.160
5.792,-0.818,0.582,0.158
5.802,-0.814,0.580,0.164
5.812,-0.811,0.582,0.162
5.822,-0.816,0.584,0.160
5.832,-0.812,0.582,0.160
5.842,-0.812,0.584,0.166
5.852,-0.814,0.588,0.164
5.862,-0.812,0.586,0.160
5.872,-0.811,0.582,0.162
5.882,-0.807,0.576,0.156
5.892,-0.807,0.578,0.160
5.901,-0.809,0.582,0.160
5.911,-0.812,0.584,0.160
5.921,-0.811,0.584,0.162
5.931,-0.811,0.584,0.158
5.941,-0.811,0.584,0.160
5.951,-0.809,0.580,0.158
5.961,-0.811,0.584,0.160
5.971,-0.811,0.578,0.158
5.981,-0.814,0.578,0.160
5.991,-0.812,0.582,0.158
6.001,-0.811,0.584,0.160
6.011,-0.811,0.580,0.162
6.020,-0.812,0.580,0.160
6.030,-0.811,0.586,0.164
6.040,-0.809,0.586,0.164
6.050,-0.809,0.580,0.162
6.060,-0.809,0.582,0.162
6.070,-0.809,0.584,0.162
6.080,-0.811,0.578,0.162
6.090,-0.811,0.576,0.162
6.100,-0.811,0.578,0.156
6.110,-0.816,0.576,0.160
6.120,-0.814,0.574,0.160
6.130,-0.816,0.580,0.162
6.140,-0.816,0.578,0.162
6.149,-0.818,0.576,0.160
6.159,-0.814,0.580,0.160
6.169,-0.814,0.576,0.158
6.179,-0.814,0.572,0.156
6.189,-0.811,0.576,0.158
6.199,-0.814,0.576,0.162
6.209,-0.816,0.578,0.158
6.219,-0.816,0.576,0.160
6.229,-0.816,0.576,0.160
6.239,-0.820,0.576,0.160
6.249,-0.822,0.578,0.158
6.259,-0.822,0.578,0.160
6.268,-0.820,0.576,0.162
6.278,-0.820,0.576,0.158
6.288,-0.818,0.574,0.166
6.298,-0.816,0.572,0.164
6.308,-0.820,0.574,0.160
6.318,-0.820,0.572,0.158
6.328,-0.818,0.574,0.162
6.338,-0.816,0.572,0.164
6.348,-0.820,0.578,0.162
6.358,-0.818,0.576,0.162
6.368,-0.820,0.576,0.166
6.378,-0.820,0.580,0.162
6.388,-0.820,0.576,0.164
6.397,-0.816,0.574,0.168
6.407,-0.814,0.570,0.164
6.417,-0.816,0.570,0.166
6.427,-0.816,0.568,0.164
6.437,-0.818,0.570,0.166
6.447,-0.820,0.566,0.162
6.457,-0.820,0.566,0.162
6.467,-0.818,0.570,0.164
6.477,-0.818,0.572,0.164
6.487,-0.818,0.576,0.162
6.497,-0.814,0.576,0.160
6.507,-0.816,0.576,0.164
6.516,-0.814,0.576,0.160
6.526,-0.814,0.572,0.160
6.536,-0.812,0.580,0.164
6.546,-0.816,0.578,0.164
6.556,-0.812,0.578,0.160
6.566,-0.811,0.574,0.160
6.576,-0.814,0.574,0.162
6.586,-0.814,0.578,0.158
6.596,-0.814,0.576,0.156
6.606,-0.818,0.578,0.156
6.616,-0.816,0.578,0.160
6.626,-0.818,0.576,0.158
6.636,-0.816,0.576,0.160
6.645,-0.812,0.580,0.158
6.655,-0.814,0.574,0.160
6.665,-0.816,0.576,0.160
6.675,-0.818,0.572,0.158
6.685,-0.816,0.574,0.160
6.695,-0.818,0.576,0.158
6.705,-0.820,0.576,0.156
6.715,-0.818,0.578,0.158
6.725,-0.816,0.578,0.162
6.735,-0.818,0.580,0.162
6.745,-0.818,0.576,0.158
6.755,-0.818,0.576,0.156
6.764,-0.818,0.574,0.158
6.774,-0.816,0.576,0.158
6.784,-0.816,0.574,0.158
6.794,-0.814,0.572,0.158
6.804,-0.818,0.574,0.160
6.814,-0.820,0.572,0.160
6.824,-0.818,0.574,0.158
6.834,-0.818,0.572,0.160
6.844,-0.818,0.570,0.158
6.854,-0.814,0.566,0.160
6.864,-0.818,0.568,0.158
6.874,-0.822,0.568,0.158
6.884,-0.820,0.568,0.162
6.893,-0.822,0.570,0.158
6.903,-0.824,0.570,0.162
6.913,-0.822,0.572,0.162
6.923,-0.824,0.574,0.160
6.933,-0.822,0.574,0.158
6.943,-0.820,0.570,0.162
6.953,-0.822,0.568,0.162
6.963,-0.822,0.570,0.164
6.973,-0.820,0.566,0.166
6.983,-0.820,0.566,0.166
6.993,-0.818,0.566,0.164
7.003,-0.822,0.570,0.164
7.012,-0.822,0.566,0.164
7.022,-0.822,0.562,0.160
7.032,-0.828,0.566,0.162
7.042,-0.830,0.566,0.162
7.052,-0.826,0.564,0.162
7.062,-0.824,0.568,0.162
7.072,-0.826,0.566,0.166
7.082,-0.826,0.568,0.168
7.092,-0.824,0.566,0.166
7.102,-0.826,0.562,0.166
7.112,-0.826,0.562,0.166
7.122,-0.824,0.564,0.162
7.132,-0.824,0.564,0.164
7.141,-0.826,0.566,0.166
7.151,-0.826,0.562,0.164
7.161,-0.824,0.566,0.166
7.171,-0.822,0.570,0.168
7.181,-0.820,0.570,0.166
7.191,-0.820,0.566,0.170
7.201,-0.822,0.570,0.166
7.211,-0.820,0.568,0.170
7.221,-0.818,0.566,0.168
7.231,-0.820,0.572,0.170
7.241,-0.818,0.568,0.172
7.251,-0.818,0.566,0.170
7.261,-0.816,0.562,0.170
7.270,-0.820,0.561,0.168
7.280,-0.828,0.564,0.170
7.290,-0.828,0.559,0.172
7.300,-0.832,0.559,0.170
7.310,-0.838,0.553,0.162
7.320,-0.842,0.555,0.162
7.330,-0.840,0.555,0.160
7.340,-0.838,0.559,0.160
7.350,-0.836,0.561,0.160
7.360,-0.832,0.566,0.158
7.370,-0.830,0.566,0.162
7.380,-0.832,0.566,0.164
7.389,-0.826,0.564,0.162
7.399,-0.826,0.562,0.164
7.409,-0.824,0.562,0.160
7.419,-0.820,0.564,0.164
7.429,-0.820,0.562,0.162
7.439,-0.818,0.564,0.164
7.449,-0.814,0.566,0.162
7.459,-0.816,0.566,0.162
7.469,-0.816,0.570,0.164
7.479,-0.816,0.568,0.166
7.489,-0.818,0.572,0.168
7.499,-0.820,0.568,0.168
7.509,-0.820,0.568,0.168
7.518,-0.822,0.566,0.166
7.528,-0.822,0.564,0.166
7.538,-0.820,0.564,0.168
7.548,-0.820,0.564,0.168
7.558,-0.820,0.562,0.170
7.568,-0.818,0.564,0.170
7.578,-0.814,0.566,0.170
7.588,-0.814,0.562,0.172
7.598,-0.814,0.561,0.168
7.608,-0.812,0.561,0.172
7.618,-0.816,0.564,0.172
7.628,-0.818,0.564,0.170
7.637,-0.818,0.566,0.168
7.647,-0.824,0.566,0.170
7.657,-0.824,0.562,0.168
7.667,-0.824,0.562,0.168
7.677,-0.828,0.566,0.170
7.687,-0.828,0.562,0.168
7.697,-0.832,0.559,0.166
7.707,-0.836,0.561,0.166
7.717,-0.836,0.562,0.166
7.727,-0.828,0.559,0.174
7.737,-0.826,0.557,0.176
7.747,-0.832,0.557,0.166
7.757,-0.830,0.551,0.168
7.766,-0.830,0.553,0.168
7.776,-0.828,0.557,0.168
7.786,-0.830,0.559,0.164
7.796,-0.830,0.561,0.166
7.806,-0.836,0.559,0.162
7.816,-0.830,0.559,0.166
7.826,-0.832,0.559,0.164
7.836,-0.830,0.557,0.162
7.846,-0.834,0.553,0.160
7.856,-0.830,0.553,0.168
7.866,-0.834,0.551,0.164
7.876,-0.838,0.551,0.164
7.885,-0.834,0.551,0.166
7.895,-0.838,0.553,0.170
7.905,-0.836,0.555,0.170
7.915,-0.834,0.557,0.170
7.925,-0.834,0.557,0.168
7.935,-0.836,0.551,0.170
7.945,-0.836,0.551,0.170
7.955,-0.838,0.545,0.168
7.965,-0.836,0.549,0.174
7.975,-0.834,0.551,0.172
7.985,-0.836,0.553,0.174
7.995,-0.834,0.553,0.168
8.005,-0.830,0.549,0.172
8.014,-0.830,0.549,0.170
8.024,-0.832,0.553,0.168
8.034,-0.830,0.555,0.172
8.044,-0.830,0.551,0.168
8.054,-0.832,0.555,0.170
8.064,-0.830,0.555,0.166
8.074,-0.836,0.555,0.170
8.084,-0.834,0.555,0.162
8.094,-0.832,0.555,0.168
8.104,-0.834,0.553,0.164
8.114,-0.838,0.551,0.162
8.124,-0.838,0.553,0.166
8.133,-0.836,0.553,0.162
8.143,-0.838,0.557,0.164
8.153,-0.834,0.555,0.166
8.163,-0.834,0.557,0.164
8.173,-0.830,0.555,0.164
8.183,-0.834,0.551,0.166
8.193,-0.832,0.551,0.158
8.203,-0.830,0.553,0.162
8.213,-0.834,0.557,0.164
8.223,-0.832,0.557,0.162
8.233,-0.834,0.559,0.158
8.243,-0.834,0.557,0.160
8.253,-0.832,0.559,0.162
8.262,-0.830,0.555,0.158
8.272,-0.826,0.559,0.162
8.282,-0.832,0.555,0.162
8.292,-0.830,0.557,0.164
8.302,-0.830,0.559,0.162
8.312,-0.830,0.557,0.168
8.322,-0.830,0.559,0.164
8.332,-0.832,0.559,0.168
8.342,-0.830,0.553,0.168
8.352,-0.828,0.551,0.168
8.362,-0.830,0.549,0.168
8.372,-0.834,0.555,0.166
8.381,-0.838,0.555,0.168
8.391,-0.840,0.559,0.174
8.401,-0.840,0.562,0.172
8.411,-0.840,0.562,0.174
8.421,-0.838,0.561,0.180
8.431,-0.836,0.559,0.178
8.441,-0.836,0.549,0.176
8.451,-0.838,0.549,0.176
8.461,-0.840,0.549,0.174
8.471,-0.840,0.549,0.174
8.481,-0.846,0.562,0.186
8.491,-0.857,0.570,0.186
8.501,-0.854,0.564,0.182
8.510,-0.846,0.551,0.182
8.520,-0.826,0.533,0.172
8.530,-0.812,0.535,0.166
8.540,-0.814,0.555,0.170
8.550,-0.828,0.584,0.176
8.560,-0.838,0.605,0.180
8.570,-0.836,0.600,0.176
8.580,-0.834,0.586,0.176
8.590,-0.828,0.568,0.172
8.600,-0.820,0.555,0.170
8.610,-0.814,0.547,0.168
8.620,-0.812,0.545,0.166
8.629,-0.816,0.549,0.168
8.639,-0.824,0.553,0.160
8.649,-0.820,0.545,0.158
8.659,-0.820,0.549,0.154
8.669,-0.820,0.553,0.146
8.679,-0.830,0.553,0.146
8.689,-0.830,0.555,0.145
8.699,-0.834,0.555,0.145
8.709,-0.840,0.561,0.139
8.719,-0.840,0.555,0.135
8.729,-0.840,0.555,0.137
8.739,-0.834,0.572,0.141
8.749,-0.832,0.584,0.150
8.758,-0.836,0.584,0.145
8.768,-0.836,0.578,0.146
8.778,-0.836,0.568,0.139
8.788,-0.836,0.566,0.137
8.798,-0.834,0.566,0.137
8.808,-0.834,0.568,0.137
8.818,-0.834,0.570,0.135
8.828,-0.828,0.570,0.131
8.838,-0.822,0.572,0.125
8.848,-0.818,0.570,0.121
8.858,-0.814,0.566,0.115
8.868,-0.807,0.566,0.111
8.877,-0.809,0.570,0.113
8.887,-0.812,0.570,0.109
8.897,-0.820,0.570,0.105
8.907,-0.816,0.566,0.104
8.917,-0.818,0.572,0.104
8.927,-0.816,0.568,0.098
8.937,-0.811,0.572,0.092
8.947,-0.812,0.576,0.092
8.957,-0.811,0.576,0.084
8.967,-0.807,0.564,0.076
8.977,-0.812,0.568,0.080
8.987,-0.811,0.580,0.080
8.997,-0.812,0.582,0.076
9.006,-0.820,0.590,0.076
9.016,-0.822,0.588,0.074
9.026,-0.816,0.584,0.072
9.036,-0.820,0.582,0.074
9.046,-0.818,0.584,0.070
9.056,-0.820,0.584,0.070
9.066,-0.820,0.588,0.064
9.076,-0.816,0.580,0.059
9.086,-0.809,0.580,0.057
9.096,-0.814,0.582,0.059
9.106,-0.816,0.586,0.059
9.116,-0.820,0.596,0.057
9.125,-0.818,0.596,0.061
9.135,-0.818,0.596,0.061
9.145,-0.812,0.592,0.061
9.155,-0.809,0.586,0.062
9.165,-0.801,0.588,0.062
9.175,-0.809,0.598,0.066
9.185,-0.805,0.611,0.070
9.195,-0.797,0.613,0.072
9.205,-0.799,0.607,0.072
9.215,-0.803,0.602,0.066
9.225,-0.803,0.596,0.070
9.235,-0.801,0.604,0.068
9.245,-0.799,0.604,0.072
9.254,-0.801,0.607,0.074
9.264,-0.803,0.615,0.080
9.274,-0.805,0.613,0.086
9.284,-0.805,0.609,0.084
9.294,-0.807,0.604,0.084
9.304,-0.795,0.598,0.086
9.314,-0.791,0.600,0.088
9.324,-0.785,0.600,0.088
9.334,-0.783,0.598,0.094
9.344,-0.787,0.604,0.096
9.354,-0.789,0.598,0.096
9.364,-0.793,0.598,0.102
9.373,-0.801,0.598,0.100
9.383,-0.807,0.594,0.094
9.393,-0.809,0.588,0.102
9.403,-0.807,0.592,0.105
9.413,-0.811,0.592,0.107
9.423,-0.807,0.580,0.107
9.433,-0.801,0.574,0.104
9.443,-0.795,0.574,0.098
9.453,-0.793,0.574,0.100
9.463,-0.805,0.582,0.104
9.473,-0.809,0.588,0.102
9.483,-0.809,0.584,0.098
9.493,-0.809,0.578,0.098
9.502,-0.812,0.586,0.104
9.512,-0.814,0.580,0.105
9.522,-0.826,0.568,0.107
9.532,-0.830,0.561,0.102
9.542,-0.832,0.549,0.100
9.552,-0.840,0.541,0.100
9.562,-0.848,0.520,0.088
9.572,-0.854,0.518,0.088
9.582,-0.865,0.523,0.090
9.592,-0.873,0.527,0.094
9.602,-0.869,0.531,0.096
9.612,-0.867,0.535,0.098
9.621,-0.869,0.527,0.094
9.631,-0.869,0.525,0.086
9.641,-0.869,0.529,0.088
9.651,-0.867,0.529,0.082
9.661,-0.863,0.518,0.082
9.671,-0.867,0.520,0.080
9.681,-0.867,0.525,0.082
9.691,-0.877,0.529,0.086
9.701,-0.887,0.531,0.084
9.711,-0.883,0.535,0.088
9.721,-0.879,0.541,0.092
9.731,-0.871,0.535,0.092
9.741,-0.869,0.527,0.080
9.750,-0.865,0.525,0.078
9.760,-0.865,0.518,0.072
9.770,-0.865,0.523,0.070
9.780,-0.855,0.529,0.068
9.790,-0.852,0.529,0.068
9.800,-0.848,0.531,0.059
9.810,-0.846,0.531,0.051
9.820,-0.850,0.539,0.051
9.830,-0.852,0.543,0.049
9.840,-0.859,0.541,0.043
9.850,-0.865,0.545,0.045
9.860,-0.863,0.547,0.041
9.870,-0.861,0.541,0.043
9.879,-0.857,0.545,0.039
9.889,-0.852,0.543,0.039
9.899,-0.846,0.543,0.033
9.909,-0.842,0.549,0.033
9.919,-0.838,0.551,0.031
9.929,-0.838,0.561,0.033
9.939,-0.846,0.572,0.037
9.949,-0.842,0.574,0.037
9.959,-0.840,0.568,0.037
9.969,-0.840,0.570,0.037
9.979,-0.834,0.568,0.039
9.989,-0.836,0.578,0.043
9.998,-0.832,0.582,0.051
10.008,-0.832,0.584,0.057
10.018,-0.826,0.582,0.059
10.028,-0.818,0.566,0.059
10.038,-0.824,0.564,0.061
10.048,-0.832,0.561,0.064
10.058,-0.832,0.557,0.066
10.068,-0.832,0.549,0.072
10.078,-0.838,0.543,0.070
10.088,-0.842,0.537,0.068
10.098,-0.846,0.531,0.064
10.108,-0.846,0.535,0.062
10.118,-0.848,0.553,0.074
10.127,-0.844,0.572,0.088
10.137,-0.846,0.588,0.100
10.147,-0.840,0.564,0.096
10.157,-0.826,0.535,0.086
10.167,-0.816,0.525,0.070
10.177,-0.799,0.521,0.057
10.187,-0.795,0.521,0.049
10.197,-0.809,0.543,0.045
10.207,-0.828,0.553,0.035
10.217,-0.842,0.559,0.037
10.227,-0.850,0.588,0.047
10.237,-0.857,0.617,0.062
10.246,-0.854,0.621,0.078
10.256,-0.857,0.615,0.080
10.266,-0.834,0.547,0.053
10.276,-0.805,0.504,0.039
10.286,-0.799,0.557,0.053
10.296,-0.812,0.600,0.061
10.306,-0.832,0.602,0.061
10.316,-0.854,0.607,0.064
10.326,-0.871,0.623,0.072
10.336,-0.881,0.635,0.082
10.346,-0.873,0.615,0.084
10.356,-0.850,0.570,0.068
10.366,-0.826,0.553,0.064
10.375,-0.822,0.572,0.070
10.385,-0.830,0.574,0.070
10.395,-0.836,0.580,0.076
10.405,-0.828,0.609,0.088
10.415,-0.818,0.627,0.104
10.425,-0.812,0.619,0.111
10.435,-0.812,0.617,0.109
10.445,-0.801,0.605,0.113
10.455,-0.787,0.590,0.119
10.465,-0.771,0.588,0.115
10.475,-0.764,0.594,0.113
10.485,-0.766,0.596,0.117
10.494,-0.773,0.586,0.111
10.504,-0.779,0.576,0.105
10.514,-0.777,0.574,0.102
10.524,-0.771,0.588,0.104
10.534,-0.766,0.600,0.105
10.544,-0.764,0.605,0.100
10.554,-0.756,0.602,0.100
10.564,-0.752,0.598,0.096
10.574,-0.754,0.594,0.094
10.584,-0.750,0.588,0.086
10.594,-0.756,0.582,0.084
10.604,-0.758,0.574,0.080
10.614,-0.775,0.574,0.082
10.623,-0.797,0.576,0.084
10.633,-0.824,0.566,0.086
10.643,-0.844,0.557,0.086
10.653,-0.852,0.533,0.082
10.663,-0.844,0.518,0.088
10.673,-0.838,0.523,0.098
10.683,-0.832,0.516,0.092
10.693,-0.832,0.508,0.102
10.703,-0.838,0.506,0.107
10.713,-0.867,0.504,0.109
10.723,-0.895,0.492,0.109
10.733,-0.918,0.463,0.104
10.742,-0.941,0.449,0.107
10.752,-0.961,0.447,0.115
10.762,-0.965,0.443,0.119
10.772,-0.967,0.430,0.127
10.782,-0.971,0.418,0.133
10.792,-0.965,0.412,0.137
10.802,-0.965,0.410,0.141
10.812,-0.963,0.408,0.146
10.822,-0.959,0.402,0.150
10.832,-0.959,0.391,0.146
10.842,-0.963,0.377,0.150
10.852,-0.961,0.371,0.152
10.862,-0.965,0.375,0.150
10.871,-0.965,0.383,0.150
10.881,-0.959,0.379,0.154
10.891,-0.957,0.385,0.148
10.901,-0.949,0.385,0.152
10.911,-0.949,0.381,0.143
10.921,-0.945,0.377,0.137
10.931,-0.938,0.381,0.135
10.941,-0.945,0.393,0.131
10.951,-0.947,0.391,0.123
10.961,-0.949,0.395,0.117
10.971,-0.943,0.408,0.119
10.981,-0.938,0.420,0.117
10.990,-0.936,0.422,0.119
11.000,-0.930,0.434,0.123
11.010,-0.922,0.434,0.121
11.020,-0.924,0.432,0.121
11.030,-0.924,0.430,0.119
11.040,-0.918,0.428,0.117
11.050,-0.914,0.424,0.119
11.060,-0.914,0.430,0.119
11.070,-0.922,0.436,0.121
11.080,-0.922,0.439,0.119
11.090,-0.918,0.434,0.121
11.100,-0.920,0.432,0.117
11.110,-0.920,0.436,0.113
11.119,-0.924,0.432,0.117
11.129,-0.934,0.443,0.113
11.139,-0.939,0.449,0.117
11.149,-0.930,0.445,0.119
11.159,-0.928,0.439,0.117
11.169,-0.926,0.439,0.119
11.179,-0.920,0.436,0.115
11.189,-0.918,0.438,0.119
11.199,-0.918,0.439,0.119
11.209,-0.912,0.438,0.119
11.219,-0.910,0.443,0.119
11.229,-0.908,0.443,0.123
11.238,-0.906,0.449,0.119
11.248,-0.900,0.453,0.125
11.258,-0.904,0.461,0.129
11.268,-0.904,0.459,0.133
11.278,-0.902,0.459,0.131
11.288,-0.898,0.449,0.135
11.298,-0.896,0.451,0.137
11.308,-0.898,0.451,0.133
11.318,-0.896,0.441,0.135
11.328,-0.898,0.443,0.131
11.338,-0.898,0.439,0.125
11.348,-0.906,0.438,0.133
11.358,-0.912,0.439,0.135
11.367,-0.908,0.447,0.133
11.377,-0.908,0.453,0.137
11.387,-0.906,0.453,0.139
11.397,-0.902,0.449,0.143
11.407,-0.908,0.445,0.141
11.417,-0.906,0.445,0.143
11.427,-0.904,0.443,0.148
11.437,-0.906,0.443,0.145
11.447,-0.906,0.439,0.146
11.457,-0.906,0.434,0.145
11.467,-0.906,0.436,0.146
11.477,-0.910,0.436,0.146
11.486,-0.912,0.436,0.145
11.496,-0.912,0.434,0.143
11.506,-0.916,0.432,0.143
11.516,-0.920,0.432,0.145
11.526,-0.920,0.432,0.141
11.536,-0.920,0.434,0.141
11.546,-0.912,0.434,0.141
11.556,-0.914,0.436,0.141
11.566,-0.910,0.438,0.143
11.576,-0.910,0.445,0.143
11.586,-0.910,0.447,0.139
11.596,-0.908,0.447,0.143
11.606,-0.910,0.445,0.141
11.615,-0.908,0.443,0.141
11.625,-0.910,0.441,0.139
11.635,-0.908,0.445,0.141
11.645,-0.910,0.445,0.141
11.655,-0.912,0.449,0.139
11.665,-0.908,0.445,0.143
11.675,-0.902,0.447,0.145
11.685,-0.908,0.443,0.143
11.695,-0.906,0.441,0.139
11.705,-0.904,0.441,0.141
11.715,-0.908,0.438,0.139
11.725,-0.908,0.439,0.137
11.734,-0.908,0.443,0.143
11.744,-0.910,0.445,0.141
11.754,-0.912,0.447,0.139
11.764,-0.912,0.447,0.141
11.774,-0.910,0.447,0.143
11.784,-0.908,0.449,0.143
11.794,-0.906,0.449,0.145
11.804,-0.906,0.445,0.143
11.814,-0.906,0.445,0.145
11.824,-0.908,0.445,0.145
11.834,-0.906,0.447,0.143
11.844,-0.904,0.447,0.139
11.854,-0.904,0.445,0.143
11.863,-0.906,0.445,0.137
11.873,-0.906,0.443,0.143
11.883,-0.906,0.445,0.143
11.893,-0.908,0.445,0.141
11.903,-0.906,0.443,0.141
11.913,-0.908,0.449,0.145
11.923,-0.906,0.455,0.145
11.933,-0.904,0.449,0.146
11.943,-0.904,0.436,0.139
11.953,-0.898,0.441,0.141
11.963,-0.900,0.443,0.146
11.973,-0.906,0.441,0.143
11.982,-0.912,0.445,0.143
11.992,-0.912,0.441,0.145
12.002,-0.912,0.447,0.146
12.012,-0.914,0.445,0.150
12.022,-0.912,0.439,0.148
12.032,-0.912,0.439,0.148
12.042,-0.908,0.441,0.145
12.052,-0.910,0.439,0.148
12.062,-0.912,0.439,0.150
12.072,-0.914,0.443,0.148
12.082,-0.916,0.439,0.150
12.092,-0.914,0.436,0.148
12.102,-0.908,0.439,0.154
12.111,-0.912,0.439,0.150
12.121,-0.912,0.439,0.154
12.131,-0.912,0.445,0.152
12.141,-0.910,0.441,0.152
12.151,-0.910,0.441,0.154
12.161,-0.910,0.441,0.154
12.171,-0.908,0.439,0.150
12.181,-0.908,0.436,0.150
12.191,-0.910,0.441,0.150
12.201,-0.908,0.443,0.148
12.211,-0.908,0.438,0.150
12.221,-0.910,0.451,0.152
12.230,-0.910,0.449,0.154
12.240,-0.914,0.445,0.152
12.250,-0.916,0.441,0.150
12.260,-0.912,0.441,0.150
12.270,-0.908,0.438,0.158
12.280,-0.908,0.438,0.156
12.290,-0.908,0.439,0.156
12.300,-0.910,0.443,0.156
12.310,-0.904,0.441,0.158
12.320,-0.902,0.443,0.156
12.330,-0.904,0.443,0.158
12.340,-0.906,0.445,0.156
12.350,-0.904,0.441,0.158
12.359,-0.902,0.443,0.160
12.369,-0.904,0.447,0.162
12.379,-0.900,0.449,0.164
12.389,-0.900,0.451,0.156
12.399,-0.896,0.449,0.160
12.409,-0.900,0.455,0.160
12.419,-0.902,0.449,0.158
12.429,-0.902,0.445,0.158
12.439,-0.902,0.443,0.156
12.449,-0.900,0.445,0.156
12.459,-0.900,0.449,0.162
12.469,-0.898,0.447,0.162
12.479,-0.902,0.451,0.158
12.488,-0.902,0.453,0.162
12.498,-0.900,0.451,0.160
12.508,-0.902,0.453,0.162
12.518,-0.904,0.457,0.164
12.528,-0.902,0.451,0.166
12.538,-0.900,0.443,0.164
12.548,-0.904,0.441,0.160
12.558,-0.902,0.443,0.160
12.568,-0.902,0.447,0.162
12.578,-0.908,0.447,0.164
12.588,-0.908,0.445,0.162
12.598,-0.910,0.441,0.162
12.607,-0.906,0.445,0.160
12.617,-0.908,0.441,0.160
12.627,-0.906,0.443,0.162
12.637,-0.908,0.443,0.162
12.647,-0.906,0.443,0.160
12.657,-0.902,0.445,0.160
12.667,-0.906,0.443,0.158
12.677,-0.906,0.443,0.162
12.687,-0.902,0.441,0.160
12.697,-0.904,0.443,0.162
12.707,-0.904,0.445,0.162
12.717,-0.904,0.443,0.160
12.727,-0.904,0.449,0.156
12.736,-0.904,0.451,0.156
12.746,-0.904,0.453,0.158
12.756,-0.902,0.451,0.160
12.766,-0.902,0.449,0.162
12.776,-0.904,0.447,0.160
12.786,-0.906,0.447,0.156
12.796,-0.906,0.445,0.162
12.806,-0.902,0.445,0.160
12.816,-0.904,0.445,0.162
12.826,-0.912,0.443,0.158
12.836,-0.912,0.443,0.160
12.846,-0.906,0.445,0.158
12.855,-0.900,0.439,0.164
12.865,-0.900,0.441,0.164
12.875,-0.906,0.443,0.156
12.885,-0.902,0.439,0.162
12.895,-0.904,0.441,0.160
12.905,-0.908,0.445,0.160
12.915,-0.912,0.445,0.164
12.925,-0.912,0.443,0.164
12.935,-0.912,0.445,0.162
12.945,-0.912,0.445,0.160
12.955,-0.908,0.447,0.162
12.965,-0.908,0.443,0.160
12.975,-0.904,0.445,0.160
12.984,-0.902,0.445,0.158
12.994,-0.908,0.441,0.160
13.004,-0.906,0.439,0.154
13.014,-0.902,0.438,0.160
13.024,-0.908,0.443,0.164
13.034,-0.906,0.447,0.158
13.044,-0.904,0.445,0.158
13.054,-0.904,0.443,0.160
13.064,-0.904,0.447,0.156
13.074,-0.908,0.447,0.158
13.084,-0.904,0.447,0.162
13.094,-0.902,0.449,0.162
13.103,-0.904,0.455,0.164
13.113,-0.902,0.449,0.162
13.123,-0.893,0.441,0.156
13.133,-0.896,0.441,0.156
13.143,-0.898,0.447,0.158
13.153,-0.902,0.445,0.162
13.163,-0.902,0.449,0.160
13.173,-0.902,0.449,0.160
13.183,-0.902,0.445,0.162
13.193,-0.904,0.445,0.158
13.203,-0.904,0.445,0.162
13.213,-0.906,0.441,0.162
13.223,-0.908,0.438,0.156
13.232,-0.908,0.441,0.156
13.242,-0.908,0.439,0.160
13.252,-0.908,0.441,0.162
13.262,-0.912,0.443,0.160
13.272,-0.908,0.441,0.162
13.282,-0.908,0.445,0.162
13.292,-0.912,0.443,0.158
13.302,-0.908,0.441,0.162
13.312,-0.912,0.443,0.160
13.322,-0.912,0.439,0.160
13.332,-0.910,0.443,0.160
13.342,-0.912,0.443,0.162
13.351,-0.910,0.445,0.164
13.361,-0.910,0.439,0.160
13.371,-0.906,0.439,0.162
13.381,-0.906,0.438,0.160
13.391,-0.906,0.443,0.158
13.401,-0.908,0.441,0.162
13.411,-0.914,0.439,0.162
13.421,-0.906,0.443,0.160
13.431,-0.902,0.439,0.158
13.441,-0.904,0.438,0.162
13.451,-0.904,0.439,0.162
13.461,-0.906,0.443,0.162
13.471,-0.906,0.439,0.160
13.480,-0.908,0.438,0.158
13.490,-0.910,0.441,0.164
13.500,-0.912,0.443,0.166
13.510,-0.910,0.445,0.160
13.520,-0.914,0.443,0.162
13.530,-0.910,0.441,0.162
13.540,-0.912,0.438,0.158
13.550,-0.910,0.436,0.164
13.560,-0.908,0.438,0.162
13.570,-0.912,0.434,0.162
13.580,-0.906,0.432,0.160
13.590,-0.912,0.434,0.158
13.599,-0.916,0.432,0.164
13.609,-0.914,0.430,0.160
13.619,-0.914,0.434,0.164
13.629,-0.912,0.434,0.166
13.639,-0.912,0.432,0.160
13.649,-0.916,0.434,0.166
13.659,-0.918,0.434,0.160
13.669,-0.914,0.436,0.164
13.679,-0.916,0.438,0.164
13.689,-0.916,0.439,0.162
13.699,-0.910,0.434,0.162
13.709,-0.908,0.426,0.162
13.719,-0.908,0.430,0.160
13.728,-0.910,0.434,0.160
13.738,-0.912,0.436,0.166
13.748,-0.912,0.438,0.164
13.758,-0.916,0.439,0.162
13.768,-0.910,0.434,0.166
13.778,-0.912,0.434,0.166
13.788,-0.912,0.432,0.162
13.798,-0.912,0.432,0.164
13.808,-0.912,0.434,0.164
13.818,-0.910,0.432,0.168
13.828,-0.914,0.432,0.166
13.838,-0.908,0.434,0.166
13.847,-0.910,0.432,0.164
13.857,-0.912,0.430,0.166
13.867,-0.914,0.432,0.164
13.877,-0.916,0.432,0.164
13.887,-0.914,0.436,0.162
13.897,-0.910,0.432,0.162
13.907,-0.912,0.434,0.162
13.917,-0.912,0.434,0.164
13.927,-0.906,0.430,0.162
13.937,-0.910,0.434,0.164
13.947,-0.912,0.432,0.166
13.957,-0.914,0.434,0.162
13.967,-0.912,0.432,0.164
13.976,-0.912,0.432,0.162
13.986,-0.914,0.432,0.162
13.996,-0.918,0.430,0.164
14.006,-0.920,0.434,0.160
14.016,-0.910,0.438,0.162
14.026,-0.904,0.426,0.170
14.036,-0.910,0.426,0.166
14.046,-0.912,0.432,0.164
14.056,-0.914,0.434,0.164
14.066,-0.912,0.426,0.164
14.076,-0.918,0.430,0.162
14.086,-0.922,0.434,0.168
14.095,-0.920,0.436,0.166
14.105,-0.918,0.432,0.164
14.115,-0.918,0.428,0.166
14.125,-0.912,0.422,0.162
14.135,-0.914,0.424,0.166
14.145,-0.912,0.426,0.160
14.155,-0.914,0.424,0.164
14.165,-0.916,0.420,0.166
14.175,-0.920,0.422,0.168
14.185,-0.918,0.426,0.164
14.195,-0.916,0.428,0.168
14.205,-0.914,0.426,0.166
14.215,-0.914,0.426,0.164
14.224,-0.912,0.432,0.164
14.234,-0.912,0.428,0.168
14.244,-0.912,0.428,0.162
14.254,-0.916,0.430,0.166
14.264,-0.914,0.432,0.166
14.274,-0.912,0.439,0.166
14.284,-0.908,0.434,0.168
14.294,-0.908,0.430,0.164
14.304,-0.908,0.430,0.166
14.314,-0.908,0.430,0.170
14.324,-0.912,0.430,0.166
14.334,-0.910,0.428,0.166
14.343,-0.916,0.430,0.166
14.353,-0.914,0.432,0.166
14.363,-0.914,0.430,0.168
14.373,-0.918,0.426,0.162
14.383,-0.918,0.428,0.164
14.393,-0.920,0.424,0.164
14.403,-0.918,0.424,0.164
14.413,-0.918,0.424,0.162
14.423,-0.916,0.426,0.168
14.433,-0.916,0.428,0.166
14.443,-0.914,0.430,0.164
14.453,-0.918,0.426,0.166
14.463,-0.918,0.424,0.168
14.472,-0.916,0.426,0.164
14.482,-0.916,0.428,0.168
14.492,-0.920,0.428,0.164
14.502,-0.914,0.428,0.164
14.512,-0.918,0.426,0.162
14.522,-0.914,0.428,0.162
14.532,-0.914,0.428,0.166
14.542,-0.914,0.428,0.166
14.552,-0.912,0.424,0.160
14.562,-0.912,0.428,0.162
14.572,-0.912,0.432,0.166
14.582,-0.914,0.430,0.166
14.591,-0.916,0.428,0.166
14.601,-0.914,0.430,0.166
14.611,-0.912,0.428,0.162
14.621,-0.916,0.422,0.166
14.631,-0.918,0.426,0.166
14.641,-0.914,0.430,0.170
14.651,-0.908,0.426,0.170
14.661,-0.910,0.424,0.170
14.671,-0.912,0.426,0.168
14.681,-0.916,0.424,0.166
14.691,-0.914,0.424,0.168
14.701,-0.916,0.422,0.164
14.711,-0.920,0.430,0.166
14.720,-0.924,0.426,0.168
14.730,-0.922,0.424,0.168
14.740,-0.920,0.422,0.168
14.750,-0.920,0.422,0.168
14.760,-0.922,0.418,0.166
14.770,-0.920,0.424,0.166
14.780,-0.922,0.420,0.166
14.790,-0.920,0.424,0.170
14.800,-0.922,0.416,0.168
14.810,-0.922,0.418,0.168
14.820,-0.918,0.420,0.168
14.830,-0.916,0.424,0.168
14.839,-0.916,0.424,0.166
14.849,-0.916,0.428,0.166
14.859,-0.916,0.428,0.168
14.869,-0.916,0.432,0.162
14.879,-0.912,0.426,0.164
14.889,-0.912,0.428,0.170
14.899,-0.910,0.430,0.166
14.909,-0.912,0.428,0.166
14.919,-0.912,0.424,0.164
14.929,-0.912,0.424,0.164
14.939,-0.916,0.428,0.162
14.949,-0.916,0.426,0.168
14.959,-0.918,0.424,0.166
14.968,-0.920,0.432,0.164
14.978,-0.918,0.426,0.168
14.988,-0.914,0.424,0.168
14.998,-0.914,0.424,0.168
15.008,-0.916,0.426,0.166
15.018,-0.916,0.424,0.166
15.028,-0.916,0.428,0.168
15.038,-0.914,0.424,0.170
15.048,-0.918,0.422,0.166
15.058,-0.918,0.424,0.166
15.068,-0.918,0.426,0.162
15.078,-0.920,0.426,0.162
15.088,-0.918,0.426,0.164
15.097,-0.920,0.426,0.166
15.107,-0.918,0.426,0.166
15.117,-0.918,0.426,0.170
15.127,-0.918,0.428,0.166
15.137,-0.916,0.424,0.166
15.147,-0.916,0.422,0.166
15.157,-0.918,0.422,0.164
15.167,-0.918,0.426,0.164
15.177,-0.920,0.426,0.166
15.187,-0.914,0.426,0.164
15.197,-0.912,0.422,0.164
15.207,-0.914,0.424,0.166
15.216,-0.916,0.420,0.164
15.226,-0.914,0.422,0.168
15.236,-0.920,0.426,0.168
15.246,-0.916,0.424,0.166
15.256,-0.916,0.422,0.168
15.266,-0.920,0.422,0.168
15.276,-0.916,0.418,0.166
15.286,-0.920,0.418,0.164
15.296,-0.922,0.422,0.166
15.306,-0.916,0.422,0.170
15.316,-0.916,0.420,0.172
15.326,-0.916,0.418,0.168
15.336,-0.918,0.424,0.168
15.345,-0.920,0.420,0.166
15.355,-0.920,0.420,0.170
15.365,-0.920,0.426,0.168
15.375,-0.920,0.428,0.166
15.385,-0.922,0.424,0.166
15.395,-0.918,0.426,0.168
15.405,-0.920,0.420,0.164
15.415,-0.920,0.418,0.166
15.425,-0.922,0.418,0.166
15.435,-0.918,0.418,0.168
15.445,-0.922,0.420,0.166
15.455,-0.920,0.420,0.170
15.464,-0.922,0.422,0.170
15.474,-0.916,0.420,0.168
15.484,-0.918,0.422,0.164
15.494,-0.916,0.420,0.164
15.504,-0.912,0.420,0.170
15.514,-0.914,0.422,0.166
15.524,-0.918,0.424,0.166
15.534,-0.920,0.424,0.166
15.544,-0.920,0.422,0.168
15.554,-0.918,0.428,0.170
15.564,-0.918,0.426,0.168
15.574,-0.914,0.420,0.166
15.584,-0.912,0.416,0.166
15.593,-0.914,0.418,0.166
15.603,-0.914,0.422,0.168
15.613,-0.918,0.424,0.170
15.623,-0.918,0.422,0.166
15.633,-0.918,0.426,0.170
15.643,-0.918,0.426,0.168
15.653,-0.918,0.424,0.168
15.663,-0.916,0.420,0.164
15.673,-0.918,0.418,0.170
15.683,-0.920,0.420,0.166
15.693,-0.918,0.420,0.168
15.703,-0.918,0.422,0.164
15.712,-0.922,0.422,0.170
15.722,-0.918,0.426,0.166
15.732,-0.916,0.422,0.168
15.742,-0.916,0.424,0.166
15.752,-0.914,0.426,0.164
15.762,-0.920,0.424,0.168
15.772,-0.916,0.422,0.160
15.782,-0.918,0.416,0.162
15.792,-0.918,0.424,0.164
15.802,-0.920,0.422,0.164
15.812,-0.922,0.426,0.162
15.822,-0.920,0.424,0.164
15.832,-0.918,0.424,0.162
15.841,-0.918,0.424,0.166
15.851,-0.916,0.426,0.162
15.861,-0.916,0.426,0.164
15.871,-0.912,0.426,0.162
15.881,-0.910,0.422,0.164
15.891,-0.914,0.420,0.168
15.901,-0.916,0.424,0.164
15.911,-0.920,0.422,0.162
15.921,-0.920,0.422,0.166
15.931,-0.920,0.426,0.164
15.941,-0.918,0.422,0.164
15.951,-0.920,0.426,0.168
15.960,-0.918,0.422,0.166
15.970,-0.918,0.416,0.162
15.980,-0.920,0.420,0.166
15.990,-0.914,0.424,0.168
16.000,-0.914,0.420,0.176
16.010,-0.916,0.416,0.172
16.020,-0.920,0.424,0.170
16.030,-0.918,0.420,0.168
16.040,-0.918,0.418,0.168
16.050,-0.920,0.422,0.166
16.060,-0.916,0.422,0.166
16.070,-0.920,0.424,0.168
16.080,-0.920,0.424,0.164
16.089,-0.918,0.422,0.164
16.099,-0.920,0.418,0.164
16.109,-0.916,0.418,0.166
16.119,-0.912,0.420,0.164
16.129,-0.916,0.420,0.164
16.139,-0.916,0.420,0.160
16.149,-0.922,0.426,0.162
16.159,-0.918,0.426,0.170
16.169,-0.920,0.422,0.164
16.179,-0.920,0.424,0.164
16.189,-0.920,0.418,0.166
16.199,-0.920,0.416,0.166
16.208,-0.918,0.418,0.168
16.218,-0.924,0.422,0.166
16.228,-0.918,0.420,0.164
16.238,-0.922,0.418,0.172
16.248,-0.926,0.428,0.170
16.258,-0.920,0.426,0.166
16.268,-0.920,0.420,0.166
16.278,-0.920,0.418,0.166
16.288,-0.916,0.416,0.164
16.298,-0.916,0.420,0.170
16.308,-0.920,0.420,0.172
16.318,-0.918,0.424,0.170
16.328,-0.916,0.420,0.172
16.337,-0.918,0.420,0.170
16.347,-0.920,0.420,0.172
16.357,-0.918,0.418,0.170
16.367,-0.922,0.416,0.168
16.377,-0.918,0.416,0.172
16.387,-0.916,0.418,0.170
16.397,-0.922,0.420,0.172
16.407,-0.922,0.424,0.170
16.417,-0.922,0.422,0.168
16.427,-0.918,0.420,0.168
16.437,-0.922,0.420,0.172
16.447,-0.922,0.422,0.170
16.456,-0.922,0.418,0.170
16.466,-0.922,0.420,0.168
16.476,-0.920,0.422,0.172
16.486,-0.920,0.420,0.170
16.496,-0.920,0.418,0.168
16.506,-0.916,0.420,0.168
16.516,-0.920,0.418,0.166
16.526,-0.914,0.420,0.168
16.536,-0.916,0.422,0.164
16.546,-0.920,0.420,0.170
16.556,-0.922,0.418,0.168
16.566,-0.916,0.418,0.166
16.576,-0.918,0.422,0.166
16.585,-0.916,0.418,0.170
16.595,-0.916,0.422,0.164
16.605,-0.914,0.418,0.166
16.615,-0.918,0.418,0.168
16.625,-0.918,0.422,0.168
16.635,-0.920,0.428,0.168
16.645,-0.920,0.424,0.168
16.655,-0.918,0.424,0.170
16.665,-0.918,0.424,0.174
16.675,-0.918,0.424,0.168
16.685,-0.920,0.416,0.168
16.695,-0.920,0.420,0.168
16.704,-0.916,0.420,0.168
16.714,-0.912,0.414,0.176
16.724,-0.918,0.414,0.174
16.734,-0.918,0.416,0.170
16.744,-0.920,0.414,0.168
16.754,-0.918,0.414,0.164
16.764,-0.924,0.418,0.164
16.774,-0.924,0.420,0.170
16.784,-0.924,0.426,0.172
16.794,-0.928,0.418,0.166
16.804,-0.922,0.418,0.168
16.814,-0.920,0.418,0.168
16.824,-0.922,0.418,0.170
16.833,-0.920,0.414,0.166
16.843,-0.922,0.412,0.166
16.853,-0.924,0.414,0.168
16.863,-0.924,0.414,0.168
16.873,-0.922,0.416,0.168
16.883,-0.924,0.414,0.172
16.893,-0.922,0.416,0.172
16.903,-0.918,0.416,0.172
16.913,-0.916,0.414,0.170
16.923,-0.914,0.416,0.170
16.933,-0.918,0.420,0.170
16.943,-0.916,0.416,0.168
16.952,-0.916,0.418,0.172
16.962,-0.918,0.426,0.170
16.972,-0.920,0.420,0.170
16.982,-0.918,0.420,0.172
16.992,-0.916,0.416,0.166
17.002,-0.918,0.418,0.164
17.012,-0.916,0.414,0.170
17.022,-0.922,0.418,0.168
17.032,-0.916,0.414,0.166
17.042,-0.914,0.416,0.170
17.052,-0.922,0.418,0.170
17.062,-0.924,0.418,0.170
17.072,-0.924,0.418,0.170
17.081,-0.922,0.418,0.172
17.091,-0.924,0.418,0.172
17.101,-0.924,0.422,0.168
17.111,-0.920,0.422,0.170
17.121,-0.922,0.422,0.170
17.131,-0.922,0.420,0.170
17.141,-0.918,0.420,0.170
17.151,-0.916,0.424,0.168
17.161,-0.918,0.426,0.170
17.171,-0.922,0.426,0.168
17.181,-0.918,0.424,0.168
17.191,-0.918,0.424,0.170
17.200,-0.916,0.426,0.162
17.210,-0.914,0.426,0.164
17.220,-0.914,0.430,0.170
17.230,-0.912,0.426,0.168
17.240,-0.912,0.428,0.164
17.250,-0.908,0.426,0.170
17.260,-0.910,0.426,0.168
17.270,-0.912,0.422,0.172
17.280,-0.910,0.428,0.166
17.290,-0.910,0.428,0.166
17.300,-0.914,0.424,0.168
17.310,-0.914,0.420,0.166
17.320,-0.916,0.420,0.168
17.329,-0.918,0.424,0.170
17.339,-0.922,0.420,0.168
17.349,-0.926,0.418,0.168
17.359,-0.920,0.426,0.170
17.369,-0.922,0.426,0.170
17.379,-0.924,0.420,0.170
17.389,-0.922,0.420,0.172
17.399,-0.924,0.426,0.170
17.409,-0.920,0.420,0.172
17.419,-0.916,0.418,0.178
17.429,-0.918,0.416,0.174
17.439,-0.916,0.420,0.172
17.448,-0.918,0.418,0.172
17.458,-0.918,0.420,0.166
17.468,-0.918,0.418,0.172
17.478,-0.918,0.426,0.172
17.488,-0.924,0.426,0.170
17.498,-0.920,0.424,0.172
17.508,-0.920,0.422,0.168
17.518,-0.918,0.420,0.168
17.528,-0.918,0.416,0.166
17.538,-0.918,0.416,0.170
17.548,-0.918,0.416,0.170
17.558,-0.920,0.414,0.174
17.568,-0.922,0.420,0.168
17.577,-0.918,0.416,0.172
17.587,-0.920,0.418,0.168
17.597,-0.920,0.420,0.172
17.607,-0.916,0.420,0.174
17.617,-0.918,0.418,0.168
17.627,-0.918,0.418,0.172
17.637,-0.918,0.420,0.172
17.647,-0.918,0.416,0.170
17.657,-0.920,0.420,0.172
17.667,-0.920,0.424,0.174
17.677,-0.920,0.424,0.172
17.687,-0.918,0.418,0.174
17.696,-0.918,0.416,0.172
17.706,-0.918,0.420,0.168
17.716,-0.918,0.422,0.172
17.726,-0.918,0.422,0.172
17.736,-0.918,0.420,0.172
17.746,-0.918,0.422,0.168
17.756,-0.916,0.418,0.172
17.766,-0.918,0.420,0.170
17.776,-0.922,0.416,0.174
17.786,-0.918,0.418,0.174
17.796,-0.918,0.416,0.172
17.806,-0.920,0.416,0.172
17.816,-0.920,0.420,0.172
17.825,-0.918,0.422,0.172
17.835,-0.918,0.424,0.174
17.845,-0.920,0.420,0.170
17.855,-0.920,0.422,0.172
17.865,-0.920,0.420,0.170
17.875,-0.918,0.422,0.166
17.885,-0.922,0.422,0.170
17.895,-0.918,0.420,0.170
17.905,-0.918,0.424,0.168
17.915,-0.916,0.422,0.166
17.925,-0.918,0.420,0.174
17.935,-0.918,0.422,0.170
17.945,-0.916,0.424,0.170
17.954,-0.916,0.424,0.170
17.964,-0.916,0.422,0.172
17.974,-0.916,0.422,0.172
17.984,-0.914,0.418,0.168
17.994,-0.916,0.418,0.172
18.004,-0.918,0.418,0.170
18.014,-0.918,0.416,0.170
18.024,-0.920,0.416,0.168
18.034,-0.922,0.422,0.170
18.044,-0.920,0.422,0.170
18.054,-0.920,0.420,0.174
18.064,-0.924,0.418,0.174
18.073,-0.922,0.420,0.172
18.083,-0.920,0.418,0.174
18.093,-0.922,0.420,0.174
18.103,-0.916,0.422,0.174
18.113,-0.914,0.420,0.178
18.123,-0.914,0.418,0.178
18.133,-0.918,0.418,0.170
18.143,-0.916,0.420,0.170
18.153,-0.918,0.414,0.172
18.163,-0.920,0.414,0.172
18.173,-0.922,0.420,0.172
18.183,-0.922,0.420,0.172
18.193,-0.922,0.422,0.172
18.202,-0.924,0.424,0.176
18.212,-0.920,0.422,0.174
18.222,-0.920,0.418,0.170
18.232,-0.920,0.416,0.172
18.242,-0.918,0.416,0.172
18.252,-0.918,0.416,0.176
18.262,-0.918,0.418,0.176
18.272,-0.920,0.416,0.170
18.282,-0.920,0.418,0.172
18.292,-0.918,0.420,0.172
18.302,-0.918,0.420,0.174
18.312,-0.916,0.422,0.174
18.321,-0.918,0.420,0.174
18.331,-0.920,0.418,0.170
18.341,-0.918,0.422,0.172
18.351,-0.916,0.420,0.176
18.361,-0.918,0.422,0.174
18.371,-0.916,0.428,0.172
18.381,-0.914,0.422,0.174
18.391,-0.910,0.418,0.176
18.401,-0.912,0.418,0.174
18.411,-0.914,0.420,0.172
18.421,-0.916,0.420,0.176
18.431,-0.916,0.418,0.172
18.441,-0.918,0.424,0.176
18.450,-0.918,0.424,0.176
18.460,-0.922,0.422,0.172
18.470,-0.920,0.418,0.172
18.480,-0.918,0.420,0.172
18.490,-0.920,0.416,0.172
18.500,-0.920,0.418,0.172
18.510,-0.918,0.418,0.172
18.520,-0.916,0.422,0.178
18.530,-0.918,0.420,0.174
18.540,-0.918,0.422,0.174
18.550,-0.918,0.416,0.172
18.560,-0.918,0.418,0.174
18.569,-0.918,0.420,0.174
18.579,-0.922,0.420,0.172
18.589,-0.920,0.422,0.172
18.599,-0.920,0.424,0.168
18.609,-0.920,0.422,0.172
18.619,-0.918,0.420,0.170
18.629,-0.914,0.420,0.170
18.639,-0.914,0.422,0.174
18.649,-0.918,0.424,0.172
18.659,-0.914,0.422,0.172
18.669,-0.914,0.418,0.174
18.679,-0.916,0.422,0.172
18.689,-0.914,0.420,0.174
18.698,-0.912,0.418,0.172
18.708,-0.914,0.420,0.174
18.718,-0.920,0.420,0.172
18.728,-0.922,0.422,0.170
18.738,-0.920,0.424,0.172
18.748,-0.920,0.420,0.172
18.758,-0.922,0.422,0.174
18.768,-0.920,0.420,0.170
18.778,-0.916,0.416,0.174
18.788,-0.924,0.418,0.172
18.798,-0.918,0.426,0.174
18.808,-0.916,0.424,0.180
18.817,-0.916,0.420,0.180
18.827,-0.918,0.420,0.174
18.837,-0.918,0.420,0.180
18.847,-0.916,0.416,0.172
18.857,-0.914,0.416,0.176
18.867,-0.922,0.416,0.174
18.877,-0.924,0.424,0.172
18.887,-0.920,0.424,0.174
18.897,-0.924,0.426,0.172
18.907,-0.922,0.422,0.172
18.917,-0.924,0.418,0.172
18.927,-0.922,0.418,0.176
18.937,-0.922,0.420,0.170
18.946,-0.916,0.418,0.174
18.956,-0.918,0.416,0.174
18.966,-0.918,0.418,0.174
18.976,-0.920,0.420,0.176
18.986,-0.916,0.420,0.172
18.996,-0.920,0.424,0.174
19.006,-0.922,0.420,0.178
19.016,-0.916,0.416,0.174
19.026,-0.918,0.418,0.172
19.036,-0.922,0.418,0.174
19.046,-0.916,0.416,0.174
19.056,-0.918,0.424,0.178
19.065,-0.916,0.424,0.178
19.075,-0.916,0.422,0.176
19.085,-0.910,0.418,0.172
19.095,-0.912,0.418,0.174
19.105,-0.914,0.422,0.172
19.115,-0.918,0.424,0.174
19.125,-0.918,0.426,0.172
19.135,-0.916,0.428,0.172
19.145,-0.918,0.424,0.172
19.155,-0.916,0.426,0.174
19.165,-0.916,0.422,0.172
19.175,-0.918,0.420,0.174
19.185,-0.918,0.420,0.176
19.194,-0.918,0.420,0.172
19.204,-0.916,0.424,0.174
19.214,-0.912,0.424,0.172
19.224,-0.920,0.422,0.174
19.234,-0.918,0.420,0.176
19.244,-0.916,0.422,0.176
19.254,-0.916,0.422,0.174
19.264,-0.920,0.422,0.170
19.274,-0.920,0.420,0.172
19.284,-0.918,0.420,0.178
19.294,-0.918,0.420,0.174
19.304,-0.922,0.422,0.174
19.313,-0.918,0.422,0.178
19.323,-0.920,0.424,0.176
19.333,-0.920,0.422,0.176
19.343,-0.920,0.424,0.174
19.353,-0.914,0.420,0.174
19.363,-0.912,0.422,0.172
19.373,-0.910,0.420,0.176
19.383,-0.914,0.420,0.178
19.393,-0.916,0.422,0.176
19.403,-0.916,0.420,0.176
19.413,-0.920,0.424,0.178
19.423,-0.920,0.426,0.172
19.433,-0.920,0.420,0.178
19.442,-0.916,0.424,0.174
19.452,-0.918,0.422,0.176
19.462,-0.914,0.418,0.176
19.472,-0.920,0.422,0.174
19.482,-0.916,0.430,0.176
19.492,-0.914,0.426,0.180
19.502,-0.912,0.424,0.176
19.512,-0.916,0.420,0.174
19.522,-0.920,0.416,0.176
19.532,-0.916,0.420,0.174
19.542,-0.916,0.420,0.174
19.552,-0.920,0.426,0.176
19.561,-0.922,0.424,0.178
19.571,-0.920,0.426,0.178
19.581,-0.918,0.424,0.176
19.591,-0.918,0.424,0.172
19.601,-0.916,0.420,0.174
19.611,-0.916,0.416,0.172
19.621,-0.920,0.418,0.172
19.631,-0.922,0.418,0.178
19.641,-0.918,0.420,0.176
19.651,-0.918,0.416,0.176
19.661,-0.916,0.420,0.174
19.671,-0.916,0.422,0.176
19.681,-0.916,0.426,0.178
19.690,-0.914,0.424,0.176
19.700,-0.914,0.420,0.176
19.710,-0.916,0.418,0.174
19.720,-0.914,0.418,0.174
19.730,-0.916,0.422,0.178
19.740,-0.918,0.428,0.176
19.750,-0.920,0.424,0.176
19.760,-0.914,0.422,0.174
19.770,-0.914,0.420,0.176
19.780,-0.916,0.422,0.172
19.790,-0.918,0.422,0.176
19.800,-0.920,0.424,0.178
19.809,-0.918,0.426,0.174
19.819,-0.916,0.418,0.174
19.829,-0.916,0.424,0.174
19.839,-0.914,0.424,0.180
19.849,-0.918,0.422,0.176
19.859,-0.918,0.420,0.176
19.869,-0.916,0.420,0.174
19.879,-0.916,0.420,0.176
19.889,-0.918,0.418,0.172
19.899,-0.918,0.422,0.176
19.909,-0.922,0.424,0.176
19.919,-0.914,0.426,0.174
19.929,-0.918,0.426,0.176
19.938,-0.916,0.424,0.176
19.948,-0.914,0.426,0.176
19.958,-0.918,0.422,0.178
19.968,-0.918,0.420,0.176
19.978,-0.918,0.420,0.176
19.988,-0.918,0.426,0.176
19.998,-0.918,0.420,0.178
20.008,-0.918,0.420,0.176
20.018,-0.918,0.422,0.176
20.028,-0.916,0.422,0.176
20.038,-0.914,0.420,0.176
20.048,-0.918,0.422,0.176
20.057,-0.916,0.418,0.174
20.067,-0.914,0.420,0.174
20.077,-0.920,0.420,0.172
20.087,-0.918,0.420,0.174
20.097,-0.920,0.422,0.176
20.107,-0.914,0.420,0.176
20.117,-0.914,0.420,0.176
20.127,-0.914,0.420,0.178
20.137,-0.918,0.422,0.174
20.147,-0.918,0.418,0.176
20.157,-0.924,0.418,0.172
20.167,-0.922,0.424,0.176
20.177,-0.916,0.422,0.178
20.186,-0.918,0.420,0.180
20.196,-0.914,0.418,0.174
20.206,-0.916,0.416,0.174
20.216,-0.910,0.416,0.176
20.226,-0.914,0.416,0.176
20.236,-0.920,0.418,0.176
20.246,-0.922,0.420,0.174
20.256,-0.926,0.424,0.178
20.266,-0.920,0.418,0.174
20.276,-0.922,0.416,0.172
20.286,-0.920,0.420,0.170
20.296,-0.922,0.416,0.180
20.305,-0.926,0.412,0.174
20.315,-0.924,0.412,0.174
20.325,-0.920,0.416,0.174
20.335,-0.922,0.412,0.178
20.345,-0.924,0.412,0.172
20.355,-0.922,0.418,0.176
20.365,-0.922,0.416,0.176
20.375,-0.918,0.418,0.178
20.385,-0.920,0.418,0.176
20.395,-0.918,0.422,0.172
20.405,-0.918,0.418,0.176
20.415,-0.914,0.420,0.178
20.425,-0.914,0.422,0.178
20.434,-0.918,0.420,0.176
20.444,-0.914,0.418,0.178
20.454,-0.914,0.418,0.174
20.464,-0.914,0.418,0.170
20.474,-0.914,0.420,0.176
20.484,-0.920,0.422,0.174
20.494,-0.920,0.426,0.174
20.504,-0.916,0.422,0.176
20.514,-0.914,0.422,0.176
20.524,-0.916,0.418,0.178
20.534,-0.918,0.418,0.180
20.544,-0.918,0.412,0.178
20.554,-0.918,0.414,0.176
20.563,-0.920,0.412,0.178
20.573,-0.920,0.420,0.176
20.583,-0.922,0.416,0.176
20.593,-0.924,0.416,0.176
20.603,-0.920,0.422,0.172
20.613,-0.920,0.418,0.174
20.623,-0.922,0.418,0.176
20.633,-0.922,0.420,0.176
20.643,-0.922,0.422,0.172
20.653,-0.920,0.418,0.174
20.663,-0.918,0.422,0.172
20.673,-0.918,0.422,0.170
20.682,-0.916,0.422,0.172
20.692,-0.916,0.420,0.176
20.702,-0.916,0.424,0.174
20.712,-0.916,0.420,0.172
20.722,-0.914,0.418,0.172
20.732,-0.916,0.420,0.170
20.742,-0.918,0.422,0.170
20.752,-0.916,0.420,0.174
20.762,-0.920,0.422,0.172
20.772,-0.916,0.418,0.174
20.782,-0.920,0.422,0.176
20.792,-0.922,0.418,0.176
20.802,-0.924,0.416,0.176
20.811,-0.922,0.418,0.170
20.821,-0.922,0.420,0.180
20.831,-0.916,0.416,0.182
20.841,-0.916,0.414,0.174
20.851,-0.924,0.416,0.176
20.861,-0.922,0.420,0.172
20.871,-0.920,0.414,0.174
20.881,-0.924,0.416,0.182
20.891,-0.924,0.416,0.178
20.901,-0.922,0.420,0.176
20.911,-0.920,0.414,0.178
20.921,-0.924,0.412,0.174
20.930,-0.924,0.418,0.176
20.940,-0.924,0.414,0.176
20.950,-0.926,0.410,0.178
20.960,-0.926,0.412,0.176
20.970,-0.918,0.416,0.172
20.980,-0.914,0.420,0.176
20.990,-0.906,0.416,0.178
21.000,-0.916,0.414,0.174
21.010,-0.920,0.418,0.172
21.020,-0.920,0.412,0.172
21.030,-0.922,0.418,0.174
21.040,-0.932,0.418,0.174
21.050,-0.930,0.410,0.172
21.059,-0.924,0.414,0.176
21.069,-0.924,0.418,0.178
21.079,-0.924,0.416,0.178
21.089,-0.920,0.414,0.182
21.099,-0.920,0.408,0.174
21.109,-0.922,0.412,0.178
21.119,-0.926,0.416,0.184
21.129,-0.924,0.418,0.178
21.139,-0.918,0.416,0.184
21.149,-0.922,0.414,0.182
21.159,-0.926,0.410,0.178
21.169,-0.920,0.412,0.180
21.178,-0.920,0.408,0.184
21.188,-0.920,0.410,0.174
21.198,-0.928,0.412,0.178
21.208,-0.926,0.412,0.180
21.218,-0.926,0.414,0.178
21.228,-0.926,0.410,0.180
21.238,-0.922,0.412,0.182
21.248,-0.918,0.416,0.180
21.258,-0.920,0.418,0.180
21.268,-0.918,0.416,0.182
21.278,-0.916,0.418,0.182
21.288,-0.916,0.416,0.184
21.298,-0.918,0.416,0.180
21.307,-0.918,0.416,0.184
21.317,-0.918,0.414,0.180
21.327,-0.918,0.416,0.180
21.337,-0.916,0.416,0.178
21.347,-0.920,0.412,0.180
21.357,-0.920,0.410,0.174
21.367,-0.922,0.414,0.178
21.377,-0.920,0.414,0.180
21.387,-0.920,0.414,0.178
21.397,-0.918,0.420,0.178
21.407,-0.920,0.416,0.180
21.417,-0.924,0.414,0.182
21.426,-0.922,0.414,0.180
21.436,-0.920,0.410,0.180
21.446,-0.914,0.408,0.188
21.456,-0.920,0.406,0.184
21.466,-0.926,0.406,0.180
21.476,-0.926,0.408,0.182
21.486,-0.926,0.406,0.182
21.496,-0.924,0.410,0.180
21.506,-0.926,0.414,0.186
21.516,-0.926,0.412,0.184
21.526,-0.930,0.408,0.184
21.536,-0.926,0.408,0.182
21.546,-0.924,0.404,0.182
21.555,-0.924,0.408,0.182
21.565,-0.926,0.410,0.180
21.575,-0.930,0.404,0.182
21.585,-0.926,0.408,0.180
21.595,-0.920,0.406,0.182
21.605,-0.926,0.408,0.184
21.615,-0.922,0.410,0.182
21.625,-0.920,0.410,0.182
21.635,-0.920,0.412,0.182
21.645,-0.918,0.410,0.186
21.655,-0.920,0.410,0.182
21.665,-0.920,0.408,0.178
21.674,-0.922,0.412,0.182
21.684,-0.924,0.416,0.182
21.694,-0.922,0.414,0.184
21.704,-0.922,0.412,0.184
21.714,-0.920,0.410,0.180
21.724,-0.918,0.410,0.180
21.734,-0.920,0.412,0.182
21.744,-0.922,0.414,0.184
21.754,-0.920,0.412,0.182
21.764,-0.922,0.412,0.180
21.774,-0.924,0.412,0.182
21.784,-0.924,0.410,0.178
21.794,-0.924,0.410,0.180
21.803,-0.920,0.412,0.180
21.813,-0.922,0.410,0.178
21.823,-0.922,0.414,0.182
21.833,-0.920,0.410,0.182
21.843,-0.920,0.408,0.178
21.853,-0.924,0.410,0.178
21.863,-0.926,0.414,0.186
21.873,-0.922,0.412,0.182
21.883,-0.924,0.412,0.184
21.893,-0.924,0.412,0.180
21.903,-0.922,0.410,0.182
21.913,-0.922,0.412,0.180
21.922,-0.922,0.410,0.184
21.932,-0.922,0.410,0.178
21.942,-0.922,0.410,0.182
21.952,-0.922,0.410,0.178
21.962,-0.922,0.408,0.178
21.972,-0.922,0.412,0.182
21.982,-0.920,0.412,0.178
21.992,-0.922,0.410,0.182
22.002,-0.920,0.408,0.180
22.012,-0.918,0.414,0.182
22.022,-0.918,0.410,0.184
22.032,-0.922,0.406,0.182
22.042,-0.924,0.412,0.180
22.051,-0.922,0.412,0.186
22.061,-0.920,0.410,0.188
22.071,-0.922,0.408,0.180
22.081,-0.922,0.406,0.180
22.091,-0.922,0.410,0.182
22.101,-0.922,0.404,0.178
22.111,-0.922,0.410,0.180
22.121,-0.924,0.412,0.182
22.131,-0.924,0.408,0.186
22.141,-0.926,0.406,0.182
22.151,-0.926,0.410,0.184
22.161,-0.926,0.410,0.180
22.170,-0.930,0.406,0.186
22.180,-0.926,0.404,0.180
22.190,-0.924,0.402,0.182
22.200,-0.928,0.402,0.182
22.210,-0.928,0.406,0.186
22.220,-0.926,0.406,0.184
22.230,-0.924,0.408,0.189
22.240,-0.926,0.410,0.182
22.250,-0.924,0.412,0.184
22.260,-0.922,0.410,0.184
22.270,-0.920,0.414,0.184
22.280,-0.922,0.410,0.180
22.290,-0.916,0.408,0.182
22.299,-0.918,0.416,0.188
22.309,-0.912,0.412,0.184
22.319,-0.914,0.412,0.188
22.329,-0.914,0.410,0.186
22.339,-0.920,0.412,0.182
22.349,-0.920,0.412,0.184
22.359,-0.922,0.410,0.178
22.369,-0.924,0.414,0.180
22.379,-0.926,0.412,0.180
22.389,-0.916,0.412,0.180
22.399,-0.920,0.416,0.186
22.409,-0.924,0.414,0.184
22.418,-0.924,0.412,0.184
22.428,-0.926,0.408,0.182
22.438,-0.926,0.416,0.184
22.448,-0.932,0.416,0.182
22.458,-0.930,0.416,0.180
22.468,-0.924,0.416,0.182
22.478,-0.922,0.418,0.180
22.488,-0.922,0.414,0.182
22.498,-0.920,0.418,0.186
22.508,-0.916,0.416,0.180
22.518,-0.918,0.418,0.182
22.528,-0.918,0.418,0.180
22.538,-0.918,0.422,0.184
22.547,-0.918,0.424,0.184
22.557,-0.916,0.420,0.182
22.567,-0.912,0.418,0.182
22.577,-0.912,0.420,0.182
22.587,-0.914,0.416,0.180
22.597,-0.910,0.416,0.180
22.607,-0.914,0.416,0.182
22.617,-0.918,0.420,0.182
22.627,-0.920,0.418,0.182
22.637,-0.920,0.420,0.178
22.647,-0.922,0.412,0.182
22.657,-0.920,0.422,0.184
22.666,-0.920,0.416,0.182
22.676,-0.920,0.412,0.182
22.686,-0.924,0.414,0.178
22.696,-0.922,0.418,0.184
22.706,-0.918,0.416,0.188
22.716,-0.926,0.408,0.186
22.726,-0.928,0.410,0.182
22.736,-0.928,0.404,0.186
22.746,-0.924,0.404,0.182
22.756,-0.928,0.408,0.178
22.766,-0.930,0.416,0.184
22.776,-0.930,0.416,0.182
22.786,-0.928,0.414,0.182
22.795,-0.922,0.414,0.180
22.805,-0.920,0.412,0.180
22.815,-0.920,0.410,0.182
22.825,-0.922,0.410,0.180
22.835,-0.922,0.406,0.184
22.845,-0.922,0.408,0.178
22.855,-0.922,0.410,0.184
22.865,-0.922,0.408,0.180
22.875,-0.922,0.412,0.176
22.885,-0.924,0.410,0.186
22.895,-0.920,0.408,0.186
22.905,-0.920,0.404,0.186
22.914,-0.920,0.404,0.182
22.924,-0.924,0.412,0.182
22.934,-0.922,0.406,0.180
22.944,-0.920,0.410,0.186
22.954,-0.926,0.412,0.184
22.964,-0.924,0.414,0.180
22.974,-0.916,0.412,0.184
22.984,-0.922,0.410,0.182
22.994,-0.922,0.412,0.180
23.004,-0.920,0.412,0.178
23.014,-0.922,0.412,0.182
23.024,-0.922,0.412,0.182
23.034,-0.920,0.412,0.182
23.043,-0.920,0.412,0.184
23.053,-0.926,0.412,0.184
23.063,-0.924,0.412,0.178
23.073,-0.926,0.410,0.184
23.083,-0.922,0.408,0.180
23.093,-0.926,0.410,0.178
23.103,-0.924,0.412,0.180
23.113,-0.922,0.412,0.182
23.123,-0.924,0.416,0.184
23.133,-0.922,0.414,0.180
23.143,-0.920,0.412,0.182
23.153,-0.922,0.412,0.184
23.163,-0.924,0.410,0.182
23.172,-0.926,0.412,0.176
23.182,-0.920,0.410,0.180
23.192,-0.918,0.408,0.180
23.202,-0.924,0.412,0.180
23.212,-0.924,0.414,0.180
23.222,-0.922,0.412,0.182
23.232,-0.920,0.412,0.180
23.242,-0.920,0.412,0.184
23.252,-0.922,0.412,0.184
23.262,-0.920,0.412,0.180
23.272,-0.920,0.412,0.178
23.282,-0.922,0.410,0.176
23.291,-0.922,0.416,0.186
23.301,-0.922,0.418,0.180
23.311,-0.920,0.412,0.180
23.321,-0.924,0.414,0.180
23.331,-0.926,0.412,0.180
23.341,-0.926,0.408,0.176
23.351,-0.928,0.410,0.178
23.361,-0.932,0.414,0.180
23.371,-0.922,0.416,0.182
23.381,-0.920,0.416,0.188
23.391,-0.920,0.408,0.184
23.401,-0.920,0.410,0.184
23.411,-0.912,0.410,0.186
23.420,-0.918,0.406,0.182
23.430,-0.922,0.408,0.182
23.440,-0.922,0.416,0.188
23.450,-0.926,0.416,0.182
23.460,-0.930,0.412,0.184
23.470,-0.924,0.416,0.186
23.480,-0.928,0.408,0.186
23.490,-0.928,0.400,0.182
23.500,-0.928,0.404,0.180
23.510,-0.924,0.404,0.182
23.520,-0.930,0.400,0.182
23.530,-0.928,0.398,0.180
23.539,-0.926,0.408,0.180
23.549,-0.922,0.410,0.186
23.559,-0.924,0.410,0.186
23.569,-0.924,0.410,0.188
23.579,-0.920,0.414,0.191
23.589,-0.922,0.408,0.188
23.599,-0.922,0.406,0.186
23.609,-0.924,0.404,0.188
23.619,-0.924,0.408,0.188
23.629,-0.928,0.410,0.188
23.639,-0.926,0.410,0.184
23.649,-0.918,0.406,0.184
23.659,-0.918,0.410,0.184
23.668,-0.918,0.404,0.182
23.678,-0.922,0.404,0.182
23.688,-0.924,0.408,0.182
23.698,-0.926,0.408,0.186
23.708,-0.922,0.410,0.180
23.718,-0.918,0.414,0.186
23.728,-0.916,0.406,0.188
23.738,-0.916,0.406,0.188
23.748,-0.922,0.404,0.189
23.758,-0.920,0.404,0.182
23.768,-0.926,0.406,0.186
23.778,-0.928,0.408,0.186
23.787,-0.930,0.404,0.180
23.797,-0.924,0.404,0.186
23.807,-0.920,0.404,0.186
23.817,-0.918,0.398,0.182
23.827,-0.928,0.404,0.188
23.837,-0.930,0.406,0.186
23.847,-0.941,0.398,0.186
23.857,-0.936,0.398,0.180
23.867,-0.928,0.416,0.182
23.877,-0.932,0.408,0.191
23.887,-0.930,0.398,0.182
23.897,-0.928,0.402,0.186
23.907,-0.922,0.408,0.188
23.916,-0.918,0.410,0.186
23.926,-0.916,0.412,0.186
23.936,-0.914,0.410,0.186
23.946,-0.914,0.408,0.186
23.956,-0.922,0.410,0.186
23.966,-0.924,0.414,0.186
23.976,-0.924,0.414,0.184
23.986,-0.926,0.414,0.182
23.996,-0.920,0.410,0.184
24.006,-0.920,0.410,0.188
24.016,-0.928,0.404,0.186
24.026,-0.926,0.400,0.184
24.035,-0.928,0.408,0.184
24.045,-0.928,0.410,0.188
24.055,-0.918,0.410,0.191
24.065,-0.916,0.400,0.189
24.075,-0.926,0.406,0.186
24.085,-0.922,0.410,0.189
24.095,-0.916,0.398,0.186
24.105,-0.922,0.402,0.184
24.115,-0.924,0.408,0.184
24.125,-0.924,0.410,0.188
24.135,-0.924,0.408,0.188
24.145,-0.926,0.408,0.188
24.155,-0.928,0.406,0.186
24.164,-0.926,0.400,0.186
24.174,-0.926,0.404,0.184
24.184,-0.926,0.398,0.184
24.194,-0.930,0.398,0.184
24.204,-0.928,0.396,0.182
24.214,-0.934,0.400,0.182
24.224,-0.934,0.400,0.182
24.234,-0.932,0.408,0.186
24.244,-0.928,0.408,0.186
24.254,-0.926,0.406,0.184
24.264,-0.924,0.404,0.188
24.274,-0.924,0.404,0.182
24.283,-0.922,0.406,0.186
24.293,-0.922,0.410,0.188
24.303,-0.924,0.414,0.186
24.313,-0.922,0.408,0.186
24.323,-0.918,0.406,0.184
24.333,-0.918,0.402,0.182
24.343,-0.920,0.410,0.180
24.353,-0.924,0.410,0.184
24.363,-0.922,0.410,0.180
24.373,-0.924,0.410,0.182
24.383,-0.920,0.412,0.184
24.393,-0.920,0.412,0.186
24.403,-0.922,0.410,0.184
24.412,-0.922,0.410,0.186
24.422,-0.926,0.404,0.182
24.432,-0.922,0.404,0.182
24.442,-0.926,0.404,0.182
24.452,-0.924,0.406,0.184
24.462,-0.926,0.406,0.182
24.472,-0.928,0.406,0.186
24.482,-0.928,0.406,0.182
24.492,-0.926,0.402,0.186
24.502,-0.928,0.404,0.184
24.512,-0.930,0.404,0.184
24.522,-0.926,0.404,0.186
24.531,-0.924,0.402,0.184
24.541,-0.924,0.406,0.184
24.551,-0.928,0.408,0.188
24.561,-0.928,0.406,0.184
24.571,-0.924,0.402,0.182
24.581,-0.926,0.404,0.184
24.591,-0.926,0.406,0.184
24.601,-0.924,0.406,0.186
24.611,-0.926,0.404,0.184
24.621,-0.922,0.404,0.184
24.631,-0.924,0.406,0.182
24.641,-0.926,0.408,0.184
24.651,-0.924,0.406,0.182
24.660,-0.924,0.408,0.186
24.670,-0.928,0.406,0.184
24.680,-0.924,0.406,0.182
24.690,-0.926,0.406,0.184
24.700,-0.930,0.406,0.180
24.710,-0.924,0.404,0.186
24.720,-0.920,0.402,0.189
24.730,-0.918,0.400,0.184
24.740,-0.928,0.400,0.184
24.750,-0.926,0.400,0.186
24.760,-0.924,0.400,0.186
24.770,-0.930,0.398,0.180
24.779,-0.930,0.404,0.186
24.789,-0.932,0.404,0.186
24.799,-0.932,0.404,0.186
24.809,-0.930,0.404,0.184
24.819,-0.926,0.400,0.184
24.829,-0.920,0.400,0.184
24.839,-0.924,0.402,0.180
24.849,-0.928,0.404,0.186
24.859,-0.928,0.400,0.188
24.869,-0.932,0.400,0.184
24.879,-0.928,0.404,0.184
24.889,-0.926,0.400,0.189
24.899,-0.926,0.402,0.184
24.908,-0.922,0.398,0.188
24.918,-0.922,0.404,0.189
24.928,-0.922,0.402,0.186
24.938,-0.916,0.400,0.186
24.948,-0.906,0.406,0.191
24.958,-0.900,0.412,0.201
24.968,-0.914,0.412,0.189
24.978,-0.924,0.414,0.184
24.988,-0.926,0.404,0.180
24.998,-0.934,0.404,0.178
25.008,-0.920,0.412,0.178
25.018,-0.891,0.426,0.197
25.027,-0.855,0.455,0.219
25.037,-0.840,0.475,0.217
25.047,-0.838,0.475,0.201
25.057,-0.852,0.463,0.191
25.067,-0.877,0.438,0.164
25.077,-0.885,0.426,0.148
25.087,-0.865,0.439,0.160
25.097,-0.836,0.461,0.184
25.107,-0.797,0.479,0.197
25.117,-0.779,0.520,0.205
25.127,-0.779,0.529,0.180
25.137,-0.818,0.502,0.141
25.147,-0.861,0.488,0.092
25.156,-0.887,0.471,0.057
25.166,-0.867,0.475,0.057
25.176,-0.830,0.516,0.074
25.186,-0.830,0.520,0.070
25.196,-0.855,0.525,0.039
25.206,-0.881,0.529,0.014
25.216,-0.865,0.531,-0.002
25.226,-0.840,0.549,0.002
25.236,-0.803,0.568,-0.018
25.246,-0.807,0.584,-0.023
25.256,-0.832,0.582,-0.061
25.266,-0.855,0.559,-0.102
25.275,-0.861,0.537,-0.113
25.285,-0.859,0.527,-0.113
25.295,-0.865,0.535,-0.123
25.305,-0.846,0.553,-0.123
25.315,-0.854,0.557,-0.115
25.325,-0.877,0.570,-0.125
25.335,-0.891,0.564,-0.133
25.345,-0.889,0.572,-0.135
25.355,-0.898,0.566,-0.133
25.365,-0.912,0.553,-0.137
25.375,-0.928,0.551,-0.137
25.385,-0.945,0.545,-0.127
25.395,-0.938,0.549,-0.135
25.404,-0.912,0.551,-0.131
25.414,-0.902,0.559,-0.109
25.424,-0.910,0.551,-0.125
25.434,-0.916,0.557,-0.127
25.444,-0.900,0.570,-0.117
25.454,-0.877,0.574,-0.111
25.464,-0.854,0.576,-0.094
25.474,-0.832,0.600,-0.082
25.484,-0.830,0.645,-0.086
25.494,-0.830,0.605,-0.072
25.504,-0.809,0.576,-0.076
25.514,-0.791,0.590,-0.066
25.523,-0.764,0.600,-0.053
25.533,-0.730,0.619,-0.053
25.543,-0.711,0.613,-0.049
25.553,-0.715,0.619,-0.049
25.563,-0.732,0.609,-0.055
25.573,-0.756,0.596,-0.062
25.583,-0.785,0.602,-0.061
25.593,-0.809,0.598,-0.064
25.603,-0.824,0.602,-0.055
25.613,-0.816,0.609,-0.037
25.623,-0.783,0.613,-0.041
25.633,-0.760,0.619,-0.031
25.643,-0.760,0.605,-0.037
25.652,-0.768,0.609,-0.043
25.662,-0.768,0.609,-0.049
25.672,-0.785,0.582,-0.051
25.682,-0.803,0.586,-0.066
25.692,-0.791,0.615,-0.059
25.702,-0.766,0.625,-0.045
25.712,-0.768,0.629,-0.047
25.722,-0.768,0.627,-0.059
25.732,-0.770,0.619,-0.055
25.742,-0.768,0.607,-0.057
25.752,-0.785,0.602,-0.061
25.762,-0.801,0.592,-0.066
25.772,-0.809,0.602,-0.061
25.781,-0.814,0.617,-0.049
25.791,-0.799,0.625,-0.047
25.801,-0.799,0.621,-0.047
25.811,-0.807,0.611,-0.059
25.821,-0.805,0.600,-0.066
25.831,-0.805,0.590,-0.057
25.841,-0.822,0.586,-0.061
25.851,-0.838,0.570,-0.068
25.861,-0.848,0.570,-0.066
25.871,-0.842,0.570,-0.062
25.881,-0.838,0.572,-0.053
25.891,-0.830,0.580,-0.051
25.900,-0.822,0.580,-0.043
25.910,-0.822,0.576,-0.043
25.920,-0.824,0.574,-0.043
25.930,-0.824,0.568,-0.049
25.940,-0.836,0.553,-0.055
25.950,-0.846,0.549,-0.059
25.960,-0.846,0.555,-0.051
25.970,-0.830,0.574,-0.041
25.980,-0.818,0.580,-0.029
25.990,-0.824,0.586,-0.031
26.000,-0.824,0.570,-0.033
26.010,-0.838,0.557,-0.035
26.020,-0.852,0.539,-0.043
26.029,-0.869,0.521,-0.047
26.039,-0.887,0.512,-0.055
26.049,-0.900,0.510,-0.059
26.059,-0.900,0.521,-0.049
26.069,-0.885,0.553,-0.035
26.079,-0.877,0.562,-0.031
26.089,-0.877,0.553,-0.037
26.099,-0.871,0.541,-0.035
26.109,-0.867,0.531,-0.029
26.119,-0.873,0.523,-0.029
26.129,-0.879,0.510,-0.031
26.139,-0.877,0.498,-0.031
26.148,-0.869,0.492,-0.020
26.158,-0.869,0.494,-0.012
26.168,-0.871,0.506,-0.004
26.178,-0.869,0.516,0.008
26.188,-0.854,0.553,0.031
26.198,-0.838,0.584,0.055
26.208,-0.836,0.586,0.049
26.218,-0.846,0.570,0.041
26.228,-0.842,0.549,0.033
26.238,-0.836,0.533,0.037
26.248,-0.842,0.518,0.043
26.258,-0.850,0.502,0.045
26.268,-0.857,0.494,0.051
26.277,-0.857,0.496,0.062
26.287,-0.859,0.514,0.086
26.297,-0.848,0.547,0.104
26.307,-0.842,0.572,0.115
26.317,-0.834,0.564,0.115
26.327,-0.824,0.547,0.115
26.337,-0.822,0.531,0.115
26.347,-0.832,0.516,0.111
26.357,-0.850,0.504,0.115
26.367,-0.857,0.492,0.109
26.377,-0.863,0.480,0.107
26.387,-0.875,0.471,0.113
26.396,-0.879,0.471,0.117
26.406,-0.875,0.459,0.125
26.416,-0.875,0.447,0.129
26.426,-0.891,0.447,0.133
26.436,-0.893,0.457,0.135
26.446,-0.887,0.469,0.145
26.456,-0.891,0.477,0.148
26.466,-0.893,0.473,0.145
26.476,-0.895,0.475,0.143
26.486,-0.893,0.477,0.141
26.496,-0.893,0.471,0.135
26.506,-0.900,0.465,0.131
26.516,-0.895,0.457,0.125
26.525,-0.900,0.453,0.121
26.535,-0.902,0.457,0.123
26.545,-0.908,0.459,0.125
26.555,-0.908,0.453,0.125
26.565,-0.912,0.451,0.127
26.575,-0.906,0.447,0.127
26.585,-0.900,0.438,0.129
26.595,-0.898,0.434,0.129
26.605,-0.914,0.430,0.137
26.615,-0.924,0.426,0.135
26.625,-0.920,0.426,0.139
26.635,-0.922,0.420,0.137
26.644,-0.924,0.430,0.141
26.654,-0.920,0.441,0.137
26.664,-0.924,0.445,0.143
26.674,-0.918,0.439,0.137
26.684,-0.918,0.434,0.135
26.694,-0.916,0.432,0.137
26.704,-0.920,0.430,0.135
26.714,-0.918,0.430,0.131
26.724,-0.920,0.438,0.131
26.734,-0.920,0.436,0.135
26.744,-0.918,0.436,0.135
26.754,-0.916,0.439,0.137
26.764,-0.914,0.439,0.141
26.773,-0.910,0.434,0.143
26.783,-0.906,0.432,0.139
26.793,-0.910,0.426,0.141
26.803,-0.912,0.424,0.143
26.813,-0.916,0.420,0.145
26.823,-0.922,0.420,0.145
26.833,-0.924,0.420,0.143
26.843,-0.926,0.424,0.145
26.853,-0.926,0.424,0.152
26.863,-0.926,0.426,0.148
26.873,-0.924,0.420,0.148
26.883,-0.922,0.422,0.145
26.892,-0.922,0.416,0.145
26.902,-0.922,0.424,0.148
26.912,-0.926,0.422,0.150
26.922,-0.924,0.420,0.146
26.932,-0.920,0.420,0.146
26.942,-0.918,0.420,0.143
26.952,-0.924,0.424,0.145
26.962,-0.924,0.424,0.145
26.972,-0.922,0.424,0.146
26.982,-0.920,0.420,0.146
26.992,-0.920,0.420,0.146
27.002,-0.920,0.422,0.145
27.012,-0.920,0.418,0.150
27.021,-0.924,0.418,0.148
27.031,-0.928,0.416,0.148
27.041,-0.928,0.416,0.150
27.051,-0.928,0.414,0.150
27.061,-0.924,0.420,0.148
27.071,-0.920,0.416,0.154
27.081,-0.922,0.418,0.150
27.091,-0.924,0.420,0.150
27.101,-0.924,0.414,0.148
27.111,-0.926,0.412,0.150
27.121,-0.928,0.416,0.148
27.131,-0.928,0.418,0.152
27.140,-0.928,0.416,0.145
27.150,-0.924,0.412,0.146
27.160,-0.922,0.416,0.150
27.170,-0.924,0.420,0.150
27.180,-0.922,0.420,0.150
27.190,-0.922,0.418,0.152
27.200,-0.922,0.420,0.152
27.210,-0.916,0.414,0.150
27.220,-0.922,0.416,0.156
27.230,-0.924,0.418,0.154
27.240,-0.918,0.416,0.154
27.250,-0.922,0.414,0.156
27.260,-0.918,0.412,0.154
27.269,-0.920,0.412,0.156
27.279,-0.922,0.418,0.156
27.289,-0.924,0.412,0.152
27.299,-0.926,0.414,0.154
27.309,-0.922,0.418,0.156
27.319,-0.924,0.416,0.156
27.329,-0.920,0.416,0.154
27.339,-0.928,0.412,0.154
27.349,-0.928,0.416,0.154
27.359,-0.926,0.418,0.156
27.369,-0.922,0.416,0.160
27.379,-0.922,0.414,0.158
27.388,-0.922,0.410,0.156
27.398,-0.920,0.412,0.154
27.408,-0.920,0.406,0.156
27.418,-0.926,0.406,0.154
27.428,-0.924,0.414,0.154
27.438,-0.926,0.410,0.160
27.448,-0.930,0.414,0.154
27.458,-0.928,0.414,0.158
27.468,-0.928,0.414,0.160
27.478,-0.932,0.410,0.158
27.488,-0.924,0.412,0.160
27.498,-0.928,0.406,0.156
27.508,-0.926,0.406,0.156
27.517,-0.928,0.406,0.156
27.527,-0.924,0.408,0.160
27.537,-0.926,0.412,0.158
27.547,-0.926,0.412,0.158
27.557,-0.922,0.414,0.160
27.567,-0.924,0.414,0.160
27.577,-0.926,0.412,0.158
27.587,-0.926,0.410,0.154
27.597,-0.926,0.412,0.156
27.607,-0.924,0.412,0.162
27.617,-0.926,0.414,0.158
27.627,-0.926,0.410,0.162
27.636,-0.920,0.408,0.154
27.646,-0.922,0.408,0.160
27.656,-0.922,0.412,0.156
27.666,-0.924,0.412,0.156
27.676,-0.922,0.414,0.160
27.686,-0.924,0.414,0.158
27.696,-0.926,0.418,0.158
27.706,-0.926,0.418,0.158
27.716,-0.926,0.416,0.158
27.726,-0.920,0.410,0.160
27.736,-0.924,0.410,0.160
27.746,-0.924,0.410,0.158
27.756,-0.926,0.410,0.158
27.765,-0.928,0.406,0.156
27.775,-0.926,0.408,0.162
27.785,-0.926,0.406,0.158
27.795,-0.928,0.410,0.156
27.805,-0.926,0.412,0.156
27.815,-0.928,0.410,0.156
27.825,-0.926,0.412,0.156
27.835,-0.928,0.412,0.154
27.845,-0.928,0.410,0.158
27.855,-0.930,0.412,0.156
27.865,-0.928,0.416,0.160
27.875,-0.922,0.414,0.156
27.884,-0.922,0.414,0.160
27.894,-0.922,0.410,0.158
27.904,-0.920,0.414,0.156
27.914,-0.922,0.410,0.154
27.924,-0.920,0.410,0.160
27.934,-0.926,0.408,0.160
27.944,-0.926,0.408,0.154
27.954,-0.928,0.408,0.154
27.964,-0.930,0.410,0.156
27.974,-0.934,0.410,0.156
27.984,-0.930,0.406,0.156
27.994,-0.930,0.410,0.162
28.004,-0.924,0.412,0.158
28.013,-0.930,0.408,0.158
28.023,-0.930,0.410,0.158
28.033,-0.926,0.408,0.158
28.043,-0.922,0.410,0.164
28.053,-0.920,0.408,0.162
28.063,-0.924,0.410,0.164
28.073,-0.926,0.404,0.158
28.083,-0.922,0.408,0.158
28.093,-0.926,0.404,0.158
28.103,-0.928,0.412,0.154
28.113,-0.934,0.408,0.156
28.123,-0.932,0.410,0.158
28.132,-0.932,0.412,0.158
28.142,-0.930,0.406,0.158
28.152,-0.930,0.406,0.160
28.162,-0.928,0.410,0.158
28.172,-0.932,0.406,0.160
28.182,-0.932,0.398,0.160
28.192,-0.926,0.404,0.156
28.202,-0.926,0.406,0.158
28.212,-0.928,0.402,0.160
28.222,-0.928,0.406,0.158
28.232,-0.928,0.408,0.164
28.242,-0.928,0.410,0.160
28.252,-0.928,0.404,0.162
28.261,-0.928,0.404,0.158
28.271,-0.920,0.408,0.158
28.281,-0.924,0.414,0.164
28.291,-0.928,0.414,0.160
28.301,-0.924,0.412,0.162
28.311,-0.920,0.408,0.164
28.321,-0.924,0.404,0.158
28.331,-0.920,0.408,0.156
28.341,-0.920,0.418,0.160
28.351,-0.926,0.412,0.158
28.361,-0.928,0.414,0.160
28.371,-0.926,0.416,0.160
28.380,-0.922,0.414,0.160
28.390,-0.922,0.412,0.162
28.400,-0.924,0.406,0.160
28.410,-0.928,0.404,0.162
28.420,-0.924,0.400,0.162
28.430,-0.926,0.406,0.162
28.440,-0.932,0.406,0.158
28.450,-0.930,0.406,0.160
28.460,-0.928,0.408,0.160
28.470,-0.928,0.408,0.162
28.480,-0.928,0.408,0.164
28.490,-0.930,0.406,0.156
28.500,-0.928,0.408,0.160
28.509,-0.928,0.406,0.160
28.519,-0.926,0.406,0.158
28.529,-0.926,0.406,0.162
28.539,-0.924,0.408,0.160
28.549,-0.932,0.408,0.164
28.559,-0.930,0.410,0.160
28.569,-0.926,0.410,0.160
28.579,-0.926,0.402,0.158
28.589,-0.926,0.404,0.164
28.599,-0.924,0.408,0.160
28.609,-0.926,0.402,0.156
28.619,-0.924,0.408,0.162
28.629,-0.928,0.406,0.160
28.638,-0.930,0.408,0.162
28.648,-0.930,0.406,0.160
28.658,-0.928,0.406,0.160
28.668,-0.928,0.406,0.160
28.678,-0.928,0.406,0.160
28.688,-0.930,0.406,0.162
28.698,-0.928,0.406,0.160
28.708,-0.926,0.408,0.162
28.718,-0.922,0.402,0.164
28.728,-0.924,0.400,0.162
28.738,-0.926,0.402,0.162
28.748,-0.930,0.400,0.162
28.757,-0.928,0.404,0.164
28.767,-0.932,0.404,0.164
28.777,-0.930,0.406,0.158
28.787,-0.934,0.404,0.166
28.797,-0.934,0.408,0.160
28.807,-0.936,0.406,0.158
28.817,-0.930,0.400,0.162
28.827,-0.932,0.402,0.164
28.837,-0.930,0.402,0.162
28.847,-0.930,0.400,0.160
28.857,-0.932,0.396,0.160
28.867,-0.932,0.395,0.164
28.877,-0.926,0.396,0.160
28.886,-0.930,0.404,0.162
28.896,-0.928,0.396,0.164
28.906,-0.926,0.396,0.164
28.916,-0.928,0.404,0.164
28.926,-0.930,0.400,0.160
28.936,-0.928,0.406,0.162
28.946,-0.928,0.402,0.164
28.956,-0.932,0.408,0.164
28.966,-0.934,0.406,0.166
28.976,-0.932,0.402,0.162
28.986,-0.926,0.398,0.164
28.996,-0.928,0.400,0.162
29.005,-0.928,0.406,0.162
29.015,-0.930,0.404,0.164
29.025,-0.928,0.402,0.164
29.035,-0.930,0.408,0.162
29.045,-0.930,0.404,0.166
29.055,-0.928,0.402,0.168
29.065,-0.930,0.402,0.164
29.075,-0.932,0.396,0.164
29.085,-0.928,0.400,0.158
29.095,-0.936,0.398,0.164
29.105,-0.934,0.400,0.164
29.115,-0.934,0.402,0.162
29.125,-0.934,0.400,0.162
29.134,-0.932,0.398,0.162
29.144,-0.932,0.398,0.160
29.154,-0.932,0.400,0.164
29.164,-0.930,0.400,0.158
29.174,-0.930,0.396,0.162
29.184,-0.932,0.398,0.162
29.194,-0.932,0.402,0.162
29.204,-0.930,0.402,0.162
29.214,-0.932,0.400,0.160
29.224,-0.932,0.400,0.162
29.234,-0.928,0.402,0.164
29.244,-0.930,0.398,0.162
29.253,-0.932,0.402,0.158
29.263,-0.928,0.404,0.160
29.273,-0.928,0.404,0.162
29.283,-0.930,0.402,0.164
29.293,-0.928,0.406,0.164
29.303,-0.926,0.402,0.162
29.313,-0.936,0.398,0.162
29.323,-0.934,0.395,0.164
29.333,-0.936,0.398,0.166
29.343,-0.930,0.396,0.168
29.353,-0.928,0.395,0.170
29.363,-0.932,0.395,0.166
29.373,-0.932,0.395,0.162
29.382,-0.934,0.396,0.166
29.392,-0.934,0.395,0.164
29.402,-0.936,0.395,0.160
29.412,-0.932,0.396,0.168
29.422,-0.932,0.402,0.166
29.432,-0.936,0.398,0.164
29.442,-0.932,0.398,0.166
29.452,-0.930,0.398,0.166
29.462,-0.934,0.396,0.166
29.472,-0.934,0.393,0.166
29.482,-0.934,0.393,0.162
29.492,-0.936,0.393,0.162
29.501,-0.936,0.391,0.164
29.511,-0.936,0.391,0.166
29.521,-0.934,0.393,0.162
29.531,-0.936,0.393,0.162
29.541,-0.934,0.400,0.162
29.551,-0.932,0.398,0.166
29.561,-0.934,0.400,0.164
29.571,-0.932,0.396,0.162
29.581,-0.930,0.398,0.162
29.591,-0.928,0.404,0.166
29.601,-0.930,0.402,0.166
29.611,-0.926,0.398,0.166
29.621,-0.930,0.395,0.162
29.630,-0.932,0.396,0.160
29.640,-0.928,0.398,0.164
29.650,-0.934,0.402,0.164
29.660,-0.932,0.400,0.162
29.670,-0.930,0.398,0.166
29.680,-0.930,0.402,0.166
29.690,-0.930,0.398,0.160
29.700,-0.928,0.398,0.166
29.710,-0.932,0.396,0.164
29.720,-0.932,0.393,0.164
29.730,-0.934,0.393,0.160
29.740,-0.936,0.393,0.160
29.749,-0.936,0.396,0.164
29.759,-0.934,0.398,0.166
29.769,-0.934,0.400,0.162
29.779,-0.934,0.396,0.164
29.789,-0.934,0.396,0.162
29.799,-0.932,0.400,0.162
29.809,-0.934,0.400,0.162
29.819,-0.934,0.398,0.166
29.829,-0.934,0.396,0.164
29.839,-0.930,0.396,0.162
29.849,-0.932,0.398,0.164
29.859,-0.930,0.396,0.162
29.869,-0.930,0.398,0.164
29.878,-0.932,0.396,0.162
29.888,-0.930,0.398,0.162
29.898,-0.932,0.396,0.164
29.908,-0.930,0.395,0.160
29.918,-0.928,0.400,0.162
29.928,-0.932,0.395,0.164
29.938,-0.930,0.396,0.162
29.948,-0.930,0.395,0.164
29.958,-0.932,0.395,0.162
29.968,-0.938,0.395,0.162
29.978,-0.938,0.398,0.164
29.988,-0.928,0.402,0.164
29.997,-0.928,0.395,0.168
30.007,-0.930,0.395,0.166
30.017,-0.932,0.395,0.166
30.027,-0.936,0.395,0.164
30.037,-0.934,0.389,0.164
30.047,-0.938,0.393,0.164
30.057,-0.939,0.396,0.162
30.067,-0.941,0.396,0.164
30.077,-0.939,0.396,0.164
30.087,-0.938,0.396,0.166
30.097,-0.936,0.393,0.168
30.107,-0.936,0.395,0.162
30.117,-0.932,0.393,0.162
30.126,-0.934,0.393,0.162
30.136,-0.930,0.389,0.164
30.146,-0.934,0.395,0.164
30.156,-0.934,0.395,0.164
30.166,-0.934,0.395,0.162
30.176,-0.932,0.396,0.162
30.186,-0.932,0.398,0.164
30.196,-0.934,0.398,0.162
30.206,-0.932,0.395,0.160
30.216,-0.932,0.395,0.162
30.226,-0.932,0.396,0.164
30.236,-0.932,0.398,0.166
30.245,-0.930,0.404,0.162
30.255,-0.932,0.402,0.164
30.265,-0.930,0.396,0.164
30.275,-0.930,0.395,0.160
30.285,-0.926,0.402,0.162
30.295,-0.930,0.398,0.162
30.305,-0.932,0.398,0.162
30.315,-0.934,0.398,0.162
30.325,-0.932,0.400,0.164
30.335,-0.926,0.398,0.166
30.345,-0.932,0.395,0.164
30.355,-0.932,0.393,0.164
30.365,-0.930,0.395,0.164
30.374,-0.934,0.393,0.160
30.384,-0.939,0.393,0.162
30.394,-0.938,0.393,0.164
30.404,-0.936,0.398,0.160
30.414,-0.934,0.396,0.162
30.424,-0.936,0.395,0.162
30.434,-0.936,0.395,0.164
30.444,-0.934,0.395,0.160
30.454,-0.939,0.395,0.162
30.464,-0.936,0.396,0.162
30.474,-0.932,0.398,0.158
30.484,-0.932,0.398,0.162
30.493,-0.930,0.398,0.162
30.503,-0.930,0.396,0.164
30.513,-0.926,0.396,0.164
30.523,-0.932,0.396,0.164
30.533,-0.930,0.396,0.160
30.543,-0.932,0.395,0.164
30.553,-0.932,0.391,0.162
30.563,-0.932,0.391,0.164
30.573,-0.934,0.395,0.156
30.583,-0.936,0.391,0.162
30.593,-0.936,0.398,0.164
30.603,-0.934,0.398,0.164
30.613,-0.936,0.395,0.166
30.622,-0.936,0.395,0.164
30.632,-0.936,0.395,0.166
30.642,-0.941,0.393,0.166
30.652,-0.934,0.395,0.164
30.662,-0.930,0.395,0.170
30.672,-0.936,0.387,0.170
30.682,-0.934,0.389,0.164
30.692,-0.938,0.393,0.166
30.702,-0.936,0.389,0.162
30.712,-0.936,0.391,0.162
30.722,-0.938,0.396,0.164
30.732,-0.938,0.398,0.166
30.741,-0.936,0.395,0.168
30.751,-0.934,0.398,0.162
30.761,-0.932,0.396,0.164
30.771,-0.936,0.391,0.164
30.781,-0.934,0.393,0.166
30.791,-0.934,0.389,0.164
30.801,-0.934,0.389,0.162
30.811,-0.936,0.391,0.164
30.821,-0.939,0.391,0.164
30.831,-0.934,0.395,0.162
30.841,-0.934,0.393,0.166
30.851,-0.936,0.395,0.164
30.861,-0.932,0.389,0.162
30.870,-0.932,0.395,0.164
30.880,-0.932,0.395,0.166
30.890,-0.932,0.391,0.164
30.900,-0.934,0.393,0.160
30.910,-0.930,0.398,0.166
30.920,-0.934,0.398,0.162
30.930,-0.930,0.395,0.162
30.940,-0.934,0.391,0.162
30.950,-0.930,0.393,0.162
30.960,-0.936,0.393,0.162
30.970,-0.934,0.391,0.166
30.980,-0.936,0.395,0.162
30.989,-0.932,0.395,0.166
30.999,-0.936,0.395,0.164
31.009,-0.934,0.393,0.164
31.019,-0.934,0.393,0.164
31.029,-0.932,0.393,0.166
31.039,-0.936,0.389,0.166
31.049,-0.936,0.393,0.164
31.059,-0.934,0.393,0.164
31.069,-0.934,0.391,0.162
31.079,-0.936,0.395,0.168
31.089,-0.934,0.396,0.162
31.099,-0.934,0.395,0.164
31.109,-0.936,0.393,0.164
31.118,-0.936,0.395,0.164
31.128,-0.934,0.389,0.166
31.138,-0.932,0.393,0.164
31.148,-0.936,0.389,0.160
31.158,-0.932,0.391,0.164
31.168,-0.932,0.391,0.162
31.178,-0.936,0.395,0.164
31.188,-0.934,0.393,0.164
31.198,-0.936,0.396,0.162
31.208,-0.934,0.391,0.162
31.218,-0.936,0.389,0.164
31.228,-0.936,0.391,0.162
31.238,-0.932,0.393,0.162
31.247,-0.936,0.389,0.160
31.257,-0.938,0.389,0.162
31.267,-0.936,0.391,0.164
31.277,-0.932,0.393,0.164
31.287,-0.936,0.393,0.166
31.297,-0.936,0.393,0.164
31.307,-0.936,0.389,0.164
31.317,-0.938,0.389,0.168
31.327,-0.939,0.393,0.164
31.337,-0.934,0.395,0.166
31.347,-0.938,0.391,0.166
31.357,-0.936,0.389,0.164
31.366,-0.934,0.389,0.166
31.376,-0.928,0.385,0.168
31.386,-0.934,0.387,0.162
31.396,-0.932,0.391,0.168
31.406,-0.938,0.391,0.170
31.416,-0.939,0.393,0.164
31.426,-0.941,0.391,0.164
31.436,-0.939,0.387,0.166
31.446,-0.936,0.389,0.164
31.456,-0.939,0.389,0.164
31.466,-0.938,0.389,0.162
31.476,-0.939,0.389,0.162
31.486,-0.939,0.389,0.162
31.495,-0.938,0.389,0.164
31.505,-0.938,0.391,0.164
31.515,-0.936,0.393,0.162
31.525,-0.934,0.393,0.166
31.535,-0.934,0.395,0.166
31.545,-0.934,0.391,0.168
31.555,-0.932,0.385,0.170
31.565,-0.934,0.389,0.166
31.575,-0.936,0.389,0.164
31.585,-0.934,0.393,0.168
31.595,-0.936,0.396,0.166
31.605,-0.934,0.393,0.164
31.614,-0.930,0.391,0.168
31.624,-0.928,0.393,0.166
31.634,-0.932,0.393,0.162
31.644,-0.930,0.391,0.164
31.654,-0.932,0.393,0.164
31.664,-0.934,0.395,0.164
31.674,-0.934,0.395,0.168
31.684,-0.934,0.395,0.164
31.694,-0.934,0.396,0.166
31.704,-0.934,0.393,0.168
31.714,-0.934,0.393,0.164
31.724,-0.936,0.391,0.168
31.734,-0.934,0.389,0.164
31.743,-0.938,0.389,0.164
31.753,-0.936,0.391,0.166
31.763,-0.938,0.391,0.168
31.773,-0.936,0.395,0.166
31.783,-0.939,0.393,0.168
31.793,-0.938,0.393,0.168
31.803,-0.938,0.389,0.166
31.813,-0.934,0.393,0.162
31.823,-0.936,0.393,0.166
31.833,-0.936,0.391,0.166
31.843,-0.930,0.391,0.166
31.853,-0.932,0.395,0.166
31.862,-0.932,0.395,0.166
31.872,-0.934,0.393,0.164
31.882,-0.930,0.395,0.168
31.892,-0.932,0.387,0.168
31.902,-0.936,0.391,0.164
31.912,-0.934,0.389,0.164
31.922,-0.936,0.391,0.168
31.932,-0.938,0.389,0.168
31.942,-0.936,0.389,0.166
31.952,-0.938,0.389,0.166
31.962,-0.936,0.393,0.166
31.972,-0.936,0.389,0.166
31.982,-0.936,0.389,0.168
31.991,-0.938,0.385,0.170
32.001,-0.936,0.387,0.170
32.011,-0.936,0.389,0.166
32.021,-0.939,0.385,0.166
32.031,-0.941,0.387,0.166
32.041,-0.938,0.393,0.168
32.051,-0.936,0.389,0.170
32.061,-0.932,0.387,0.170
32.071,-0.934,0.387,0.166
32.081,-0.938,0.381,0.170
32.091,-0.934,0.385,0.164
32.101,-0.936,0.387,0.168
32.110,-0.941,0.383,0.166
32.120,-0.938,0.396,0.168
32.130,-0.939,0.393,0.172
32.140,-0.939,0.387,0.164
32.150,-0.938,0.393,0.168
32.160,-0.938,0.389,0.170
32.170,-0.939,0.385,0.164
32.180,-0.936,0.387,0.166
32.190,-0.938,0.383,0.164
32.200,-0.938,0.377,0.164
32.210,-0.938,0.385,0.166
32.220,-0.939,0.385,0.170
32.230,-0.938,0.389,0.168
32.239,-0.939,0.391,0.172
32.249,-0.934,0.393,0.166
32.259,-0.936,0.389,0.168
32.269,-0.938,0.389,0.166
32.279,-0.938,0.389,0.166
32.289,-0.936,0.387,0.168
32.299,-0.938,0.391,0.168
32.309,-0.939,0.393,0.170
32.319,-0.936,0.395,0.170
32.329,-0.930,0.389,0.170
32.339,-0.930,0.385,0.166
32.349,-0.932,0.391,0.168
32.358,-0.934,0.393,0.166
32.368,-0.934,0.393,0.172
32.378,-0.932,0.393,0.166
32.388,-0.934,0.395,0.164
32.398,-0.932,0.389,0.168
32.408,-0.932,0.389,0.170
32.418,-0.934,0.389,0.168
32.428,-0.938,0.385,0.162
32.438,-0.938,0.389,0.168
32.448,-0.936,0.387,0.168
32.458,-0.936,0.391,0.166
32.468,-0.934,0.391,0.166
32.478,-0.934,0.393,0.170
32.487,-0.936,0.391,0.166
32.497,-0.936,0.389,0.168
32.507,-0.934,0.391,0.170
32.517,-0.934,0.391,0.168
32.527,-0.932,0.391,0.168
32.537,-0.934,0.389,0.168
32.547,-0.936,0.385,0.168
32.557,-0.936,0.389,0.168
32.567,-0.934,0.391,0.166
32.577,-0.938,0.385,0.164
32.587,-0.938,0.389,0.168
32.597,-0.938,0.389,0.166
32.606,-0.936,0.389,0.168
32.616,-0.936,0.393,0.166
32.626,-0.934,0.389,0.166
32.636,-0.934,0.391,0.166
32.646,-0.934,0.391,0.170
32.656,-0.930,0.385,0.170
32.666,-0.932,0.387,0.166
32.676,-0.938,0.385,0.170
32.686,-0.938,0.389,0.170
32.696,-0.938,0.389,0.168
32.706,-0.939,0.391,0.166
32.716,-0.936,0.389,0.166
32.726,-0.936,0.389,0.166
32.735,-0.938,0.389,0.170
32.745,-0.939,0.387,0.166
32.755,-0.939,0.391,0.172
32.765,-0.934,0.395,0.170
32.775,-0.930,0.387,0.172
32.785,-0.930,0.387,0.172
32.795,-0.932,0.387,0.170
32.805,-0.934,0.387,0.170
32.815,-0.930,0.387,0.166
32.825,-0.934,0.389,0.166
32.835,-0.936,0.393,0.168
32.845,-0.938,0.395,0.168
32.854,-0.939,0.391,0.170
32.864,-0.938,0.391,0.166
32.874,-0.936,0.391,0.166
32.884,-0.941,0.387,0.168
32.894,-0.941,0.385,0.168
32.904,-0.939,0.385,0.168
32.914,-0.936,0.385,0.168
32.924,-0.938,0.387,0.170
32.934,-0.938,0.385,0.170
32.944,-0.939,0.387,0.170
32.954,-0.936,0.389,0.170
32.964,-0.934,0.389,0.172
32.974,-0.938,0.391,0.170
32.983,-0.934,0.389,0.168
32.993,-0.936,0.391,0.170
33.003,-0.936,0.387,0.168
33.013,-0.934,0.391,0.168
33.023,-0.936,0.396,0.170
33.033,-0.934,0.393,0.172
33.043,-0.932,0.383,0.172
33.053,-0.930,0.387,0.170
33.063,-0.930,0.389,0.168
33.073,-0.934,0.387,0.166
33.083,-0.939,0.389,0.166
33.093,-0.936,0.391,0.170
33.102,-0.938,0.391,0.170
33.112,-0.936,0.389,0.168
33.122,-0.934,0.387,0.166
33.132,-0.938,0.389,0.166
33.142,-0.938,0.385,0.172
33.152,-0.939,0.385,0.170
33.162,-0.936,0.385,0.170
33.172,-0.936,0.387,0.168
33.182,-0.936,0.389,0.168
33.192,-0.938,0.387,0.172
33.202,-0.939,0.389,0.170
33.212,-0.934,0.389,0.168
33.222,-0.938,0.389,0.166
33.231,-0.941,0.383,0.164
33.241,-0.939,0.391,0.170
33.251,-0.938,0.383,0.166
33.261,-0.938,0.387,0.168
33.271,-0.936,0.389,0.164
33.281,-0.936,0.389,0.170
33.291,-0.934,0.387,0.166
33.301,-0.936,0.389,0.172
33.311,-0.934,0.387,0.166
33.321,-0.938,0.387,0.166
33.331,-0.934,0.389,0.164
33.341,-0.938,0.389,0.168
33.350,-0.936,0.387,0.164
33.360,-0.939,0.391,0.164
33.370,-0.938,0.391,0.170
33.380,-0.938,0.387,0.166
33.390,-0.938,0.389,0.168
33.400,-0.934,0.389,0.168
33.410,-0.936,0.387,0.170
33.420,-0.938,0.387,0.170
33.430,-0.936,0.385,0.170
33.440,-0.936,0.385,0.172
33.450,-0.934,0.385,0.176
33.460,-0.934,0.383,0.176
33.470,-0.938,0.385,0.170
33.479,-0.939,0.385,0.172
33.489,-0.936,0.385,0.172
33.499,-0.936,0.383,0.170
33.509,-0.939,0.389,0.168
33.519,-0.939,0.389,0.176
33.529,-0.939,0.389,0.172
33.539,-0.938,0.387,0.172
33.549,-0.932,0.389,0.172
33.559,-0.939,0.385,0.170
33.569,-0.938,0.387,0.176
33.579,-0.936,0.381,0.176
33.589,-0.938,0.383,0.178
33.598,-0.939,0.381,0.174
33.608,-0.939,0.379,0.174
33.618,-0.938,0.379,0.174
33.628,-0.938,0.381,0.170
33.638,-0.936,0.381,0.172
33.648,-0.936,0.385,0.174
33.658,-0.938,0.383,0.172
33.668,-0.936,0.381,0.174
33.678,-0.936,0.389,0.174
33.688,-0.938,0.383,0.176
33.698,-0.936,0.389,0.178
33.708,-0.938,0.389,0.172
33.718,-0.934,0.385,0.176
33.727,-0.936,0.379,0.172
33.737,-0.938,0.381,0.168
33.747,-0.936,0.389,0.172
33.757,-0.938,0.385,0.174
33.767,-0.939,0.385,0.168
33.777,-0.936,0.389,0.174
33.787,-0.938,0.385,0.174
33.797,-0.936,0.387,0.172
33.807,-0.934,0.387,0.178
33.817,-0.939,0.383,0.172
33.827,-0.936,0.383,0.174
33.837,-0.939,0.383,0.172
33.847,-0.936,0.383,0.174
33.856,-0.938,0.383,0.170
33.866,-0.941,0.385,0.170
33.876,-0.941,0.383,0.170
33.886,-0.943,0.383,0.170
33.896,-0.941,0.381,0.170
33.906,-0.941,0.383,0.170
33.916,-0.938,0.381,0.174
33.926,-0.939,0.385,0.168
33.936,-0.938,0.383,0.168
33.946,-0.938,0.383,0.170
33.956,-0.936,0.383,0.172
33.966,-0.934,0.381,0.168
33.975,-0.936,0.385,0.172
33.985,-0.938,0.383,0.168
33.995,-0.938,0.385,0.168
34.005,-0.936,0.381,0.164
34.015,-0.938,0.383,0.164
34.025,-0.938,0.383,0.174
34.035,-0.939,0.385,0.168
34.045,-0.939,0.385,0.168
34.055,-0.939,0.383,0.172
34.065,-0.936,0.381,0.170
34.075,-0.939,0.383,0.170
34.085,-0.941,0.379,0.172
34.095,-0.939,0.381,0.168
34.104,-0.936,0.383,0.172
34.114,-0.936,0.377,0.174
34.124,-0.938,0.379,0.172
34.134,-0.939,0.381,0.172
34.144,-0.941,0.383,0.172
34.154,-0.939,0.379,0.168
34.164,-0.943,0.381,0.166
34.174,-0.941,0.381,0.172
34.184,-0.943,0.383,0.172
34.194,-0.941,0.377,0.168
34.204,-0.938,0.377,0.168
34.214,-0.943,0.379,0.168
34.223,-0.943,0.381,0.172
34.233,-0.945,0.377,0.174
34.243,-0.943,0.377,0.170
34.253,-0.945,0.377,0.172
34.263,-0.941,0.377,0.168
34.273,-0.941,0.375,0.172
34.283,-0.938,0.379,0.170
34.293,-0.938,0.377,0.172
34.303,-0.939,0.381,0.174
34.313,-0.941,0.381,0.172
34.323,-0.941,0.379,0.168
34.333,-0.941,0.381,0.164
34.343,-0.943,0.379,0.166
34.352,-0.941,0.379,0.174
34.362,-0.941,0.383,0.174
34.372,-0.939,0.383,0.170
34.382,-0.938,0.381,0.170
34.392,-0.934,0.377,0.170
34.402,-0.938,0.377,0.170
34.412,-0.936,0.383,0.170
34.422,-0.939,0.383,0.168
34.432,-0.939,0.381,0.172
34.442,-0.939,0.385,0.172
34.452,-0.936,0.383,0.172
34.462,-0.939,0.381,0.172
34.471,-0.938,0.379,0.170
34.481,-0.941,0.381,0.170
34.491,-0.943,0.373,0.174
34.501,-0.941,0.377,0.170
34.511,-0.939,0.381,0.174
34.521,-0.938,0.377,0.170
34.531,-0.943,0.377,0.170
34.541,-0.943,0.379,0.174
34.551,-0.945,0.377,0.170
34.561,-0.943,0.379,0.174
34.571,-0.939,0.379,0.172
34.581,-0.941,0.377,0.170
34.591,-0.941,0.377,0.170
34.600,-0.941,0.383,0.170
34.610,-0.938,0.385,0.170
34.620,-0.939,0.381,0.174
34.630,-0.939,0.381,0.170
34.640,-0.938,0.383,0.174
34.650,-0.934,0.377,0.170
34.660,-0.939,0.379,0.172
34.670,-0.938,0.379,0.170
34.680,-0.936,0.383,0.172
34.690,-0.938,0.381,0.170
34.700,-0.939,0.381,0.170
34.710,-0.939,0.383,0.170
34.719,-0.941,0.383,0.172
34.729,-0.943,0.381,0.168
34.739,-0.943,0.385,0.172
34.749,-0.939,0.387,0.172
34.759,-0.938,0.383,0.176
34.769,-0.934,0.379,0.176
34.779,-0.936,0.375,0.172
34.789,-0.939,0.381,0.172
34.799,-0.938,0.379,0.174
34.809,-0.936,0.379,0.172
34.819,-0.941,0.379,0.172
34.829,-0.941,0.383,0.174
34.839,-0.939,0.381,0.174
34.848,-0.943,0.379,0.172
34.858,-0.941,0.379,0.170
34.868,-0.941,0.379,0.170
34.878,-0.941,0.375,0.172
34.888,-0.941,0.373,0.174
34.898,-0.939,0.375,0.172
34.908,-0.941,0.377,0.170
34.918,-0.941,0.375,0.168
34.928,-0.943,0.375,0.166
34.938,-0.943,0.377,0.172
34.948,-0.941,0.379,0.172
34.958,-0.939,0.379,0.172
34.967,-0.938,0.379,0.172
34.977,-0.938,0.377,0.170
34.987,-0.939,0.379,0.170
34.997,-0.939,0.381,0.168
35.007,-0.936,0.381,0.168
35.017,-0.936,0.385,0.172
35.027,-0.938,0.379,0.168
35.037,-0.936,0.379,0.172
35.047,-0.936,0.375,0.170
35.057,-0.936,0.381,0.170
35.067,-0.938,0.381,0.174
35.077,-0.941,0.381,0.172
35.087,-0.941,0.377,0.168
35.096,-0.941,0.379,0.170
35.106,-0.939,0.381,0.174
35.116,-0.941,0.379,0.172
35.126,-0.943,0.377,0.172
35.136,-0.941,0.375,0.172
35.146,-0.938,0.375,0.172
35.156,-0.939,0.375,0.170
35.166,-0.943,0.375,0.170
35.176,-0.939,0.379,0.170
35.186,-0.943,0.373,0.168
35.196,-0.945,0.379,0.172
35.206,-0.945,0.379,0.172
35.215,-0.941,0.379,0.170
35.225,-0.943,0.379,0.170
35.235,-0.941,0.375,0.170
35.245,-0.939,0.379,0.170
35.255,-0.939,0.379,0.170
35.265,-0.941,0.379,0.170
35.275,-0.941,0.377,0.172
35.285,-0.938,0.377,0.172
35.295,-0.939,0.381,0.170
35.305,-0.936,0.379,0.170
35.315,-0.939,0.381,0.174
35.325,-0.939,0.383,0.170
35.335,-0.938,0.379,0.174
35.344,-0.938,0.379,0.168
35.354,-0.941,0.377,0.166
35.364,-0.941,0.377,0.170
35.374,-0.939,0.375,0.170
35.384,-0.943,0.377,0.166
35.394,-0.943,0.377,0.172
35.404,-0.945,0.379,0.170
35.414,-0.947,0.375,0.172
35.424,-0.949,0.371,0.164
35.434,-0.947,0.373,0.168
35.444,-0.951,0.377,0.172
35.454,-0.945,0.373,0.174
35.463,-0.943,0.377,0.182
35.473,-0.949,0.387,0.182
35.483,-0.943,0.375,0.174
35.493,-0.939,0.365,0.172
35.503,-0.938,0.365,0.168
35.513,-0.938,0.373,0.170
35.523,-0.938,0.377,0.172
35.533,-0.938,0.379,0.178
35.543,-0.936,0.381,0.180
35.553,-0.936,0.379,0.182
35.563,-0.939,0.373,0.180
35.573,-0.934,0.377,0.180
35.583,-0.941,0.369,0.176
35.592,-0.941,0.369,0.174
35.602,-0.943,0.369,0.180
35.612,-0.945,0.369,0.178
35.622,-0.945,0.369,0.174
35.632,-0.949,0.373,0.178
35.642,-0.949,0.369,0.178
35.652,-0.947,0.371,0.178
35.662,-0.947,0.371,0.180
35.672,-0.943,0.373,0.180
35.682,-0.945,0.369,0.178
35.692,-0.941,0.365,0.180
35.702,-0.941,0.373,0.184
35.711,-0.939,0.381,0.186
35.721,-0.941,0.375,0.182
35.731,-0.938,0.369,0.180
35.741,-0.938,0.373,0.180
35.751,-0.934,0.371,0.178
35.761,-0.938,0.375,0.176
35.771,-0.943,0.377,0.178
35.781,-0.939,0.379,0.178
35.791,-0.943,0.377,0.178
35.801,-0.941,0.381,0.178
35.811,-0.941,0.379,0.178
35.821,-0.939,0.375,0.180
35.831,-0.941,0.375,0.180
35.840,-0.943,0.377,0.178
35.850,-0.939,0.375,0.180
35.860,-0.949,0.373,0.176
35.870,-0.957,0.363,0.172
35.880,-0.982,0.361,0.164
35.890,-0.986,0.359,0.162
35.900,-0.977,0.357,0.168
35.910,-0.965,0.371,0.178
35.920,-0.941,0.381,0.193
35.930,-0.932,0.389,0.197
35.940,-0.920,0.387,0.197
35.950,-0.912,0.385,0.203
35.959,-0.904,0.383,0.203
35.969,-0.898,0.381,0.201
35.979,-0.900,0.381,0.199
35.989,-0.906,0.385,0.199
35.999,-0.912,0.387,0.199
36.009,-0.918,0.387,0.195
36.019,-0.920,0.391,0.199
36.029,-0.922,0.385,0.191
36.039,-0.928,0.381,0.184
36.049,-0.932,0.377,0.176
36.059,-0.938,0.373,0.178
36.069,-0.941,0.373,0.176
36.079,-0.947,0.375,0.178
36.088,-0.949,0.371,0.178
36.098,-0.953,0.369,0.176
36.108,-0.957,0.363,0.178
36.118,-0.955,0.363,0.176
36.128,-0.959,0.355,0.170
36.138,-0.959,0.357,0.176
36.148,-0.957,0.365,0.178
36.158,-0.951,0.365,0.182
36.168,-0.949,0.357,0.184
36.178,-0.945,0.361,0.184
36.188,-0.947,0.361,0.186
36.198,-0.947,0.357,0.182
36.207,-0.949,0.357,0.178
36.217,-0.949,0.361,0.182
36.227,-0.953,0.363,0.178
36.237,-0.953,0.365,0.180
36.247,-0.953,0.363,0.178
36.257,-0.955,0.361,0.176
36.267,-0.953,0.363,0.180
36.277,-0.953,0.363,0.180
36.287,-0.951,0.365,0.178
36.297,-0.951,0.355,0.178
36.307,-0.951,0.359,0.176
36.317,-0.945,0.361,0.180
36.327,-0.945,0.365,0.180
36.336,-0.943,0.361,0.182
36.346,-0.941,0.367,0.184
36.356,-0.941,0.363,0.184
36.366,-0.941,0.361,0.182
36.376,-0.939,0.359,0.178
36.386,-0.939,0.359,0.182
36.396,-0.943,0.359,0.180
36.406,-0.943,0.357,0.178
36.416,-0.949,0.367,0.184
36.426,-0.945,0.367,0.180
36.436,-0.945,0.369,0.180
36.446,-0.943,0.369,0.182
36.456,-0.939,0.369,0.178
36.465,-0.934,0.363,0.180
36.475,-0.936,0.365,0.178
36.485,-0.936,0.371,0.184
36.495,-0.938,0.377,0.184
36.505,-0.943,0.383,0.186
36.515,-0.953,0.377,0.184
36.525,-0.957,0.371,0.180
36.535,-0.953,0.367,0.170
36.545,-0.947,0.359,0.174
36.555,-0.947,0.355,0.176
36.565,-0.951,0.357,0.178
36.575,-0.949,0.355,0.178
36.584,-0.951,0.357,0.182
36.594,-0.949,0.357,0.180
36.604,-0.951,0.359,0.184
36.614,-0.951,0.359,0.178
36.624,-0.947,0.361,0.180
36.634,-0.949,0.361,0.178
36.644,-0.947,0.355,0.180
36.654,-0.947,0.355,0.178
36.664,-0.949,0.359,0.178
36.674,-0.947,0.357,0.182
36.684,-0.949,0.357,0.176
36.694,-0.949,0.359,0.178
36.704,-0.947,0.359,0.178
36.713,-0.951,0.361,0.180
36.723,-0.945,0.363,0.180
36.733,-0.945,0.363,0.178
36.743,-0.943,0.359,0.178
36.753,-0.939,0.361,0.180
36.763,-0.939,0.359,0.180
36.773,-0.941,0.359,0.178
36.783,-0.943,0.359,0.178
36.793,-0.947,0.357,0.182
36.803,-0.947,0.359,0.182
36.813,-0.951,0.361,0.180
36.823,-0.951,0.361,0.182
36.832,-0.951,0.361,0.178
36.842,-0.951,0.359,0.178
36.852,-0.949,0.357,0.178
36.862,-0.947,0.355,0.180
36.872,-0.949,0.355,0.182
36.882,-0.951,0.363,0.180
36.892,-0.943,0.357,0.184
36.902,-0.945,0.355,0.186
36.912,-0.949,0.357,0.184
36.922,-0.947,0.357,0.184
36.932,-0.947,0.357,0.180
36.942,-0.951,0.357,0.178
36.952,-0.951,0.359,0.178
36.961,-0.955,0.357,0.178
36.971,-0.951,0.361,0.178
36.981,-0.953,0.359,0.176
36.991,-0.953,0.357,0.180
37.001,-0.955,0.359,0.178
37.011,-0.949,0.357,0.180
37.021,-0.953,0.357,0.180
37.031,-0.955,0.355,0.182
37.041,-0.951,0.355,0.180
37.051,-0.947,0.355,0.180
37.061,-0.945,0.357,0.180
37.071,-0.945,0.354,0.182
37.080,-0.947,0.357,0.180
37.090,-0.947,0.361,0.184
37.100,-0.947,0.359,0.182
37.110,-0.947,0.361,0.182
37.120,-0.949,0.359,0.180
37.130,-0.947,0.361,0.178
37.140,-0.949,0.365,0.182
37.150,-0.947,0.369,0.182
37.160,-0.945,0.365,0.182
37.170,-0.941,0.363,0.180
37.180,-0.945,0.361,0.182
37.190,-0.941,0.365,0.180
37.200,-0.945,0.363,0.186
37.209,-0.945,0.361,0.184
37.219,-0.943,0.363,0.184
37.229,-0.947,0.363,0.182
37.239,-0.951,0.361,0.182
37.249,-0.945,0.361,0.180
37.259,-0.951,0.355,0.180
37.269,-0.949,0.359,0.182
37.279,-0.949,0.357,0.182
37.289,-0.945,0.359,0.182
37.299,-0.947,0.359,0.182
37.309,-0.949,0.359,0.182
37.319,-0.949,0.361,0.180
37.328,-0.947,0.359,0.182
37.338,-0.949,0.361,0.182
37.348,-0.951,0.363,0.182
37.358,-0.951,0.361,0.180
37.368,-0.945,0.363,0.182
37.378,-0.947,0.361,0.184
37.388,-0.947,0.361,0.180
37.398,-0.949,0.359,0.182
37.408,-0.949,0.359,0.182
37.418,-0.945,0.361,0.184
37.428,-0.949,0.359,0.180
37.438,-0.945,0.363,0.180
37.448,-0.951,0.361,0.182
37.457,-0.951,0.357,0.178
37.467,-0.953,0.357,0.180
37.477,-0.949,0.359,0.180
37.487,-0.947,0.357,0.182
37.497,-0.947,0.359,0.182
37.507,-0.945,0.357,0.180
37.517,-0.947,0.359,0.186
37.527,-0.947,0.359,0.184
37.537,-0.947,0.361,0.180
37.547,-0.949,0.359,0.184
37.557,-0.949,0.359,0.180
37.567,-0.947,0.359,0.184
37.576,-0.941,0.355,0.188
37.586,-0.947,0.357,0.182
37.596,-0.951,0.359,0.180
37.606,-0.949,0.359,0.180
37.616,-0.947,0.355,0.180
37.626,-0.951,0.357,0.176
37.636,-0.951,0.357,0.182
37.646,-0.949,0.355,0.184
37.656,-0.953,0.357,0.182
37.666,-0.949,0.357,0.184
37.676,-0.953,0.357,0.186
37.686,-0.951,0.355,0.186
37.696,-0.951,0.354,0.186
37.705,-0.949,0.352,0.180
37.715,-0.949,0.354,0.178
37.725,-0.953,0.352,0.182
37.735,-0.951,0.355,0.184
37.745,-0.947,0.357,0.182
37.755,-0.953,0.354,0.182
37.765,-0.947,0.359,0.182
37.775,-0.947,0.359,0.182
37.785,-0.947,0.361,0.182
37.795,-0.947,0.361,0.182
37.805,-0.945,0.365,0.182
37.815,-0.947,0.363,0.186
37.824,-0.945,0.363,0.188
37.834,-0.941,0.363,0.184
37.844,-0.939,0.357,0.184
37.854,-0.939,0.357,0.182
37.864,-0.943,0.359,0.180
37.874,-0.947,0.361,0.186
37.884,-0.951,0.361,0.184
37.894,-0.949,0.363,0.180
37.904,-0.947,0.361,0.182
37.914,-0.949,0.357,0.184
37.924,-0.947,0.359,0.184
37.934,-0.943,0.361,0.186
37.944,-0.943,0.357,0.184
37.953,-0.947,0.359,0.182
37.963,-0.947,0.361,0.182
37.973,-0.945,0.361,0.184
37.983,-0.949,0.361,0.184
37.993,-0.945,0.365,0.180
38.003,-0.947,0.363,0.182
38.013,-0.945,0.359,0.182
38.023,-0.945,0.359,0.184
38.033,-0.943,0.359,0.176
38.043,-0.943,0.361,0.182
38.053,-0.943,0.359,0.180
38.063,-0.947,0.361,0.182
38.072,-0.947,0.361,0.182
38.082,-0.941,0.359,0.186
38.092,-0.943,0.359,0.188
38.102,-0.941,0.361,0.184
38.112,-0.941,0.359,0.182
38.122,-0.947,0.363,0.180
38.132,-0.947,0.361,0.180
38.142,-0.949,0.365,0.178
38.152,-0.951,0.363,0.176
38.162,-0.951,0.365,0.180
38.172,-0.945,0.361,0.180
38.182,-0.947,0.361,0.180
38.192,-0.951,0.359,0.182
38.201,-0.953,0.357,0.180
38.211,-0.953,0.363,0.180
38.221,-0.947,0.361,0.184
38.231,-0.941,0.357,0.188
38.241,-0.941,0.357,0.184
38.251,-0.947,0.361,0.184
38.261,-0.945,0.365,0.184
38.271,-0.945,0.363,0.184
38.281,-0.949,0.359,0.184
38.291,-0.949,0.363,0.184
38.301,-0.951,0.363,0.184
38.311,-0.951,0.359,0.184
38.320,-0.953,0.361,0.184
38.330,-0.951,0.361,0.180
38.340,-0.949,0.357,0.180
38.350,-0.947,0.355,0.184
38.360,-0.947,0.355,0.186
38.370,-0.945,0.355,0.182
38.380,-0.949,0.355,0.178
38.390,-0.945,0.355,0.184
38.400,-0.945,0.355,0.180
38.410,-0.947,0.361,0.182
38.420,-0.947,0.359,0.182
38.430,-0.949,0.359,0.182
38.440,-0.951,0.359,0.182
38.449,-0.951,0.357,0.180
38.459,-0.949,0.359,0.180
38.469,-0.947,0.359,0.182
38.479,-0.951,0.361,0.186
38.489,-0.951,0.365,0.182
38.499,-0.947,0.359,0.184
38.509,-0.945,0.352,0.184
38.519,-0.943,0.355,0.180
38.529,-0.941,0.359,0.180
38.539,-0.943,0.359,0.182
38.549,-0.949,0.361,0.184
38.559,-0.943,0.361,0.184
38.568,-0.945,0.361,0.184
38.578,-0.943,0.359,0.186
38.588,-0.945,0.357,0.188
38.598,-0.947,0.352,0.184
38.608,-0.949,0.354,0.184
38.618,-0.945,0.354,0.182
38.628,-0.949,0.352,0.186
38.638,-0.949,0.357,0.182
38.648,-0.945,0.359,0.182
38.658,-0.947,0.357,0.182
38.668,-0.949,0.357,0.180
38.678,-0.949,0.359,0.186
38.688,-0.951,0.357,0.182
38.697,-0.951,0.355,0.180
38.707,-0.945,0.357,0.182
38.717,-0.949,0.359,0.186
38.727,-0.947,0.359,0.184
38.737,-0.949,0.355,0.184
38.747,-0.951,0.355,0.182
38.757,-0.949,0.355,0.184
38.767,-0.949,0.352,0.184
38.777,-0.953,0.354,0.180
38.787,-0.951,0.355,0.178
38.797,-0.951,0.357,0.182
38.807,-0.953,0.359,0.178
38.816,-0.955,0.354,0.182
38.826,-0.955,0.355,0.184
38.836,-0.951,0.354,0.182
38.846,-0.953,0.355,0.180
38.856,-0.953,0.354,0.182
38.866,-0.953,0.357,0.186
38.876,-0.949,0.359,0.184
38.886,-0.945,0.354,0.188
38.896,-0.943,0.354,0.188
38.906,-0.949,0.357,0.188
38.916,-0.953,0.357,0.182
38.926,-0.951,0.355,0.182
38.936,-0.953,0.355,0.178
38.945,-0.949,0.357,0.182
38.955,-0.955,0.357,0.182
38.965,-0.953,0.359,0.184
38.975,-0.957,0.354,0.182
38.985,-0.953,0.355,0.182
38.995,-0.951,0.357,0.182
39.005,-0.947,0.350,0.180
39.015,-0.951,0.354,0.184
39.025,-0.949,0.350,0.184
39.035,-0.947,0.352,0.182
39.045,-0.951,0.350,0.182
39.055,-0.951,0.354,0.184
39.064,-0.947,0.355,0.182
39.074,-0.947,0.354,0.180
39.084,-0.949,0.354,0.182
39.094,-0.951,0.352,0.182
39.104,-0.949,0.355,0.186
39.114,-0.949,0.355,0.182
39.124,-0.951,0.357,0.182
39.134,-0.949,0.359,0.186
39.144,-0.951,0.361,0.184
39.154,-0.949,0.355,0.182
39.164,-0.949,0.352,0.180
39.174,-0.947,0.350,0.178
39.184,-0.951,0.354,0.186
39.193,-0.951,0.354,0.182
39.203,-0.951,0.354,0.184
39.213,-0.951,0.357,0.184
39.223,-0.953,0.355,0.186
39.233,-0.953,0.354,0.184
39.243,-0.955,0.352,0.186
39.253,-0.955,0.350,0.182
39.263,-0.953,0.350,0.184
39.273,-0.953,0.354,0.186
39.283,-0.953,0.354,0.182
39.293,-0.951,0.355,0.184
39.303,-0.949,0.354,0.186
39.313,-0.951,0.355,0.180
39.322,-0.949,0.355,0.182
39.332,-0.951,0.355,0.180
39.342,-0.951,0.355,0.182
39.352,-0.947,0.357,0.182
39.362,-0.951,0.357,0.178
39.372,-0.947,0.355,0.180
39.382,-0.949,0.361,0.182
39.392,-0.949,0.361,0.182
39.402,-0.949,0.357,0.178
39.412,-0.947,0.357,0.180
39.422,-0.947,0.357,0.180
39.432,-0.943,0.357,0.180
39.441,-0.947,0.357,0.184
39.451,-0.945,0.357,0.180
39.461,-0.949,0.359,0.182
39.471,-0.949,0.354,0.180
39.481,-0.945,0.359,0.184
39.491,-0.949,0.355,0.178
39.501,-0.951,0.355,0.182
39.511,-0.947,0.354,0.182
39.521,-0.945,0.355,0.186
39.531,-0.947,0.359,0.182
39.541,-0.951,0.355,0.186
39.551,-0.951,0.357,0.188
39.561,-0.953,0.363,0.180
39.570,-0.945,0.359,0.182
39.580,-0.941,0.352,0.182
39.590,-0.947,0.352,0.184
39.600,-0.947,0.357,0.184
39.610,-0.947,0.355,0.182
39.620,-0.951,0.354,0.182
39.630,-0.949,0.357,0.178
39.640,-0.955,0.357,0.182
39.650,-0.957,0.359,0.182
39.660,-0.955,0.355,0.182
39.670,-0.949,0.357,0.182
39.680,-0.953,0.352,0.186
39.689,-0.949,0.352,0.186
39.699,-0.949,0.352,0.182
39.709,-0.949,0.350,0.184
39.719,-0.949,0.350,0.180
39.729,-0.949,0.352,0.180
39.739,-0.951,0.354,0.186
39.749,-0.953,0.355,0.184
39.759,-0.951,0.354,0.180
39.769,-0.949,0.355,0.182
39.779,-0.951,0.352,0.186
39.789,-0.947,0.357,0.182
39.799,-0.951,0.354,0.184
39.809,-0.947,0.355,0.180
39.818,-0.951,0.355,0.184
39.828,-0.947,0.361,0.184
39.838,-0.951,0.361,0.184
39.848,-0.947,0.357,0.182
39.858,-0.945,0.354,0.182
39.868,-0.945,0.355,0.180
39.878,-0.947,0.354,0.182
39.888,-0.945,0.354,0.188
39.898,-0.949,0.355,0.182
39.908,-0.949,0.354,0.184
39.918,-0.953,0.357,0.184
39.928,-0.951,0.355,0.184
39.937,-0.951,0.354,0.188
39.947,-0.949,0.354,0.186
39.957,-0.951,0.350,0.186
39.967,-0.949,0.350,0.184
39.977,-0.951,0.350,0.186
39.987,-0.951,0.348,0.184
39.997,-0.951,0.350,0.184
40.007,-0.953,0.355,0.186
40.017,-0.953,0.355,0.184
40.027,-0.955,0.354,0.182
40.037,-0.951,0.355,0.186
40.047,-0.951,0.355,0.184
40.057,-0.949,0.355,0.184
40.066,-0.947,0.354,0.182
40.076,-0.947,0.354,0.186
40.086,-0.945,0.355,0.184
40.096,-0.947,0.357,0.182
40.106,-0.947,0.359,0.182
40.116,-0.947,0.357,0.180
40.126,-0.949,0.354,0.182
40.136,-0.951,0.355,0.182
40.146,-0.947,0.355,0.184
40.156,-0.949,0.355,0.182
40.166,-0.951,0.354,0.182
40.176,-0.947,0.357,0.182
40.185,-0.953,0.357,0.182
40.195,-0.949,0.359,0.184
40.205,-0.949,0.355,0.184
40.215,-0.947,0.355,0.184
40.225,-0.947,0.359,0.184
40.235,-0.949,0.355,0.186
40.245,-0.949,0.359,0.186
40.255,-0.949,0.361,0.188
40.265,-0.945,0.346,0.188
40.275,-0.947,0.348,0.182
40.285,-0.953,0.354,0.184
40.295,-0.955,0.354,0.182
40.305,-0.951,0.354,0.184
40.314,-0.951,0.355,0.182
40.324,-0.949,0.355,0.182
40.334,-0.951,0.355,0.186
40.344,-0.951,0.355,0.186
40.354,-0.949,0.350,0.186
40.364,-0.949,0.352,0.186
40.374,-0.947,0.355,0.184
40.384,-0.953,0.350,0.182
40.394,-0.953,0.352,0.182
40.404,-0.951,0.355,0.184
40.414,-0.955,0.352,0.182
40.424,-0.953,0.352,0.182
40.433,-0.947,0.352,0.180
40.443,-0.949,0.352,0.186
40.453,-0.951,0.352,0.184
40.463,-0.951,0.354,0.182
40.473,-0.951,0.354,0.182
40.483,-0.949,0.354,0.182
40.493,-0.951,0.354,0.182
40.503,-0.955,0.355,0.178
40.513,-0.953,0.350,0.182
40.523,-0.953,0.361,0.188
40.533,-0.951,0.357,0.184
40.543,-0.947,0.354,0.182
40.553,-0.949,0.352,0.182
40.562,-0.951,0.354,0.180
40.572,-0.951,0.354,0.180
40.582,-0.951,0.355,0.184
40.592,-0.949,0.357,0.182
40.602,-0.947,0.355,0.180
40.612,-0.951,0.357,0.184
40.622,-0.947,0.355,0.184
40.632,-0.947,0.355,0.186
40.642,-0.945,0.355,0.182
40.652,-0.947,0.355,0.186
40.662,-0.945,0.357,0.182
40.672,-0.949,0.355,0.184
40.681,-0.949,0.354,0.180
40.691,-0.951,0.355,0.184
40.701,-0.951,0.354,0.184
40.711,-0.947,0.354,0.178
40.721,-0.951,0.355,0.184
40.731,-0.949,0.357,0.182
40.741,-0.953,0.357,0.184
40.751,-0.945,0.355,0.178
40.761,-0.947,0.355,0.180
40.771,-0.947,0.355,0.180
40.781,-0.949,0.355,0.180
40.791,-0.949,0.357,0.180
40.801,-0.953,0.357,0.184
40.810,-0.947,0.355,0.182
40.820,-0.949,0.357,0.182
40.830,-0.947,0.355,0.178
40.840,-0.949,0.354,0.184
40.850,-0.951,0.355,0.182
40.860,-0.949,0.354,0.184
40.870,-0.949,0.354,0.182
40.880,-0.953,0.352,0.186
40.890,-0.955,0.355,0.184
40.900,-0.955,0.352,0.188
40.910,-0.951,0.348,0.184
40.920,-0.951,0.350,0.184
40.929,-0.951,0.346,0.186
40.939,-0.951,0.352,0.182
40.949,-0.953,0.352,0.186
40.959,-0.955,0.354,0.182
40.969,-0.949,0.354,0.184
40.979,-0.953,0.348,0.184
40.989,-0.951,0.352,0.180
40.999,-0.951,0.352,0.182
41.009,-0.955,0.352,0.182
41.019,-0.951,0.357,0.184
41.029,-0.945,0.354,0.186
41.039,-0.945,0.348,0.186
41.049,-0.945,0.354,0.182
41.058,-0.947,0.352,0.186
41.068,-0.945,0.350,0.184
41.078,-0.949,0.354,0.182
41.088,-0.947,0.355,0.186
41.098,-0.955,0.354,0.182
41.108,-0.953,0.361,0.186
41.118,-0.953,0.355,0.186
41.128,-0.949,0.354,0.182
41.138,-0.953,0.354,0.182
41.148,-0.953,0.350,0.182
41.158,-0.953,0.350,0.180
41.168,-0.953,0.346,0.184
41.177,-0.953,0.348,0.184
41.187,-0.953,0.354,0.182
41.197,-0.951,0.354,0.184
41.207,-0.947,0.352,0.184
41.217,-0.951,0.352,0.186
41.227,-0.949,0.352,0.182
41.237,-0.947,0.350,0.186
41.247,-0.945,0.352,0.186
41.257,-0.951,0.355,0.182
41.267,-0.953,0.352,0.182
41.277,-0.951,0.352,0.184
41.287,-0.949,0.357,0.186
41.297,-0.949,0.355,0.184
41.306,-0.947,0.357,0.180
41.316,-0.945,0.354,0.182
41.326,-0.947,0.354,0.180
41.336,-0.943,0.355,0.180
41.346,-0.951,0.357,0.184
41.356,-0.953,0.354,0.182
41.366,-0.949,0.355,0.182
41.376,-0.945,0.357,0.180
41.386,-0.947,0.359,0.182
41.396,-0.947,0.357,0.186
41.406,-0.947,0.361,0.184
41.416,-0.949,0.352,0.182
41.425,-0.947,0.355,0.184
41.435,-0.951,0.355,0.188
41.445,-0.949,0.350,0.186
41.455,-0.953,0.354,0.184
41.465,-0.957,0.352,0.186
41.475,-0.955,0.354,0.184
41.485,-0.957,0.354,0.182
41.495,-0.955,0.352,0.184
41.505,-0.953,0.354,0.188
41.515,-0.949,0.354,0.186
41.525,-0.947,0.355,0.186
41.535,-0.947,0.354,0.184
41.545,-0.949,0.354,0.184
41.554,-0.947,0.357,0.182
41.564,-0.951,0.357,0.186
41.574,-0.947,0.357,0.184
41.584,-0.949,0.357,0.184
41.594,-0.947,0.355,0.184
41.604,-0.945,0.355,0.186
41.614,-0.949,0.354,0.188
41.624,-0.947,0.354,0.186
41.634,-0.947,0.359,0.186
41.644,-0.949,0.357,0.188
41.654,-0.951,0.354,0.184
41.664,-0.947,0.354,0.186
41.673,-0.947,0.350,0.188
41.683,-0.949,0.350,0.184
41.693,-0.951,0.352,0.186
41.703,-0.953,0.357,0.184
41.713,-0.955,0.355,0.188
41.723,-0.953,0.355,0.182
41.733,-0.951,0.357,0.184
41.743,-0.947,0.355,0.188
41.753,-0.949,0.354,0.189
41.763,-0.947,0.355,0.182
41.773,-0.951,0.355,0.186
41.783,-0.951,0.359,0.189
41.793,-0.951,0.361,0.188
41.802,-0.951,0.357,0.189
41.812,-0.943,0.355,0.189
41.822,-0.947,0.354,0.188
41.832,-0.945,0.348,0.188
41.842,-0.947,0.348,0.184
41.852,-0.949,0.348,0.186
41.862,-0.951,0.352,0.186
41.872,-0.957,0.352,0.188
41.882,-0.959,0.357,0.186
41.892,-0.953,0.355,0.186
41.902,-0.953,0.354,0.188
41.912,-0.947,0.352,0.186
41.921,-0.951,0.350,0.188
41.931,-0.953,0.352,0.184
41.941,-0.949,0.346,0.184
41.951,-0.953,0.344,0.188
41.961,-0.953,0.350,0.184
41.971,-0.955,0.352,0.188
41.981,-0.951,0.354,0.188
41.991,-0.951,0.355,0.189
42.001,-0.947,0.352,0.186
42.011,-0.949,0.352,0.184
42.021,-0.945,0.352,0.186
42.031,-0.949,0.352,0.188
42.041,-0.949,0.350,0.186
42.050,-0.949,0.350,0.186
42.060,-0.951,0.352,0.189
42.070,-0.951,0.354,0.188
42.080,-0.945,0.350,0.188
42.090,-0.941,0.348,0.188
42.100,-0.943,0.354,0.186
42.110,-0.945,0.354,0.188
42.120,-0.951,0.354,0.186
42.130,-0.949,0.354,0.186
42.140,-0.951,0.355,0.184
42.150,-0.951,0.354,0.186
42.160,-0.953,0.357,0.188
42.170,-0.955,0.352,0.188
42.179,-0.955,0.350,0.184
42.189,-0.957,0.350,0.188
42.199,-0.955,0.348,0.188
42.209,-0.955,0.352,0.186
42.219,-0.955,0.354,0.186
42.229,-0.955,0.354,0.186
42.239,-0.953,0.354,0.188
42.249,-0.953,0.350,0.186
42.259,-0.955,0.352,0.186
42.269,-0.953,0.355,0.186
42.279,-0.949,0.354,0.188
42.289,-0.949,0.350,0.188
42.298,-0.949,0.352,0.184
42.308,-0.949,0.352,0.186
42.318,-0.947,0.354,0.186
42.328,-0.945,0.350,0.184
42.338,-0.945,0.354,0.184
42.348,-0.949,0.355,0.186
42.358,-0.953,0.355,0.186
42.368,-0.949,0.357,0.184
42.378,-0.949,0.357,0.182
42.388,-0.949,0.355,0.182
42.398,-0.947,0.352,0.182
42.408,-0.949,0.355,0.184
42.418,-0.947,0.355,0.186
42.427,-0.943,0.355,0.184
42.437,-0.945,0.355,0.186
42.447,-0.945,0.354,0.186
42.457,-0.947,0.350,0.186
42.467,-0.951,0.352,0.186
42.477,-0.955,0.348,0.188
42.487,-0.953,0.350,0.186
42.497,-0.955,0.346,0.184
42.507,-0.955,0.344,0.186
42.517,-0.955,0.346,0.186
42.527,-0.959,0.350,0.186
42.537,-0.957,0.348,0.184
42.546,-0.957,0.350,0.186
42.556,-0.955,0.348,0.182
42.566,-0.955,0.348,0.186
42.576,-0.957,0.350,0.182
42.586,-0.955,0.350,0.186
42.596,-0.959,0.350,0.186
42.606,-0.955,0.352,0.186
42.616,-0.957,0.355,0.186
42.626,-0.949,0.348,0.184
42.636,-0.947,0.344,0.189
42.646,-0.957,0.350,0.184
42.656,-0.955,0.348,0.186
42.666,-0.953,0.350,0.186
42.675,-0.955,0.346,0.182
42.685,-0.953,0.350,0.180
42.695,-0.953,0.348,0.182
42.705,-0.955,0.346,0.182
42.715,-0.957,0.346,0.184
42.725,-0.957,0.342,0.180
42.735,-0.965,0.346,0.184
42.745,-0.977,0.330,0.174
42.755,-0.969,0.344,0.180
42.765,-0.961,0.352,0.186
42.775,-0.961,0.350,0.184
42.785,-0.965,0.346,0.180
42.794,-0.971,0.355,0.178
42.804,-0.963,0.363,0.184
42.814,-0.953,0.363,0.191
42.824,-0.951,0.369,0.195
42.834,-0.953,0.373,0.195
42.844,-0.951,0.363,0.195
42.854,-0.945,0.352,0.188
42.864,-0.949,0.354,0.191
42.874,-0.939,0.357,0.191
42.884,-0.936,0.357,0.191
42.894,-0.934,0.357,0.188
42.904,-0.941,0.359,0.188
42.914,-0.934,0.381,0.188
42.923,-0.934,0.402,0.191
42.933,-0.922,0.414,0.197
42.943,-0.924,0.410,0.195
42.953,-0.922,0.408,0.191
42.963,-0.916,0.408,0.193
42.973,-0.910,0.414,0.197
42.983,-0.906,0.412,0.201
42.993,-0.908,0.412,0.201
43.003,-0.906,0.414,0.201
43.013,-0.906,0.414,0.205
43.023,-0.906,0.416,0.209
43.033,-0.898,0.418,0.205
43.042,-0.896,0.422,0.207
43.052,-0.900,0.426,0.205
43.062,-0.896,0.424,0.205
43.072,-0.895,0.420,0.203
43.082,-0.904,0.420,0.199
43.092,-0.910,0.420,0.195
43.102,-0.914,0.418,0.191
43.112,-0.918,0.414,0.191
43.122,-0.922,0.414,0.189
43.132,-0.926,0.414,0.189
43.142,-0.934,0.406,0.184
43.152,-0.943,0.395,0.182
43.162,-0.953,0.395,0.188
43.171,-0.961,0.396,0.186
43.181,-0.955,0.387,0.186
43.191,-0.953,0.387,0.189
43.201,-0.947,0.393,0.193
43.211,-0.938,0.391,0.195
43.221,-0.934,0.385,0.189
43.231,-0.947,0.379,0.182
43.241,-0.959,0.369,0.174
43.251,-0.973,0.357,0.172
43.261,-0.975,0.367,0.182
43.271,-0.961,0.387,0.201
43.281,-0.926,0.424,0.223
43.290,-0.889,0.461,0.248
43.300,-0.867,0.473,0.254
43.310,-0.852,0.463,0.244
43.320,-0.855,0.455,0.238
43.330,-0.857,0.445,0.227
43.340,-0.869,0.445,0.225
43.350,-0.885,0.443,0.221
43.360,-0.896,0.445,0.215
43.370,-0.902,0.441,0.219
43.380,-0.902,0.443,0.221
43.390,-0.906,0.438,0.219
43.400,-0.908,0.441,0.219
43.410,-0.900,0.439,0.225
43.419,-0.893,0.436,0.219
43.429,-0.893,0.436,0.223
43.439,-0.887,0.441,0.229
43.449,-0.885,0.447,0.234
43.459,-0.881,0.445,0.234
43.469,-0.877,0.443,0.232
43.479,-0.877,0.443,0.232
43.489,-0.883,0.430,0.229
43.499,-0.895,0.430,0.225
43.509,-0.904,0.418,0.217
43.519,-0.914,0.416,0.213
43.529,-0.922,0.414,0.211
43.538,-0.924,0.416,0.211
43.548,-0.926,0.420,0.211
43.558,-0.926,0.422,0.221
43.568,-0.922,0.424,0.219
43.578,-0.918,0.428,0.221
43.588,-0.914,0.422,0.219
43.598,-0.910,0.422,0.219
43.608,-0.912,0.422,0.215
43.618,-0.910,0.420,0.217
43.628,-0.910,0.422,0.217
43.638,-0.916,0.422,0.213
43.648,-0.916,0.422,0.213
43.658,-0.912,0.420,0.215
43.667,-0.910,0.418,0.213
43.677,-0.908,0.418,0.213
43.687,-0.912,0.416,0.213
43.697,-0.912,0.416,0.211
43.707,-0.912,0.424,0.209
43.717,-0.910,0.428,0.211
43.727,-0.914,0.422,0.209
43.737,-0.920,0.414,0.203
43.747,-0.922,0.412,0.205
43.757,-0.926,0.416,0.203
43.767,-0.928,0.412,0.201
43.777,-0.926,0.412,0.207
43.786,-0.926,0.414,0.205
43.796,-0.918,0.414,0.207
43.806,-0.916,0.418,0.211
43.816,-0.908,0.420,0.211
43.826,-0.904,0.416,0.215
43.836,-0.908,0.416,0.209
43.846,-0.916,0.412,0.207
43.856,-0.922,0.410,0.207
43.866,-0.922,0.412,0.205
43.876,-0.926,0.414,0.207
43.886,-0.926,0.414,0.209
43.896,-0.926,0.412,0.211
43.906,-0.924,0.416,0.209
43.915,-0.918,0.416,0.211
43.925,-0.916,0.416,0.211
43.935,-0.910,0.418,0.211
43.945,-0.910,0.416,0.211
43.955,-0.912,0.412,0.213
43.965,-0.916,0.414,0.207
43.975,-0.920,0.414,0.209
43.985,-0.922,0.412,0.205
43.995,-0.924,0.414,0.205
44.005,-0.924,0.418,0.207
44.015,-0.922,0.416,0.209
44.025,-0.912,0.416,0.213
44.034,-0.914,0.416,0.211
44.044,-0.910,0.414,0.211
44.054,-0.912,0.414,0.215
44.064,-0.914,0.412,0.213
44.074,-0.910,0.412,0.209
44.084,-0.912,0.412,0.209
44.094,-0.920,0.412,0.209
44.104,-0.914,0.414,0.211
44.114,-0.922,0.416,0.215
44.124,-0.922,0.420,0.215
44.134,-0.900,0.414,0.219
44.144,-0.879,0.426,0.227
44.154,-0.834,0.418,0.229
44.163,-0.820,0.420,0.238
44.173,-0.846,0.439,0.238
44.183,-0.883,0.428,0.223
44.193,-0.920,0.420,0.207
44.203,-0.945,0.424,0.199
44.213,-0.957,0.436,0.199
44.223,-0.980,0.445,0.197
44.233,-1.002,0.438,0.184
44.243,-0.982,0.443,0.160
44.253,-0.918,0.477,0.170
44.263,-0.854,0.447,0.195
44.273,-0.805,0.432,0.189
44.282,-0.789,0.428,0.197
44.292,-0.807,0.426,0.205
44.302,-0.844,0.430,0.199
44.312,-0.875,0.418,0.191
44.322,-0.896,0.412,0.188
44.332,-0.936,0.395,0.180
44.342,-0.955,0.395,0.166
44.352,-0.973,0.404,0.172
44.362,-0.998,0.416,0.172
44.372,-0.992,0.428,0.162
44.382,-0.971,0.436,0.170
44.392,-0.922,0.420,0.172
44.402,-0.902,0.410,0.182
44.411,-0.879,0.404,0.188
44.421,-0.898,0.418,0.199
44.431,-0.932,0.438,0.203
44.441,-0.951,0.436,0.193
44.451,-0.951,0.441,0.189
44.461,-0.945,0.441,0.186
44.471,-0.938,0.441,0.174
44.481,-0.934,0.441,0.172
44.491,-0.932,0.439,0.164
44.501,-0.930,0.436,0.158
44.511,-0.926,0.428,0.152
44.521,-0.922,0.430,0.154
44.531,-0.926,0.434,0.150
44.540,-0.926,0.439,0.152
44.550,-0.918,0.439,0.150
44.560,-0.920,0.447,0.156
44.570,-0.920,0.447,0.160
44.580,-0.914,0.449,0.164
44.590,-0.910,0.455,0.164
44.600,-0.898,0.445,0.168
44.610,-0.898,0.453,0.170
44.620,-0.900,0.457,0.172
44.630,-0.896,0.457,0.170
44.640,-0.895,0.461,0.176
44.650,-0.900,0.463,0.174
44.659,-0.908,0.447,0.172
44.669,-0.902,0.445,0.166
44.679,-0.904,0.449,0.166
44.689,-0.898,0.447,0.166
44.699,-0.902,0.439,0.168
44.709,-0.904,0.447,0.170
44.719,-0.902,0.455,0.172
44.729,-0.900,0.455,0.174
44.739,-0.904,0.455,0.168
44.749,-0.902,0.447,0.162
44.759,-0.898,0.455,0.162
44.769,-0.896,0.459,0.164
44.779,-0.898,0.467,0.166
44.788,-0.898,0.473,0.166
44.798,-0.895,0.471,0.168
44.808,-0.895,0.467,0.170
44.818,-0.900,0.467,0.170
44.828,-0.898,0.457,0.164
44.838,-0.895,0.461,0.168
44.848,-0.900,0.457,0.170
44.858,-0.902,0.455,0.172
44.868,-0.900,0.453,0.174
44.878,-0.898,0.457,0.184
44.888,-0.898,0.449,0.184
44.898,-0.902,0.447,0.180
44.907,-0.902,0.451,0.182
44.917,-0.904,0.449,0.188
44.927,-0.906,0.449,0.184
44.937,-0.904,0.449,0.180
44.947,-0.902,0.451,0.184
44.957,-0.900,0.453,0.182
44.967,-0.896,0.449,0.184
44.977,-0.898,0.449,0.188
44.987,-0.902,0.447,0.186
44.997,-0.904,0.449,0.188
45.007,-0.902,0.449,0.186
45.017,-0.902,0.451,0.184
45.027,-0.898,0.449,0.184
45.036,-0.898,0.453,0.184
45.046,-0.895,0.451,0.182
45.056,-0.893,0.453,0.184
45.066,-0.891,0.449,0.184
45.076,-0.893,0.445,0.184
45.086,-0.898,0.449,0.176
45.096,-0.900,0.451,0.184
45.106,-0.900,0.451,0.180
45.116,-0.902,0.451,0.184
45.126,-0.900,0.453,0.186
45.136,-0.900,0.459,0.186
45.146,-0.900,0.459,0.186
45.155,-0.902,0.449,0.189
45.165,-0.896,0.449,0.186
45.175,-0.898,0.445,0.182
45.185,-0.902,0.449,0.182
45.195,-0.902,0.451,0.184
45.205,-0.904,0.449,0.184
45.215,-0.902,0.453,0.189
45.225,-0.900,0.457,0.184
45.235,-0.900,0.455,0.186
45.245,-0.898,0.453,0.186
45.255,-0.898,0.451,0.182
45.265,-0.898,0.449,0.184
45.275,-0.900,0.445,0.180
45.284,-0.902,0.445,0.182
45.294,-0.902,0.451,0.184
45.304,-0.900,0.449,0.182
45.314,-0.902,0.453,0.182
45.324,-0.904,0.451,0.182
45.334,-0.904,0.451,0.182
45.344,-0.902,0.451,0.182
45.354,-0.906,0.449,0.182
45.364,-0.904,0.453,0.184
45.374,-0.904,0.447,0.180
45.384,-0.902,0.447,0.180
45.394,-0.904,0.447,0.182
45.403,-0.902,0.449,0.184
45.413,-0.904,0.451,0.180
45.423,-0.908,0.449,0.182
45.433,-0.904,0.447,0.184
45.443,-0.900,0.449,0.184
45.453,-0.900,0.447,0.184
45.463,-0.900,0.451,0.184
45.473,-0.900,0.449,0.182
45.483,-0.902,0.449,0.180
45.493,-0.900,0.449,0.178
45.503,-0.902,0.447,0.186
45.513,-0.904,0.449,0.184
45.523,-0.904,0.451,0.180
45.532,-0.906,0.445,0.184
45.542,-0.908,0.445,0.178
45.552,-0.906,0.447,0.180
45.562,-0.904,0.445,0.182
45.572,-0.904,0.445,0.184
45.582,-0.906,0.441,0.184
45.592,-0.908,0.445,0.184
45.602,-0.908,0.445,0.180
45.612,-0.908,0.443,0.176
45.622,-0.908,0.443,0.182
45.632,-0.910,0.445,0.178
45.642,-0.912,0.443,0.182
45.651,-0.908,0.447,0.182
45.661,-0.906,0.441,0.180
45.671,-0.906,0.441,0.182
45.681,-0.906,0.441,0.180
45.691,-0.908,0.441,0.184
45.701,-0.908,0.443,0.182
45.711,-0.906,0.439,0.180
45.721,-0.906,0.438,0.180
45.731,-0.906,0.436,0.182
45.741,-0.908,0.438,0.180
45.751,-0.908,0.439,0.182
45.761,-0.908,0.439,0.184
45.771,-0.908,0.441,0.184
45.780,-0.908,0.447,0.184
45.790,-0.906,0.445,0.178
45.800,-0.904,0.443,0.178
45.810,-0.904,0.447,0.180
45.820,-0.906,0.449,0.182
45.830,-0.902,0.449,0.184
45.840,-0.902,0.443,0.182
45.850,-0.896,0.441,0.180
45.860,-0.898,0.447,0.182
45.870,-0.902,0.447,0.180
45.880,-0.906,0.445,0.178
45.890,-0.900,0.449,0.180
45.899,-0.902,0.447,0.180
45.909,-0.906,0.449,0.180
45.919,-0.908,0.447,0.186
45.929,-0.908,0.445,0.184
45.939,-0.904,0.445,0.180
45.949,-0.906,0.443,0.180
45.959,-0.902,0.449,0.182
45.969,-0.902,0.445,0.184
45.979,-0.902,0.445,0.180
45.989,-0.902,0.449,0.176
45.999,-0.902,0.449,0.180
46.009,-0.904,0.445,0.180
46.019,-0.908,0.445,0.182
46.028,-0.906,0.447,0.176
46.038,-0.906,0.449,0.174
46.048,-0.908,0.449,0.178
46.058,-0.904,0.445,0.180
46.068,-0.904,0.447,0.178
46.078,-0.900,0.443,0.180
46.088,-0.904,0.445,0.180
46.098,-0.900,0.447,0.180
46.108,-0.902,0.445,0.182
46.118,-0.902,0.447,0.178
46.128,-0.902,0.449,0.180
46.138,-0.902,0.449,0.180
46.147,-0.900,0.445,0.182
46.157,-0.898,0.447,0.182
46.167,-0.904,0.451,0.180
46.177,-0.898,0.445,0.180
46.187,-0.902,0.441,0.180
46.197,-0.906,0.441,0.180
46.207,-0.904,0.447,0.180
46.217,-0.904,0.447,0.184
46.227,-0.896,0.443,0.184
46.237,-0.902,0.443,0.176
46.247,-0.906,0.449,0.180
46.257,-0.900,0.445,0.178
46.267,-0.906,0.441,0.174
46.276,-0.908,0.445,0.176
46.286,-0.910,0.447,0.178
46.296,-0.912,0.447,0.178
46.306,-0.912,0.445,0.178
46.316,-0.910,0.443,0.180
46.326,-0.906,0.445,0.182
46.336,-0.906,0.443,0.178
46.346,-0.910,0.441,0.180
46.356,-0.906,0.438,0.178
46.366,-0.910,0.436,0.178
46.376,-0.908,0.438,0.182
46.386,-0.910,0.439,0.182
46.395,-0.912,0.438,0.178
46.405,-0.910,0.438,0.176
46.415,-0.906,0.443,0.178
46.425,-0.906,0.439,0.174
46.435,-0.908,0.441,0.176
46.445,-0.910,0.441,0.174
46.455,-0.906,0.443,0.174
46.465,-0.908,0.445,0.180
46.475,-0.908,0.447,0.174
46.485,-0.908,0.441,0.176
46.495,-0.902,0.439,0.174
46.505,-0.906,0.441,0.174
46.515,-0.904,0.443,0.178
46.524,-0.906,0.447,0.178
46.534,-0.910,0.441,0.174
46.544,-0.908,0.445,0.176
46.554,-0.910,0.443,0.176
46.564,-0.906,0.443,0.178
46.574,-0.906,0.441,0.180
46.584,-0.906,0.439,0.178
46.594,-0.908,0.438,0.178
46.604,-0.912,0.439,0.178
46.614,-0.906,0.436,0.178
46.624,-0.910,0.439,0.180
46.634,-0.908,0.439,0.180
46.643,-0.908,0.439,0.180
46.653,-0.912,0.438,0.178
46.663,-0.908,0.441,0.176
46.673,-0.908,0.439,0.182
46.683,-0.912,0.441,0.176
46.693,-0.912,0.439,0.176
46.703,-0.910,0.441,0.174
46.713,-0.910,0.439,0.174
46.723,-0.906,0.443,0.174
46.733,-0.906,0.438,0.178
46.743,-0.904,0.438,0.176
46.753,-0.912,0.438,0.174
46.763,-0.904,0.436,0.178
46.772,-0.910,0.438,0.176
46.782,-0.908,0.439,0.174
46.792,-0.908,0.438,0.180
46.802,-0.908,0.439,0.178
46.812,-0.910,0.438,0.174
46.822,-0.910,0.439,0.176
46.832,-0.912,0.439,0.174
46.842,-0.906,0.441,0.178
46.852,-0.904,0.439,0.180
46.862,-0.904,0.436,0.174
46.872,-0.908,0.434,0.174
46.882,-0.910,0.439,0.176
46.891,-0.906,0.438,0.180
46.901,-0.908,0.439,0.172
46.911,-0.910,0.439,0.180
46.921,-0.912,0.439,0.178
46.931,-0.916,0.438,0.176
46.941,-0.916,0.439,0.180
46.951,-0.910,0.438,0.178
46.961,-0.912,0.436,0.182
46.971,-0.914,0.434,0.184
46.981,-0.912,0.436,0.178
46.991,-0.912,0.432,0.176
47.001,-0.914,0.428,0.178
47.011,-0.914,0.434,0.178
47.020,-0.914,0.434,0.178
47.030,-0.908,0.438,0.176
47.040,-0.912,0.436,0.178
47.050,-0.908,0.436,0.180
47.060,-0.906,0.432,0.176
47.070,-0.912,0.438,0.178
47.080,-0.912,0.436,0.178
47.090,-0.910,0.436,0.182
47.100,-0.914,0.441,0.180
47.110,-0.912,0.439,0.178
47.120,-0.906,0.436,0.184
47.130,-0.902,0.430,0.176
47.139,-0.906,0.432,0.176
47.149,-0.904,0.436,0.178
47.159,-0.908,0.438,0.178
47.169,-0.908,0.438,0.180
47.179,-0.910,0.439,0.180
47.189,-0.912,0.439,0.180
47.199,-0.912,0.439,0.178
47.209,-0.908,0.436,0.178
47.219,-0.912,0.434,0.180
47.229,-0.914,0.432,0.176
47.239,-0.914,0.436,0.180
47.249,-0.914,0.434,0.178
47.259,-0.910,0.432,0.178
47.268,-0.910,0.436,0.180
47.278,-0.910,0.436,0.182
47.288,-0.912,0.438,0.176
47.298,-0.910,0.436,0.174
47.308,-0.914,0.436,0.180
47.318,-0.914,0.434,0.176
47.328,-0.914,0.434,0.180
47.338,-0.910,0.430,0.174
47.348,-0.914,0.434,0.178
47.358,-0.914,0.432,0.176
47.368,-0.910,0.434,0.178
47.378,-0.908,0.434,0.176
47.388,-0.912,0.432,0.176
47.397,-0.910,0.434,0.174
47.407,-0.910,0.436,0.176
47.417,-0.910,0.436,0.176
47.427,-0.910,0.434,0.176
47.437,-0.908,0.436,0.180
47.447,-0.910,0.438,0.176
47.457,-0.912,0.434,0.174
47.467,-0.910,0.436,0.178
47.477,-0.908,0.434,0.180
47.487,-0.908,0.430,0.178
47.497,-0.910,0.430,0.178
47.507,-0.910,0.434,0.178
47.516,-0.910,0.434,0.178
47.526,-0.912,0.432,0.178
47.536,-0.916,0.439,0.178
47.546,-0.916,0.436,0.180
47.556,-0.916,0.434,0.178
47.566,-0.912,0.432,0.180
47.576,-0.914,0.432,0.178
47.586,-0.916,0.430,0.176
47.596,-0.914,0.428,0.176
47.606,-0.914,0.428,0.178
47.616,-0.916,0.426,0.180
47.626,-0.916,0.424,0.176
47.636,-0.914,0.426,0.180
47.645,-0.914,0.430,0.182
47.655,-0.914,0.430,0.178
47.665,-0.912,0.430,0.178
47.675,-0.912,0.430,0.178
47.685,-0.916,0.434,0.178
47.695,-0.916,0.430,0.178
47.705,-0.918,0.432,0.176
47.715,-0.914,0.430,0.176
47.725,-0.916,0.436,0.182
47.735,-0.916,0.441,0.178
47.745,-0.908,0.438,0.178
47.755,-0.908,0.430,0.178
47.764,-0.910,0.432,0.176
47.774,-0.908,0.432,0.180
47.784,-0.910,0.432,0.178
47.794,-0.912,0.434,0.182
47.804,-0.910,0.436,0.182
47.814,-0.912,0.434,0.178
47.824,-0.912,0.432,0.182
47.834,-0.912,0.432,0.182
47.844,-0.914,0.430,0.180
47.854,-0.914,0.428,0.178
47.864,-0.914,0.428,0.178
47.874,-0.918,0.428,0.178
47.884,-0.918,0.432,0.176
47.893,-0.916,0.430,0.182
47.903,-0.916,0.430,0.178
47.913,-0.910,0.430,0.180
47.923,-0.914,0.430,0.178
47.933,-0.916,0.432,0.176
47.943,-0.916,0.432,0.178
47.953,-0.912,0.432,0.180
47.963,-0.914,0.428,0.182
47.973,-0.914,0.430,0.180
47.983,-0.912,0.434,0.180
47.993,-0.914,0.430,0.176
48.003,-0.914,0.432,0.176
48.012,-0.912,0.428,0.178
48.022,-0.912,0.428,0.176
48.032,-0.914,0.426,0.180
48.042,-0.914,0.430,0.182
48.052,-0.914,0.428,0.176
48.062,-0.912,0.430,0.178
48.072,-0.914,0.432,0.178
48.082,-0.910,0.432,0.174
48.092,-0.916,0.426,0.182
48.102,-0.918,0.434,0.174
48.112,-0.912,0.434,0.180
48.122,-0.908,0.428,0.184
48.132,-0.912,0.428,0.178
48.141,-0.912,0.426,0.182
48.151,-0.914,0.426,0.180
48.161,-0.912,0.424,0.178
48.171,-0.916,0.424,0.182
48.181,-0.918,0.430,0.180
48.191,-0.920,0.434,0.182
48.201,-0.918,0.430,0.180
48.211,-0.918,0.428,0.178
48.221,-0.920,0.424,0.178
48.231,-0.916,0.426,0.178
48.241,-0.920,0.424,0.182
48.251,-0.916,0.422,0.180
48.260,-0.916,0.422,0.182
48.270,-0.914,0.422,0.182
48.280,-0.916,0.424,0.178
48.290,-0.912,0.424,0.178
48.300,-0.910,0.426,0.180
48.310,-0.912,0.430,0.182
48.320,-0.912,0.426,0.176
48.330,-0.914,0.426,0.182
48.340,-0.918,0.428,0.174
48.350,-0.922,0.426,0.176
48.360,-0.920,0.426,0.182
48.370,-0.916,0.430,0.184
48.380,-0.920,0.430,0.180
48.389,-0.916,0.426,0.180
48.399,-0.914,0.424,0.180
48.409,-0.914,0.422,0.176
48.419,-0.918,0.424,0.182
48.429,-0.920,0.428,0.180
48.439,-0.922,0.428,0.182
48.449,-0.922,0.426,0.180
48.459,-0.918,0.424,0.180
48.469,-0.920,0.424,0.180
48.479,-0.920,0.422,0.180
48.489,-0.922,0.424,0.176
48.499,-0.920,0.420,0.180
48.508,-0.922,0.418,0.178
48.518,-0.918,0.420,0.178
48.528,-0.922,0.420,0.180
48.538,-0.924,0.422,0.180
48.548,-0.918,0.420,0.178
48.558,-0.922,0.420,0.180
48.568,-0.920,0.422,0.176
48.578,-0.918,0.418,0.176
48.588,-0.920,0.422,0.178
48.598,-0.916,0.424,0.180
48.608,-0.922,0.424,0.178
48.618,-0.920,0.422,0.174
48.628,-0.918,0.424,0.178
48.637,-0.920,0.422,0.178
48.647,-0.916,0.424,0.178
48.657,-0.920,0.422,0.178
48.667,-0.916,0.420,0.178
48.677,-0.914,0.420,0.178
48.687,-0.914,0.422,0.182
48.697,-0.916,0.418,0.178
48.707,-0.916,0.420,0.178
48.717,-0.918,0.418,0.178
48.727,-0.918,0.422,0.178
48.737,-0.920,0.424,0.176
48.747,-0.920,0.420,0.182
48.756,-0.920,0.420,0.174
48.766,-0.920,0.422,0.180
48.776,-0.920,0.416,0.180
48.786,-0.924,0.424,0.178
48.796,-0.920,0.426,0.182
48.806,-0.918,0.422,0.184
48.816,-0.914,0.416,0.182
48.826,-0.916,0.416,0.180
48.836,-0.918,0.418,0.184
48.846,-0.920,0.414,0.176
48.856,-0.918,0.420,0.180
48.866,-0.922,0.422,0.178
48.876,-0.924,0.424,0.180
48.885,-0.924,0.418,0.178
48.895,-0.922,0.420,0.180
48.905,-0.920,0.420,0.180
48.915,-0.922,0.416,0.180
48.925,-0.920,0.418,0.180
48.935,-0.922,0.416,0.180
48.945,-0.922,0.418,0.180
48.955,-0.924,0.414,0.182
48.965,-0.924,0.418,0.180
48.975,-0.924,0.418,0.178
48.985,-0.918,0.422,0.184
48.995,-0.918,0.422,0.178
49.004,-0.912,0.426,0.182
49.014,-0.920,0.420,0.182
49.024,-0.920,0.420,0.178
49.034,-0.916,0.420,0.178
49.044,-0.920,0.420,0.178
49.054,-0.918,0.420,0.182
49.064,-0.918,0.430,0.182
49.074,-0.916,0.420,0.184
49.084,-0.914,0.422,0.182
49.094,-0.910,0.422,0.178
49.104,-0.912,0.420,0.178
49.114,-0.914,0.420,0.182
49.124,-0.918,0.420,0.180
49.133,-0.922,0.424,0.176
49.143,-0.918,0.422,0.178
49.153,-0.918,0.424,0.180
49.163,-0.916,0.424,0.178
49.173,-0.920,0.422,0.180
49.183,-0.916,0.424,0.180
49.193,-0.918,0.418,0.184
49.203,-0.920,0.418,0.184
49.213,-0.920,0.422,0.182
49.223,-0.922,0.420,0.186
49.233,-0.920,0.416,0.186
49.243,-0.920,0.418,0.180
49.252,-0.920,0.418,0.186
49.262,-0.918,0.418,0.180
49.272,-0.920,0.420,0.180
49.282,-0.922,0.418,0.180
49.292,-0.920,0.418,0.178
49.302,-0.920,0.418,0.184
49.312,-0.922,0.420,0.180
49.322,-0.920,0.422,0.180
49.332,-0.920,0.420,0.180
49.342,-0.922,0.426,0.180
49.352,-0.916,0.426,0.182
49.362,-0.918,0.422,0.182
49.372,-0.922,0.424,0.178
49.381,-0.918,0.422,0.180
49.391,-0.918,0.420,0.180
49.401,-0.916,0.420,0.180
49.411,-0.914,0.416,0.186
49.421,-0.916,0.416,0.184
49.431,-0.918,0.416,0.184
49.441,-0.918,0.416,0.180
49.451,-0.922,0.420,0.182
49.461,-0.922,0.422,0.182
49.471,-0.918,0.420,0.182
49.481,-0.922,0.422,0.180
49.491,-0.922,0.420,0.180
49.500,-0.922,0.418,0.180
49.510,-0.926,0.418,0.182
49.520,-0.924,0.420,0.180
49.530,-0.920,0.418,0.184
49.540,-0.916,0.414,0.188
49.550,-0.918,0.412,0.184
49.560,-0.916,0.414,0.180
49.570,-0.920,0.416,0.180
49.580,-0.918,0.412,0.178
49.590,-0.918,0.418,0.180
49.600,-0.926,0.420,0.182
49.610,-0.924,0.424,0.182
49.620,-0.928,0.422,0.178
49.629,-0.924,0.418,0.180
49.639,-0.924,0.416,0.180
49.649,-0.922,0.414,0.180
49.659,-0.924,0.410,0.178
49.669,-0.922,0.410,0.178
49.679,-0.924,0.412,0.178
49.689,-0.922,0.408,0.176
49.699,-0.924,0.410,0.182
49.709,-0.922,0.410,0.184
49.719,-0.920,0.412,0.182
49.729,-0.920,0.416,0.182
49.739,-0.918,0.416,0.182
49.748,-0.924,0.416,0.180
49.758,-0.916,0.412,0.178
49.768,-0.916,0.416,0.176
49.778,-0.916,0.416,0.184
49.788,-0.922,0.420,0.184
49.798,-0.920,0.420,0.182
49.808,-0.918,0.412,0.180
49.818,-0.922,0.410,0.180
49.828,-0.924,0.416,0.178
49.838,-0.924,0.416,0.182
49.848,-0.926,0.420,0.184
49.858,-0.926,0.424,0.182
49.868,-0.922,0.416,0.178
49.877,-0.920,0.418,0.184
49.887,-0.922,0.418,0.182
49.897,-0.922,0.414,0.184
49.907,-0.922,0.410,0.186
49.917,-0.924,0.410,0.184
49.927,-0.924,0.412,0.182
49.937,-0.920,0.414,0.182
49.947,-0.926,0.410,0.186
49.957,-0.926,0.408,0.180
49.967,-0.924,0.414,0.182
49.977,-0.920,0.412,0.178
49.987,-0.922,0.414,0.176
49.997,-0.924,0.410,0.176
50.006,-0.922,0.410,0.180
50.016,-0.926,0.414,0.180
50.026,-0.926,0.414,0.176
50.036,-0.924,0.412,0.178
50.046,-0.924,0.412,0.180
50.056,-0.924,0.412,0.178
50.066,-0.920,0.414,0.180
50.076,-0.920,0.410,0.180
50.086,-0.918,0.408,0.180
50.096,-0.922,0.410,0.176
50.106,-0.926,0.408,0.176
50.116,-0.924,0.406,0.176
50.125,-0.918,0.408,0.178
50.135,-0.920,0.408,0.180
50.145,-0.922,0.414,0.184
50.155,-0.924,0.414,0.184
50.165,-0.930,0.414,0.180
50.175,-0.934,0.410,0.176
50.185,-0.936,0.414,0.180
50.195,-0.928,0.414,0.182
50.205,-0.922,0.408,0.184
50.215,-0.922,0.400,0.182
50.225,-0.926,0.400,0.178
50.235,-0.926,0.408,0.184
50.245,-0.928,0.406,0.186
50.254,-0.926,0.404,0.182
50.264,-0.928,0.406,0.182
50.274,-0.930,0.410,0.184
50.284,-0.930,0.412,0.184
50.294,-0.928,0.410,0.182
50.304,-0.928,0.406,0.182
50.314,-0.926,0.406,0.182
50.324,-0.926,0.404,0.182
50.334,-0.926,0.406,0.184
50.344,-0.926,0.406,0.180
50.354,-0.928,0.402,0.180
50.364,-0.926,0.406,0.182
50.373,-0.926,0.402,0.178
50.383,-0.928,0.408,0.180
50.393,-0.926,0.410,0.182
50.403,-0.922,0.410,0.180
50.413,-0.920,0.412,0.182
50.423,-0.922,0.412,0.180
50.433,-0.922,0.412,0.180
50.443,-0.920,0.410,0.182
50.453,-0.922,0.412,0.184
50.463,-0.922,0.414,0.180
50.473,-0.922,0.414,0.182
50.483,-0.916,0.406,0.184
50.493,-0.922,0.406,0.178
50.502,-0.920,0.410,0.182
50.512,-0.926,0.410,0.180
50.522,-0.928,0.410,0.176
50.532,-0.928,0.410,0.180
50.542,-0.928,0.414,0.182
50.552,-0.928,0.410,0.182
50.562,-0.926,0.410,0.182
50.572,-0.924,0.408,0.180
50.582,-0.922,0.406,0.180
50.592,-0.926,0.406,0.180
50.602,-0.920,0.408,0.176
50.612,-0.926,0.410,0.178
50.621,-0.924,0.404,0.182
50.631,-0.926,0.410,0.182
50.641,-0.930,0.404,0.182
50.651,-0.930,0.404,0.184
50.661,-0.926,0.402,0.180
50.671,-0.926,0.406,0.184
50.681,-0.930,0.408,0.186
50.691,-0.926,0.406,0.186
50.701,-0.930,0.404,0.182
50.711,-0.930,0.406,0.184
50.721,-0.928,0.406,0.182
50.731,-0.928,0.404,0.178
50.741,-0.934,0.402,0.176
