df_hash,22ZHK4.L745P3
device,HZ2X61
project_hash,29R7
project_name,istanbul_aydin_university
person_hash,29R7.HN75
person_label,V121
date_time_start,2026-04-06_13-33-18.934000_+03
date_time_start_unix,1775464398.934
date_time_end,2026-04-06_13-41-40.504000_+03
length_difference_noticed,no

time,acc_x,acc_y,acc_z
3.660,-0.281,0.883,-0.191
3.670,-0.281,0.887,-0.188
3.680,-0.281,0.889,-0.189
3.690,-0.283,0.883,-0.191
3.700,-0.285,0.881,-0.191
3.710,-0.283,0.885,-0.193
3.719,-0.281,0.885,-0.195
3.729,-0.283,0.879,-0.197
3.739,-0.279,0.883,-0.197
3.749,-0.279,0.889,-0.197
3.759,-0.279,0.896,-0.195
3.769,-0.277,0.898,-0.197
3.779,-0.275,0.895,-0.199
3.789,-0.277,0.895,-0.191
3.799,-0.273,0.893,-0.193
3.809,-0.273,0.891,-0.189
3.819,-0.266,0.893,-0.189
3.829,-0.266,0.893,-0.188
3.839,-0.270,0.889,-0.191
3.849,-0.266,0.887,-0.188
3.858,-0.273,0.881,-0.186
3.868,-0.275,0.877,-0.189
3.878,-0.268,0.879,-0.186
3.888,-0.268,0.879,-0.182
3.898,-0.273,0.877,-0.184
3.908,-0.275,0.883,-0.186
3.918,-0.273,0.887,-0.180
3.928,-0.277,0.885,-0.182
3.938,-0.281,0.881,-0.186
3.948,-0.281,0.881,-0.186
3.958,-0.289,0.877,-0.189
3.968,-0.297,0.879,-0.193
3.978,-0.301,0.881,-0.195
3.987,-0.295,0.883,-0.191
3.997,-0.301,0.881,-0.189
4.007,-0.297,0.881,-0.189
4.017,-0.295,0.885,-0.189
4.027,-0.295,0.883,-0.191
4.037,-0.291,0.879,-0.191
4.047,-0.291,0.879,-0.195
4.057,-0.285,0.875,-0.193
4.067,-0.283,0.875,-0.197
4.077,-0.283,0.875,-0.191
4.087,-0.283,0.879,-0.191
4.097,-0.283,0.875,-0.195
4.107,-0.277,0.889,-0.195
4.116,-0.275,0.883,-0.193
4.126,-0.281,0.879,-0.199
4.136,-0.285,0.875,-0.205
4.146,-0.275,0.883,-0.199
4.156,-0.273,0.877,-0.197
4.166,-0.283,0.879,-0.199
4.176,-0.279,0.871,-0.199
4.186,-0.264,0.893,-0.195
4.196,-0.277,0.885,-0.193
4.206,-0.285,0.877,-0.211
4.216,-0.283,0.875,-0.211
4.226,-0.283,0.881,-0.207
4.236,-0.283,0.881,-0.209
4.246,-0.283,0.885,-0.205
4.255,-0.273,0.889,-0.199
4.265,-0.279,0.887,-0.203
4.275,-0.279,0.891,-0.209
4.285,-0.285,0.885,-0.207
4.295,-0.283,0.883,-0.207
4.305,-0.287,0.883,-0.211
4.315,-0.291,0.881,-0.213
4.325,-0.287,0.881,-0.205
4.335,-0.285,0.885,-0.211
4.345,-0.289,0.879,-0.207
4.355,-0.293,0.877,-0.209
4.365,-0.291,0.879,-0.209
4.375,-0.293,0.877,-0.207
4.384,-0.295,0.875,-0.213
4.394,-0.293,0.877,-0.209
4.404,-0.293,0.879,-0.211
4.414,-0.293,0.879,-0.209
4.424,-0.289,0.877,-0.209
4.434,-0.291,0.875,-0.209
4.444,-0.289,0.879,-0.207
4.454,-0.289,0.875,-0.209
4.464,-0.293,0.877,-0.209
4.474,-0.293,0.879,-0.209
4.484,-0.293,0.877,-0.209
4.494,-0.293,0.879,-0.207
4.504,-0.297,0.881,-0.207
4.514,-0.289,0.881,-0.207
4.523,-0.293,0.877,-0.205
4.533,-0.293,0.881,-0.211
4.543,-0.293,0.881,-0.201
4.553,-0.291,0.873,-0.207
4.563,-0.289,0.881,-0.203
4.573,-0.287,0.881,-0.205
4.583,-0.283,0.883,-0.201
4.593,-0.287,0.877,-0.203
4.603,-0.289,0.873,-0.209
4.613,-0.291,0.877,-0.209
4.623,-0.293,0.879,-0.205
4.633,-0.289,0.881,-0.205
4.643,-0.285,0.881,-0.203
4.652,-0.283,0.885,-0.205
4.662,-0.289,0.881,-0.201
4.672,-0.289,0.879,-0.205
4.682,-0.289,0.873,-0.205
4.692,-0.291,0.873,-0.209
4.702,-0.291,0.873,-0.209
4.712,-0.287,0.877,-0.207
4.722,-0.285,0.883,-0.201
4.732,-0.287,0.883,-0.203
4.742,-0.287,0.885,-0.205
4.752,-0.289,0.881,-0.205
4.762,-0.291,0.877,-0.205
4.772,-0.293,0.877,-0.205
4.782,-0.291,0.877,-0.205
4.791,-0.293,0.877,-0.205
4.801,-0.291,0.875,-0.203
4.811,-0.291,0.877,-0.201
4.821,-0.283,0.883,-0.201
4.831,-0.285,0.883,-0.197
4.841,-0.279,0.873,-0.201
4.851,-0.281,0.871,-0.205
4.861,-0.289,0.873,-0.207
4.871,-0.291,0.875,-0.205
4.881,-0.293,0.877,-0.209
4.891,-0.291,0.885,-0.203
4.901,-0.291,0.887,-0.205
4.911,-0.291,0.885,-0.203
4.920,-0.295,0.883,-0.207
4.930,-0.293,0.883,-0.207
4.940,-0.293,0.883,-0.207
4.950,-0.293,0.877,-0.209
4.960,-0.289,0.881,-0.207
4.970,-0.289,0.879,-0.205
4.980,-0.285,0.879,-0.207
4.990,-0.285,0.881,-0.205
5.000,-0.283,0.877,-0.203
5.010,-0.287,0.877,-0.203
5.020,-0.287,0.877,-0.203
5.030,-0.283,0.877,-0.203
5.040,-0.283,0.877,-0.205
5.049,-0.285,0.877,-0.207
5.059,-0.285,0.875,-0.205
5.069,-0.281,0.881,-0.207
5.079,-0.281,0.881,-0.205
5.089,-0.287,0.883,-0.205
5.099,-0.289,0.881,-0.205
5.109,-0.289,0.879,-0.211
5.119,-0.285,0.881,-0.209
5.129,-0.283,0.883,-0.205
5.139,-0.285,0.883,-0.203
5.149,-0.287,0.883,-0.203
5.159,-0.285,0.875,-0.207
5.169,-0.285,0.877,-0.207
5.179,-0.287,0.881,-0.205
5.188,-0.291,0.885,-0.201
5.198,-0.287,0.881,-0.205
5.208,-0.285,0.877,-0.201
5.218,-0.285,0.881,-0.201
5.228,-0.287,0.883,-0.199
5.238,-0.289,0.879,-0.205
5.248,-0.291,0.875,-0.205
5.258,-0.293,0.875,-0.205
5.268,-0.299,0.877,-0.205
5.278,-0.293,0.881,-0.201
5.288,-0.287,0.883,-0.199
5.298,-0.285,0.881,-0.201
5.308,-0.285,0.883,-0.199
5.317,-0.287,0.877,-0.203
5.327,-0.293,0.877,-0.205
5.337,-0.293,0.875,-0.203
5.347,-0.293,0.873,-0.205
5.357,-0.291,0.877,-0.203
5.367,-0.289,0.881,-0.205
5.377,-0.289,0.883,-0.201
5.387,-0.289,0.881,-0.199
5.397,-0.289,0.881,-0.199
5.407,-0.289,0.879,-0.205
5.417,-0.287,0.881,-0.201
5.427,-0.287,0.881,-0.201
5.437,-0.287,0.881,-0.201
5.447,-0.291,0.877,-0.203
5.456,-0.289,0.871,-0.203
5.466,-0.287,0.883,-0.201
5.476,-0.285,0.879,-0.201
5.486,-0.285,0.877,-0.201
5.496,-0.287,0.871,-0.205
5.506,-0.287,0.871,-0.203
5.516,-0.287,0.879,-0.203
5.526,-0.289,0.885,-0.201
5.536,-0.287,0.887,-0.203
5.546,-0.287,0.887,-0.199
5.556,-0.291,0.887,-0.201
5.566,-0.289,0.885,-0.209
5.576,-0.289,0.879,-0.207
5.585,-0.293,0.881,-0.207
5.595,-0.293,0.881,-0.207
5.605,-0.291,0.879,-0.203
5.615,-0.291,0.883,-0.203
5.625,-0.287,0.881,-0.203
5.635,-0.287,0.883,-0.201
5.645,-0.285,0.881,-0.201
5.655,-0.285,0.875,-0.203
5.665,-0.285,0.879,-0.205
5.675,-0.285,0.877,-0.203
5.685,-0.283,0.879,-0.203
5.695,-0.285,0.877,-0.203
5.705,-0.283,0.877,-0.199
5.715,-0.285,0.877,-0.201
5.724,-0.285,0.881,-0.205
5.734,-0.287,0.881,-0.203
5.744,-0.287,0.885,-0.201
5.754,-0.289,0.885,-0.201
5.764,-0.291,0.885,-0.205
5.774,-0.291,0.881,-0.203
5.784,-0.293,0.877,-0.203
5.794,-0.291,0.879,-0.201
5.804,-0.291,0.881,-0.203
5.814,-0.289,0.881,-0.197
5.824,-0.287,0.881,-0.199
5.834,-0.289,0.881,-0.203
5.844,-0.291,0.877,-0.203
5.853,-0.287,0.881,-0.199
5.863,-0.291,0.879,-0.199
5.873,-0.287,0.877,-0.199
5.883,-0.287,0.875,-0.201
5.893,-0.289,0.879,-0.201
5.903,-0.291,0.881,-0.199
5.913,-0.289,0.879,-0.195
5.923,-0.289,0.875,-0.203
5.933,-0.291,0.879,-0.201
5.943,-0.295,0.881,-0.201
5.953,-0.291,0.887,-0.199
5.963,-0.285,0.885,-0.201
5.973,-0.283,0.881,-0.201
5.982,-0.283,0.885,-0.199
5.992,-0.287,0.879,-0.197
6.002,-0.287,0.875,-0.201
6.012,-0.289,0.873,-0.203
6.022,-0.289,0.879,-0.205
6.032,-0.291,0.885,-0.201
6.042,-0.289,0.885,-0.203
6.052,-0.289,0.885,-0.201
6.062,-0.289,0.887,-0.203
6.072,-0.293,0.883,-0.201
6.082,-0.287,0.881,-0.203
6.092,-0.287,0.877,-0.199
6.102,-0.285,0.883,-0.199
6.112,-0.285,0.879,-0.203
6.121,-0.285,0.879,-0.203
6.131,-0.283,0.873,-0.199
6.141,-0.279,0.883,-0.201
6.151,-0.275,0.885,-0.197
6.161,-0.279,0.881,-0.197
6.171,-0.279,0.875,-0.203
6.181,-0.285,0.873,-0.205
6.191,-0.289,0.879,-0.203
6.201,-0.291,0.881,-0.201
6.211,-0.289,0.883,-0.203
6.221,-0.291,0.881,-0.201
6.231,-0.289,0.887,-0.199
6.241,-0.291,0.885,-0.199
6.250,-0.291,0.879,-0.203
6.260,-0.293,0.883,-0.203
6.270,-0.289,0.879,-0.203
6.280,-0.287,0.877,-0.203
6.290,-0.285,0.881,-0.199
6.300,-0.285,0.879,-0.203
6.310,-0.287,0.875,-0.205
6.320,-0.287,0.879,-0.203
6.330,-0.289,0.879,-0.203
6.340,-0.291,0.879,-0.203
6.350,-0.289,0.881,-0.201
6.360,-0.287,0.883,-0.201
6.370,-0.285,0.877,-0.203
6.380,-0.285,0.877,-0.205
6.389,-0.287,0.877,-0.205
6.399,-0.283,0.877,-0.205
6.409,-0.287,0.877,-0.205
6.419,-0.289,0.879,-0.205
6.429,-0.289,0.883,-0.203
6.439,-0.287,0.883,-0.203
6.449,-0.285,0.881,-0.205
6.459,-0.289,0.883,-0.203
6.469,-0.285,0.877,-0.203
6.479,-0.281,0.879,-0.201
6.489,-0.279,0.879,-0.203
6.499,-0.283,0.873,-0.203
6.509,-0.283,0.875,-0.205
6.518,-0.283,0.883,-0.207
6.528,-0.287,0.879,-0.207
6.538,-0.287,0.881,-0.209
6.548,-0.285,0.885,-0.207
6.558,-0.283,0.887,-0.207
6.568,-0.289,0.883,-0.211
6.578,-0.289,0.881,-0.209
6.588,-0.285,0.883,-0.203
6.598,-0.287,0.885,-0.199
6.608,-0.287,0.875,-0.201
6.618,-0.293,0.873,-0.209
6.628,-0.295,0.873,-0.207
6.638,-0.301,0.873,-0.205
6.648,-0.299,0.883,-0.201
6.657,-0.297,0.883,-0.197
6.667,-0.293,0.883,-0.197
6.677,-0.293,0.883,-0.197
6.687,-0.295,0.879,-0.197
6.697,-0.295,0.873,-0.203
6.707,-0.295,0.875,-0.205
6.717,-0.291,0.877,-0.203
6.727,-0.295,0.881,-0.203
6.737,-0.291,0.881,-0.199
6.747,-0.291,0.881,-0.199
6.757,-0.289,0.883,-0.197
6.767,-0.289,0.877,-0.197
6.777,-0.293,0.879,-0.201
6.786,-0.289,0.875,-0.199
6.796,-0.291,0.875,-0.199
6.806,-0.289,0.881,-0.199
6.816,-0.291,0.877,-0.201
6.826,-0.285,0.875,-0.197
6.836,-0.283,0.887,-0.197
6.846,-0.283,0.887,-0.195
6.856,-0.283,0.881,-0.195
6.866,-0.285,0.875,-0.203
6.876,-0.287,0.875,-0.207
6.886,-0.289,0.871,-0.203
6.896,-0.289,0.881,-0.203
6.906,-0.287,0.889,-0.199
6.915,-0.285,0.885,-0.199
6.925,-0.289,0.887,-0.207
6.935,-0.291,0.883,-0.203
6.945,-0.289,0.883,-0.201
6.955,-0.293,0.879,-0.205
6.965,-0.291,0.879,-0.203
6.975,-0.285,0.879,-0.201
6.985,-0.289,0.877,-0.199
6.995,-0.283,0.879,-0.203
7.005,-0.283,0.881,-0.197
7.015,-0.287,0.879,-0.203
7.025,-0.285,0.881,-0.203
7.035,-0.283,0.875,-0.199
7.045,-0.285,0.881,-0.203
7.054,-0.283,0.881,-0.203
7.064,-0.285,0.883,-0.205
7.074,-0.283,0.881,-0.205
7.084,-0.287,0.877,-0.203
7.094,-0.289,0.873,-0.207
7.104,-0.289,0.877,-0.205
7.114,-0.287,0.875,-0.201
7.124,-0.293,0.879,-0.203
7.134,-0.293,0.885,-0.203
7.144,-0.295,0.885,-0.205
7.154,-0.293,0.885,-0.207
7.164,-0.291,0.883,-0.205
7.174,-0.289,0.877,-0.205
7.183,-0.293,0.877,-0.207
7.193,-0.289,0.877,-0.207
7.203,-0.289,0.879,-0.205
7.213,-0.285,0.883,-0.199
7.223,-0.283,0.879,-0.201
7.233,-0.281,0.883,-0.203
7.243,-0.281,0.885,-0.201
7.253,-0.283,0.883,-0.201
7.263,-0.287,0.879,-0.205
7.273,-0.289,0.875,-0.201
7.283,-0.293,0.879,-0.205
7.293,-0.289,0.883,-0.203
7.303,-0.289,0.885,-0.201
7.313,-0.287,0.885,-0.199
7.322,-0.285,0.883,-0.199
7.332,-0.285,0.881,-0.199
7.342,-0.285,0.879,-0.195
7.352,-0.287,0.873,-0.203
7.362,-0.291,0.875,-0.199
7.372,-0.287,0.875,-0.201
7.382,-0.287,0.875,-0.203
7.392,-0.291,0.877,-0.201
7.402,-0.289,0.881,-0.199
7.412,-0.289,0.879,-0.203
7.422,-0.289,0.883,-0.203
7.432,-0.285,0.885,-0.203
7.442,-0.287,0.885,-0.205
7.451,-0.285,0.885,-0.207
7.461,-0.289,0.879,-0.207
7.471,-0.283,0.883,-0.201
7.481,-0.279,0.887,-0.199
7.491,-0.281,0.877,-0.201
7.501,-0.281,0.877,-0.201
7.511,-0.289,0.871,-0.205
7.521,-0.289,0.875,-0.203
7.531,-0.289,0.879,-0.201
7.541,-0.285,0.881,-0.203
7.551,-0.287,0.887,-0.201
7.561,-0.285,0.887,-0.201
7.571,-0.287,0.883,-0.199
7.581,-0.287,0.881,-0.205
7.590,-0.287,0.879,-0.203
7.600,-0.289,0.879,-0.211
7.610,-0.285,0.881,-0.209
7.620,-0.289,0.879,-0.207
7.630,-0.287,0.881,-0.203
7.640,-0.289,0.879,-0.201
7.650,-0.289,0.877,-0.205
7.660,-0.291,0.875,-0.205
7.670,-0.291,0.879,-0.203
7.680,-0.287,0.885,-0.203
7.690,-0.289,0.887,-0.203
7.700,-0.289,0.889,-0.203
7.710,-0.285,0.891,-0.203
7.719,-0.285,0.881,-0.203
7.729,-0.283,0.873,-0.203
7.739,-0.281,0.875,-0.205
7.749,-0.277,0.877,-0.203
7.759,-0.281,0.881,-0.199
7.769,-0.281,0.879,-0.203
7.779,-0.281,0.881,-0.205
7.789,-0.281,0.879,-0.201
7.799,-0.281,0.881,-0.203
7.809,-0.285,0.877,-0.201
7.819,-0.283,0.873,-0.203
7.829,-0.283,0.879,-0.201
7.839,-0.281,0.879,-0.203
7.849,-0.283,0.875,-0.205
7.858,-0.281,0.883,-0.199
7.868,-0.279,0.889,-0.201
7.878,-0.285,0.889,-0.193
7.888,-0.291,0.879,-0.207
7.898,-0.293,0.879,-0.207
7.908,-0.297,0.881,-0.207
7.918,-0.295,0.885,-0.203
7.928,-0.295,0.887,-0.201
7.938,-0.291,0.889,-0.201
7.948,-0.295,0.885,-0.197
7.958,-0.293,0.877,-0.199
7.968,-0.293,0.873,-0.203
7.978,-0.289,0.869,-0.205
7.987,-0.291,0.867,-0.203
7.997,-0.289,0.869,-0.203
8.007,-0.285,0.875,-0.205
8.017,-0.287,0.881,-0.197
8.027,-0.285,0.883,-0.203
8.037,-0.285,0.883,-0.203
8.047,-0.285,0.881,-0.207
8.057,-0.281,0.879,-0.205
8.067,-0.283,0.879,-0.205
8.077,-0.281,0.877,-0.207
8.087,-0.279,0.879,-0.213
8.097,-0.277,0.875,-0.203
8.107,-0.271,0.887,-0.203
8.116,-0.268,0.889,-0.203
8.126,-0.271,0.887,-0.203
8.136,-0.277,0.879,-0.209
8.146,-0.281,0.879,-0.215
8.156,-0.283,0.877,-0.209
8.166,-0.285,0.879,-0.209
8.176,-0.281,0.883,-0.211
8.186,-0.283,0.887,-0.211
8.196,-0.281,0.891,-0.209
8.206,-0.281,0.887,-0.213
8.216,-0.283,0.885,-0.213
8.226,-0.283,0.887,-0.211
8.236,-0.287,0.875,-0.213
8.246,-0.285,0.883,-0.215
8.255,-0.283,0.881,-0.213
8.265,-0.285,0.883,-0.211
8.275,-0.283,0.883,-0.211
8.285,-0.285,0.885,-0.209
8.295,-0.283,0.883,-0.213
8.305,-0.285,0.879,-0.211
8.315,-0.281,0.881,-0.211
8.325,-0.281,0.879,-0.211
8.335,-0.281,0.877,-0.209
8.345,-0.281,0.877,-0.211
8.355,-0.279,0.875,-0.211
8.365,-0.281,0.877,-0.207
8.375,-0.285,0.873,-0.209
8.384,-0.287,0.873,-0.209
8.394,-0.287,0.875,-0.211
8.404,-0.285,0.879,-0.211
8.414,-0.283,0.883,-0.209
8.424,-0.281,0.879,-0.211
8.434,-0.281,0.879,-0.209
8.444,-0.285,0.879,-0.209
8.454,-0.281,0.877,-0.213
8.464,-0.283,0.881,-0.209
8.474,-0.281,0.881,-0.203
8.484,-0.281,0.877,-0.209
8.494,-0.279,0.879,-0.209
8.504,-0.281,0.883,-0.203
8.514,-0.281,0.887,-0.201
8.523,-0.281,0.885,-0.205
8.533,-0.283,0.885,-0.205
8.543,-0.283,0.887,-0.203
8.553,-0.279,0.891,-0.199
8.563,-0.279,0.883,-0.199
8.573,-0.281,0.879,-0.201
8.583,-0.279,0.873,-0.197
8.593,-0.281,0.873,-0.199
8.603,-0.285,0.871,-0.201
8.613,-0.287,0.871,-0.205
8.623,-0.291,0.873,-0.205
8.633,-0.289,0.875,-0.203
8.643,-0.287,0.881,-0.205
8.652,-0.289,0.883,-0.207
8.662,-0.291,0.879,-0.207
8.672,-0.285,0.879,-0.207
8.682,-0.287,0.877,-0.211
8.692,-0.287,0.875,-0.215
8.702,-0.285,0.877,-0.211
8.712,-0.285,0.879,-0.213
8.722,-0.283,0.883,-0.213
8.732,-0.289,0.879,-0.215
8.742,-0.281,0.883,-0.215
8.752,-0.279,0.891,-0.211
8.762,-0.279,0.885,-0.211
8.772,-0.279,0.877,-0.211
8.781,-0.279,0.873,-0.219
8.791,-0.279,0.875,-0.219
8.801,-0.281,0.877,-0.215
8.811,-0.279,0.879,-0.215
8.821,-0.275,0.881,-0.213
8.831,-0.275,0.887,-0.211
8.841,-0.277,0.885,-0.211
8.851,-0.279,0.881,-0.213
8.861,-0.279,0.879,-0.213
8.871,-0.281,0.877,-0.215
8.881,-0.283,0.877,-0.215
8.891,-0.285,0.879,-0.217
8.901,-0.283,0.883,-0.215
8.911,-0.285,0.881,-0.211
8.920,-0.285,0.883,-0.213
8.930,-0.287,0.887,-0.213
8.940,-0.283,0.885,-0.213
8.950,-0.283,0.881,-0.207
8.960,-0.279,0.883,-0.211
8.970,-0.279,0.881,-0.209
8.980,-0.277,0.879,-0.211
8.990,-0.277,0.877,-0.211
9.000,-0.273,0.879,-0.207
9.010,-0.281,0.879,-0.207
9.020,-0.277,0.881,-0.207
9.030,-0.281,0.877,-0.207
9.040,-0.279,0.879,-0.205
9.049,-0.283,0.881,-0.207
9.059,-0.281,0.879,-0.211
9.069,-0.281,0.883,-0.207
9.079,-0.287,0.883,-0.203
9.089,-0.285,0.883,-0.205
9.099,-0.291,0.879,-0.207
9.109,-0.285,0.881,-0.207
9.119,-0.285,0.883,-0.205
9.129,-0.289,0.885,-0.205
9.139,-0.287,0.879,-0.207
9.149,-0.285,0.883,-0.205
9.159,-0.285,0.885,-0.201
9.169,-0.283,0.883,-0.203
9.179,-0.283,0.877,-0.203
9.188,-0.289,0.875,-0.207
9.198,-0.289,0.877,-0.207
9.208,-0.285,0.881,-0.203
9.218,-0.281,0.881,-0.205
9.228,-0.281,0.877,-0.199
9.238,-0.285,0.879,-0.201
9.248,-0.285,0.879,-0.203
9.258,-0.287,0.873,-0.205
9.268,-0.289,0.873,-0.207
9.278,-0.291,0.871,-0.211
9.288,-0.287,0.879,-0.207
9.298,-0.283,0.883,-0.205
9.308,-0.285,0.885,-0.205
9.317,-0.281,0.885,-0.205
9.327,-0.279,0.883,-0.205
9.337,-0.281,0.883,-0.207
9.347,-0.283,0.879,-0.207
9.357,-0.281,0.875,-0.209
9.367,-0.281,0.877,-0.211
9.377,-0.289,0.879,-0.207
9.387,-0.285,0.879,-0.211
9.397,-0.283,0.879,-0.207
9.407,-0.281,0.887,-0.205
9.417,-0.279,0.887,-0.203
9.427,-0.279,0.879,-0.203
9.437,-0.283,0.875,-0.211
9.447,-0.281,0.875,-0.211
9.456,-0.285,0.879,-0.209
9.466,-0.281,0.881,-0.209
9.476,-0.283,0.883,-0.209
9.486,-0.283,0.883,-0.213
9.496,-0.281,0.885,-0.211
9.506,-0.285,0.881,-0.213
9.516,-0.283,0.883,-0.215
9.526,-0.285,0.881,-0.213
9.536,-0.287,0.881,-0.213
9.546,-0.287,0.881,-0.213
9.556,-0.285,0.883,-0.211
9.566,-0.283,0.883,-0.211
9.576,-0.283,0.877,-0.211
9.585,-0.283,0.877,-0.209
9.595,-0.285,0.875,-0.207
9.605,-0.283,0.879,-0.209
9.615,-0.285,0.881,-0.209
9.625,-0.281,0.879,-0.207
9.635,-0.281,0.875,-0.211
9.645,-0.285,0.877,-0.211
9.655,-0.285,0.879,-0.215
9.665,-0.281,0.881,-0.209
9.675,-0.283,0.881,-0.211
9.685,-0.279,0.883,-0.211
9.695,-0.281,0.885,-0.209
9.705,-0.285,0.885,-0.211
9.715,-0.285,0.885,-0.211
9.724,-0.287,0.883,-0.209
9.734,-0.285,0.879,-0.209
9.744,-0.283,0.879,-0.209
9.754,-0.283,0.881,-0.205
9.764,-0.281,0.885,-0.205
9.774,-0.285,0.881,-0.207
9.784,-0.281,0.881,-0.209
9.794,-0.287,0.877,-0.207
9.804,-0.289,0.879,-0.207
9.814,-0.289,0.883,-0.207
9.824,-0.289,0.879,-0.207
9.834,-0.285,0.879,-0.205
9.844,-0.289,0.881,-0.203
9.853,-0.287,0.877,-0.203
9.863,-0.283,0.879,-0.207
9.873,-0.281,0.877,-0.205
9.883,-0.283,0.877,-0.207
9.893,-0.287,0.879,-0.207
9.903,-0.283,0.883,-0.209
9.913,-0.279,0.885,-0.205
9.923,-0.281,0.885,-0.205
9.933,-0.283,0.885,-0.207
9.943,-0.289,0.881,-0.203
9.953,-0.291,0.873,-0.205
9.963,-0.291,0.871,-0.213
9.973,-0.283,0.871,-0.209
9.982,-0.277,0.877,-0.209
9.992,-0.281,0.887,-0.203
10.002,-0.283,0.885,-0.207
10.012,-0.275,0.885,-0.207
10.022,-0.279,0.887,-0.203
10.032,-0.283,0.881,-0.205
10.042,-0.283,0.879,-0.209
10.052,-0.285,0.877,-0.207
10.062,-0.283,0.877,-0.205
10.072,-0.283,0.877,-0.205
10.082,-0.281,0.867,-0.207
10.092,-0.279,0.877,-0.203
10.102,-0.281,0.887,-0.203
10.112,-0.281,0.879,-0.205
10.121,-0.287,0.875,-0.205
10.131,-0.287,0.873,-0.211
10.141,-0.293,0.879,-0.211
10.151,-0.295,0.881,-0.205
10.161,-0.297,0.887,-0.211
10.171,-0.295,0.887,-0.211
10.181,-0.297,0.893,-0.201
10.191,-0.309,0.889,-0.201
10.201,-0.316,0.883,-0.209
10.211,-0.309,0.873,-0.215
10.221,-0.303,0.877,-0.207
10.231,-0.291,0.873,-0.211
10.241,-0.283,0.875,-0.211
10.250,-0.281,0.873,-0.209
10.260,-0.256,0.875,-0.217
10.270,-0.256,0.883,-0.211
10.280,-0.270,0.883,-0.207
10.290,-0.273,0.881,-0.215
10.300,-0.268,0.875,-0.213
10.310,-0.279,0.873,-0.211
10.320,-0.293,0.879,-0.213
10.330,-0.297,0.879,-0.217
10.340,-0.289,0.881,-0.217
10.350,-0.283,0.881,-0.213
10.360,-0.283,0.879,-0.213
10.370,-0.273,0.881,-0.213
10.380,-0.266,0.887,-0.209
10.389,-0.271,0.883,-0.211
10.399,-0.266,0.881,-0.219
10.409,-0.266,0.885,-0.219
10.419,-0.266,0.885,-0.211
10.429,-0.271,0.883,-0.213
10.439,-0.275,0.885,-0.217
10.449,-0.273,0.889,-0.211
10.459,-0.279,0.893,-0.213
10.469,-0.273,0.895,-0.211
10.479,-0.275,0.893,-0.205
10.489,-0.270,0.889,-0.213
10.499,-0.273,0.887,-0.213
10.509,-0.273,0.889,-0.213
10.518,-0.268,0.889,-0.213
10.528,-0.264,0.887,-0.209
10.538,-0.260,0.885,-0.213
10.548,-0.258,0.887,-0.207
10.558,-0.260,0.887,-0.207
10.568,-0.264,0.889,-0.205
10.578,-0.270,0.889,-0.201
10.588,-0.270,0.885,-0.205
10.598,-0.271,0.896,-0.209
10.608,-0.273,0.912,-0.197
10.618,-0.264,0.910,-0.195
10.628,-0.246,0.900,-0.201
10.638,-0.256,0.889,-0.205
10.648,-0.279,0.875,-0.209
10.657,-0.285,0.869,-0.217
10.667,-0.285,0.863,-0.213
10.677,-0.289,0.867,-0.205
10.687,-0.291,0.873,-0.203
10.697,-0.291,0.873,-0.203
10.707,-0.285,0.873,-0.195
10.717,-0.283,0.867,-0.189
10.727,-0.281,0.871,-0.195
10.737,-0.277,0.871,-0.186
10.747,-0.277,0.869,-0.188
10.757,-0.277,0.867,-0.189
10.767,-0.277,0.875,-0.195
10.777,-0.275,0.885,-0.191
10.786,-0.275,0.885,-0.193
10.796,-0.275,0.887,-0.193
10.806,-0.275,0.891,-0.193
10.816,-0.270,0.896,-0.189
10.826,-0.268,0.887,-0.188
10.836,-0.273,0.887,-0.197
10.846,-0.275,0.895,-0.197
10.856,-0.275,0.891,-0.195
10.866,-0.273,0.895,-0.197
10.876,-0.277,0.895,-0.201
10.886,-0.273,0.896,-0.193
10.896,-0.270,0.898,-0.191
10.906,-0.271,0.893,-0.195
10.915,-0.287,0.895,-0.195
10.925,-0.291,0.900,-0.195
10.935,-0.287,0.904,-0.191
10.945,-0.293,0.887,-0.193
10.955,-0.289,0.891,-0.197
10.965,-0.285,0.891,-0.189
10.975,-0.283,0.893,-0.186
10.985,-0.271,0.902,-0.186
10.995,-0.277,0.889,-0.184
11.005,-0.279,0.893,-0.184
11.015,-0.270,0.889,-0.182
11.025,-0.273,0.885,-0.180
11.035,-0.275,0.889,-0.180
11.045,-0.279,0.885,-0.178
11.054,-0.273,0.885,-0.178
11.064,-0.277,0.889,-0.174
11.074,-0.275,0.887,-0.170
11.084,-0.279,0.891,-0.172
11.094,-0.281,0.891,-0.174
11.104,-0.271,0.893,-0.168
11.114,-0.275,0.891,-0.166
11.124,-0.281,0.895,-0.172
11.134,-0.275,0.893,-0.166
11.144,-0.283,0.893,-0.168
11.154,-0.291,0.895,-0.168
11.164,-0.289,0.895,-0.170
11.174,-0.297,0.898,-0.164
11.183,-0.293,0.896,-0.164
11.193,-0.295,0.904,-0.156
11.203,-0.299,0.891,-0.154
11.213,-0.299,0.883,-0.158
11.223,-0.297,0.891,-0.152
11.233,-0.293,0.891,-0.146
11.243,-0.287,0.904,-0.141
11.253,-0.293,0.904,-0.133
11.263,-0.305,0.887,-0.141
11.273,-0.311,0.887,-0.145
11.283,-0.305,0.891,-0.141
11.293,-0.303,0.895,-0.127
11.303,-0.305,0.895,-0.123
11.313,-0.305,0.891,-0.125
11.322,-0.297,0.895,-0.119
11.332,-0.303,0.893,-0.115
11.342,-0.311,0.889,-0.115
11.352,-0.303,0.893,-0.115
11.362,-0.305,0.889,-0.109
11.372,-0.311,0.875,-0.107
11.382,-0.311,0.881,-0.111
11.392,-0.314,0.887,-0.104
11.402,-0.316,0.893,-0.096
11.412,-0.312,0.889,-0.096
11.422,-0.318,0.885,-0.094
11.432,-0.320,0.885,-0.092
11.442,-0.320,0.891,-0.090
11.451,-0.324,0.887,-0.092
11.461,-0.330,0.879,-0.088
11.471,-0.326,0.889,-0.088
11.481,-0.322,0.891,-0.084
11.491,-0.318,0.896,-0.082
11.501,-0.330,0.891,-0.078
11.511,-0.336,0.889,-0.082
11.521,-0.340,0.887,-0.082
11.531,-0.338,0.885,-0.084
11.541,-0.340,0.887,-0.084
11.551,-0.336,0.904,-0.082
11.561,-0.334,0.916,-0.076
11.571,-0.330,0.949,-0.072
11.581,-0.342,0.945,-0.070
11.590,-0.352,0.943,-0.082
11.600,-0.354,0.934,-0.088
11.610,-0.354,0.916,-0.092
11.620,-0.359,0.902,-0.094
11.630,-0.355,0.885,-0.094
11.640,-0.352,0.879,-0.090
11.650,-0.344,0.877,-0.074
11.660,-0.346,0.875,-0.062
11.670,-0.346,0.869,-0.061
11.680,-0.338,0.871,-0.047
11.690,-0.336,0.871,-0.041
11.700,-0.336,0.873,-0.031
11.710,-0.336,0.875,-0.027
11.719,-0.334,0.867,-0.031
11.729,-0.330,0.865,-0.027
11.739,-0.330,0.867,-0.023
11.749,-0.330,0.867,-0.023
11.759,-0.326,0.863,-0.031
11.769,-0.320,0.871,-0.021
11.779,-0.322,0.877,-0.023
11.789,-0.326,0.879,-0.021
11.799,-0.322,0.885,-0.020
11.809,-0.322,0.887,-0.016
11.819,-0.318,0.889,-0.016
11.829,-0.318,0.893,-0.020
11.839,-0.328,0.891,-0.025
11.848,-0.334,0.891,-0.025
11.858,-0.338,0.895,-0.021
11.868,-0.346,0.891,-0.029
11.878,-0.344,0.889,-0.027
11.888,-0.346,0.895,-0.021
11.898,-0.352,0.889,-0.021
11.908,-0.352,0.887,-0.023
11.918,-0.352,0.887,-0.025
11.928,-0.355,0.885,-0.027
11.938,-0.355,0.883,-0.025
11.948,-0.354,0.885,-0.023
11.958,-0.350,0.883,-0.021
11.968,-0.346,0.883,-0.021
11.978,-0.350,0.887,-0.023
11.987,-0.352,0.891,-0.025
11.997,-0.350,0.887,-0.025
12.007,-0.352,0.889,-0.025
12.017,-0.352,0.891,-0.027
12.027,-0.352,0.893,-0.025
12.037,-0.350,0.896,-0.027
12.047,-0.348,0.891,-0.027
12.057,-0.346,0.896,-0.027
12.067,-0.342,0.893,-0.027
12.077,-0.332,0.896,-0.027
12.087,-0.328,0.896,-0.027
12.097,-0.334,0.891,-0.027
12.107,-0.340,0.891,-0.031
12.116,-0.346,0.885,-0.031
12.126,-0.350,0.891,-0.029
12.136,-0.357,0.896,-0.027
12.146,-0.352,0.891,-0.023
12.156,-0.346,0.879,-0.027
12.166,-0.355,0.877,-0.025
12.176,-0.379,0.867,-0.033
12.186,-0.369,0.871,-0.035
12.196,-0.352,0.881,-0.029
12.206,-0.346,0.885,-0.027
12.216,-0.342,0.893,-0.027
12.226,-0.340,0.896,-0.031
12.236,-0.340,0.889,-0.033
12.246,-0.340,0.889,-0.041
12.255,-0.344,0.896,-0.045
12.265,-0.346,0.889,-0.039
12.275,-0.344,0.887,-0.047
12.285,-0.350,0.889,-0.047
12.295,-0.352,0.889,-0.047
12.305,-0.354,0.887,-0.045
12.315,-0.371,0.887,-0.047
12.325,-0.387,0.881,-0.043
12.335,-0.395,0.877,-0.045
12.345,-0.395,0.875,-0.045
12.355,-0.400,0.869,-0.049
12.365,-0.396,0.867,-0.053
12.375,-0.391,0.873,-0.049
12.384,-0.387,0.877,-0.049
12.394,-0.383,0.881,-0.047
12.404,-0.387,0.881,-0.047
12.414,-0.387,0.883,-0.051
12.424,-0.383,0.885,-0.049
12.434,-0.385,0.877,-0.049
12.444,-0.391,0.879,-0.057
12.454,-0.391,0.879,-0.055
12.464,-0.393,0.879,-0.055
12.474,-0.387,0.877,-0.057
12.484,-0.389,0.877,-0.055
12.494,-0.389,0.875,-0.059
12.504,-0.395,0.873,-0.061
12.514,-0.400,0.877,-0.059
12.523,-0.404,0.879,-0.059
12.533,-0.406,0.877,-0.061
12.543,-0.412,0.875,-0.059
12.553,-0.406,0.885,-0.057
12.563,-0.406,0.883,-0.049
12.573,-0.402,0.883,-0.051
12.583,-0.398,0.875,-0.049
12.593,-0.398,0.871,-0.049
12.603,-0.395,0.875,-0.047
12.613,-0.389,0.875,-0.041
12.623,-0.387,0.877,-0.039
12.633,-0.381,0.873,-0.045
12.643,-0.377,0.869,-0.043
12.652,-0.383,0.871,-0.043
12.662,-0.391,0.867,-0.043
12.672,-0.391,0.867,-0.051
12.682,-0.395,0.869,-0.049
12.692,-0.398,0.869,-0.045
12.702,-0.400,0.873,-0.043
12.712,-0.398,0.873,-0.045
12.722,-0.402,0.877,-0.041
12.732,-0.404,0.877,-0.045
12.742,-0.398,0.877,-0.047
12.752,-0.400,0.877,-0.045
12.762,-0.402,0.875,-0.041
12.772,-0.402,0.877,-0.045
12.781,-0.400,0.875,-0.045
12.791,-0.402,0.867,-0.041
12.801,-0.398,0.877,-0.041
12.811,-0.395,0.879,-0.039
12.821,-0.389,0.871,-0.037
12.831,-0.389,0.873,-0.037
12.841,-0.387,0.871,-0.045
12.851,-0.389,0.871,-0.039
12.861,-0.381,0.875,-0.037
12.871,-0.383,0.877,-0.039
12.881,-0.383,0.879,-0.035
12.891,-0.381,0.877,-0.041
12.901,-0.383,0.873,-0.041
12.911,-0.385,0.867,-0.043
12.920,-0.389,0.861,-0.045
12.930,-0.387,0.867,-0.043
12.940,-0.389,0.869,-0.039
12.950,-0.393,0.869,-0.043
12.960,-0.395,0.869,-0.045
12.970,-0.398,0.873,-0.041
12.980,-0.398,0.875,-0.041
12.990,-0.400,0.873,-0.041
13.000,-0.402,0.875,-0.041
13.010,-0.406,0.873,-0.043
13.020,-0.404,0.869,-0.047
13.030,-0.408,0.871,-0.047
13.040,-0.410,0.873,-0.049
13.049,-0.410,0.879,-0.045
13.059,-0.406,0.885,-0.047
13.069,-0.406,0.883,-0.049
13.079,-0.404,0.881,-0.047
13.089,-0.396,0.879,-0.045
13.099,-0.395,0.879,-0.045
13.109,-0.393,0.875,-0.043
13.119,-0.391,0.873,-0.045
13.129,-0.389,0.871,-0.047
13.139,-0.389,0.873,-0.039
13.149,-0.385,0.865,-0.039
13.159,-0.383,0.863,-0.039
13.169,-0.387,0.863,-0.039
13.179,-0.385,0.869,-0.045
13.188,-0.385,0.873,-0.041
13.198,-0.387,0.871,-0.043
13.208,-0.387,0.869,-0.045
13.218,-0.391,0.875,-0.045
13.228,-0.389,0.879,-0.043
13.238,-0.393,0.881,-0.045
13.248,-0.396,0.883,-0.045
13.258,-0.402,0.877,-0.047
13.268,-0.404,0.881,-0.049
13.278,-0.404,0.891,-0.047
13.288,-0.396,0.889,-0.043
13.298,-0.393,0.893,-0.043
13.308,-0.389,0.889,-0.045
13.317,-0.389,0.877,-0.043
13.327,-0.385,0.867,-0.045
13.337,-0.385,0.859,-0.047
13.347,-0.393,0.850,-0.045
13.357,-0.387,0.848,-0.041
13.367,-0.387,0.854,-0.039
13.377,-0.389,0.852,-0.043
13.387,-0.395,0.857,-0.041
13.397,-0.396,0.859,-0.043
13.407,-0.400,0.865,-0.045
13.417,-0.402,0.865,-0.045
13.427,-0.404,0.865,-0.045
13.437,-0.406,0.871,-0.043
13.447,-0.412,0.877,-0.049
13.456,-0.410,0.877,-0.043
13.466,-0.412,0.887,-0.043
13.476,-0.410,0.891,-0.043
13.486,-0.410,0.885,-0.043
13.496,-0.412,0.879,-0.045
13.506,-0.412,0.873,-0.049
13.516,-0.416,0.869,-0.047
13.526,-0.412,0.873,-0.043
13.536,-0.404,0.881,-0.041
13.546,-0.400,0.883,-0.039
13.556,-0.391,0.881,-0.039
13.566,-0.391,0.879,-0.037
13.576,-0.383,0.875,-0.039
13.585,-0.385,0.867,-0.037
13.595,-0.381,0.863,-0.041
13.605,-0.377,0.857,-0.043
13.615,-0.375,0.857,-0.041
13.625,-0.375,0.859,-0.043
13.635,-0.381,0.861,-0.041
13.645,-0.385,0.859,-0.045
13.655,-0.385,0.871,-0.047
13.665,-0.393,0.873,-0.049
13.675,-0.395,0.877,-0.051
13.685,-0.395,0.879,-0.055
13.695,-0.393,0.881,-0.055
13.705,-0.391,0.883,-0.055
13.714,-0.393,0.883,-0.053
13.724,-0.393,0.885,-0.053
13.734,-0.396,0.887,-0.057
13.744,-0.393,0.887,-0.055
13.754,-0.393,0.883,-0.051
13.764,-0.396,0.879,-0.053
13.774,-0.395,0.879,-0.051
13.784,-0.396,0.877,-0.049
13.794,-0.400,0.875,-0.049
13.804,-0.404,0.877,-0.051
13.814,-0.406,0.869,-0.049
13.824,-0.406,0.863,-0.045
13.834,-0.408,0.857,-0.045
13.844,-0.408,0.854,-0.047
13.853,-0.410,0.859,-0.045
13.863,-0.404,0.867,-0.045
13.873,-0.402,0.869,-0.045
13.883,-0.402,0.863,-0.045
13.893,-0.402,0.867,-0.043
13.903,-0.404,0.875,-0.041
13.913,-0.400,0.875,-0.041
13.923,-0.400,0.873,-0.043
13.933,-0.406,0.877,-0.047
13.943,-0.404,0.877,-0.045
13.953,-0.402,0.887,-0.043
13.963,-0.395,0.889,-0.043
13.973,-0.393,0.879,-0.041
13.982,-0.389,0.877,-0.043
13.992,-0.385,0.875,-0.037
14.002,-0.387,0.871,-0.039
14.012,-0.387,0.859,-0.043
14.022,-0.393,0.854,-0.045
14.032,-0.391,0.857,-0.047
14.042,-0.387,0.865,-0.043
14.052,-0.387,0.867,-0.039
14.062,-0.391,0.867,-0.043
14.072,-0.393,0.869,-0.041
14.082,-0.393,0.873,-0.041
14.092,-0.398,0.873,-0.045
14.102,-0.402,0.875,-0.047
14.112,-0.406,0.877,-0.047
14.121,-0.406,0.879,-0.047
14.131,-0.402,0.875,-0.047
14.141,-0.398,0.883,-0.045
14.151,-0.398,0.881,-0.047
14.161,-0.400,0.877,-0.045
14.171,-0.395,0.879,-0.047
14.181,-0.395,0.881,-0.047
14.191,-0.396,0.873,-0.045
14.201,-0.395,0.881,-0.047
14.211,-0.387,0.885,-0.045
14.221,-0.385,0.885,-0.041
14.231,-0.385,0.881,-0.039
14.241,-0.389,0.877,-0.045
14.250,-0.387,0.871,-0.041
14.260,-0.391,0.867,-0.041
14.270,-0.387,0.863,-0.041
14.280,-0.387,0.859,-0.043
14.290,-0.389,0.857,-0.041
14.300,-0.387,0.855,-0.043
14.310,-0.385,0.863,-0.041
14.320,-0.391,0.867,-0.041
14.330,-0.395,0.865,-0.045
14.340,-0.395,0.869,-0.047
14.350,-0.400,0.871,-0.043
14.360,-0.402,0.871,-0.049
14.370,-0.406,0.873,-0.047
14.380,-0.406,0.873,-0.051
14.389,-0.408,0.877,-0.053
14.399,-0.408,0.885,-0.053
14.409,-0.408,0.881,-0.049
14.419,-0.408,0.883,-0.051
14.429,-0.408,0.879,-0.051
14.439,-0.406,0.881,-0.049
14.449,-0.404,0.881,-0.047
14.459,-0.406,0.877,-0.053
14.469,-0.402,0.873,-0.049
14.479,-0.400,0.871,-0.047
14.489,-0.398,0.867,-0.045
14.499,-0.396,0.869,-0.047
14.509,-0.395,0.863,-0.041
14.518,-0.395,0.857,-0.047
14.528,-0.400,0.852,-0.043
14.538,-0.395,0.861,-0.043
14.548,-0.398,0.867,-0.039
14.558,-0.398,0.863,-0.047
14.568,-0.396,0.867,-0.049
14.578,-0.395,0.871,-0.045
14.588,-0.396,0.879,-0.047
14.598,-0.395,0.877,-0.045
14.608,-0.396,0.879,-0.047
14.618,-0.396,0.889,-0.053
14.628,-0.396,0.889,-0.051
14.638,-0.391,0.887,-0.051
14.647,-0.391,0.887,-0.049
14.657,-0.389,0.881,-0.045
14.667,-0.389,0.875,-0.051
14.677,-0.391,0.869,-0.045
14.687,-0.393,0.863,-0.047
14.697,-0.395,0.859,-0.047
14.707,-0.398,0.859,-0.045
14.717,-0.398,0.865,-0.043
14.727,-0.402,0.867,-0.041
14.737,-0.404,0.869,-0.041
14.747,-0.406,0.871,-0.041
14.757,-0.410,0.869,-0.041
14.767,-0.410,0.869,-0.045
14.777,-0.414,0.871,-0.043
14.786,-0.416,0.871,-0.045
14.796,-0.414,0.873,-0.047
14.806,-0.414,0.873,-0.043
14.816,-0.404,0.883,-0.045
14.826,-0.400,0.887,-0.043
14.836,-0.396,0.879,-0.041
14.846,-0.391,0.871,-0.043
14.856,-0.387,0.875,-0.047
14.866,-0.385,0.879,-0.045
14.876,-0.389,0.879,-0.041
14.886,-0.385,0.883,-0.045
14.896,-0.383,0.881,-0.043
14.906,-0.385,0.881,-0.045
14.915,-0.389,0.875,-0.041
14.925,-0.389,0.869,-0.047
14.935,-0.393,0.857,-0.045
14.945,-0.395,0.855,-0.045
14.955,-0.393,0.863,-0.043
14.965,-0.393,0.863,-0.045
14.975,-0.395,0.863,-0.045
14.985,-0.395,0.863,-0.047
14.995,-0.400,0.873,-0.045
15.005,-0.402,0.875,-0.047
15.015,-0.404,0.875,-0.047
15.025,-0.408,0.875,-0.047
15.035,-0.406,0.873,-0.047
15.045,-0.412,0.871,-0.047
15.054,-0.414,0.877,-0.051
15.064,-0.414,0.877,-0.051
15.074,-0.412,0.877,-0.047
15.084,-0.414,0.871,-0.047
15.094,-0.410,0.877,-0.051
15.104,-0.408,0.879,-0.047
15.114,-0.406,0.883,-0.045
15.124,-0.404,0.881,-0.047
15.134,-0.402,0.873,-0.047
15.144,-0.396,0.873,-0.051
15.154,-0.396,0.869,-0.043
15.164,-0.389,0.871,-0.043
15.174,-0.389,0.871,-0.037
15.183,-0.387,0.863,-0.037
15.193,-0.389,0.859,-0.041
15.203,-0.389,0.857,-0.041
15.213,-0.389,0.867,-0.047
15.223,-0.389,0.867,-0.043
15.233,-0.385,0.867,-0.045
15.243,-0.385,0.869,-0.047
15.253,-0.385,0.871,-0.047
15.263,-0.389,0.875,-0.041
15.273,-0.391,0.879,-0.047
15.283,-0.396,0.879,-0.051
15.293,-0.400,0.883,-0.051
15.303,-0.406,0.881,-0.051
15.313,-0.410,0.879,-0.051
15.322,-0.406,0.879,-0.047
15.332,-0.404,0.877,-0.047
15.342,-0.404,0.877,-0.043
15.352,-0.406,0.871,-0.043
15.362,-0.410,0.869,-0.045
15.372,-0.408,0.867,-0.043
15.382,-0.410,0.861,-0.043
15.392,-0.410,0.855,-0.045
15.402,-0.408,0.857,-0.043
15.412,-0.406,0.863,-0.041
15.422,-0.404,0.867,-0.043
15.432,-0.410,0.863,-0.045
15.442,-0.406,0.865,-0.043
15.451,-0.408,0.863,-0.043
15.461,-0.404,0.867,-0.045
15.471,-0.404,0.871,-0.043
15.481,-0.402,0.873,-0.049
15.491,-0.400,0.873,-0.043
15.501,-0.393,0.879,-0.041
15.511,-0.395,0.883,-0.041
15.521,-0.393,0.883,-0.041
15.531,-0.391,0.877,-0.045
15.541,-0.393,0.877,-0.045
15.551,-0.393,0.873,-0.047
15.561,-0.393,0.881,-0.047
15.571,-0.389,0.883,-0.045
15.580,-0.385,0.883,-0.041
15.590,-0.389,0.881,-0.045
15.600,-0.391,0.875,-0.043
15.610,-0.391,0.867,-0.047
15.620,-0.391,0.865,-0.045
15.630,-0.391,0.861,-0.045
15.640,-0.391,0.855,-0.045
15.650,-0.387,0.861,-0.043
15.660,-0.389,0.867,-0.041
15.670,-0.391,0.863,-0.041
15.680,-0.393,0.867,-0.045
15.690,-0.396,0.871,-0.045
15.700,-0.398,0.873,-0.047
15.710,-0.400,0.877,-0.049
15.719,-0.402,0.871,-0.049
15.729,-0.404,0.873,-0.049
15.739,-0.408,0.875,-0.053
15.749,-0.408,0.879,-0.049
15.759,-0.408,0.883,-0.053
15.769,-0.410,0.879,-0.053
15.779,-0.408,0.877,-0.049
15.789,-0.410,0.875,-0.053
15.799,-0.406,0.881,-0.051
15.809,-0.406,0.881,-0.045
15.819,-0.400,0.877,-0.045
15.829,-0.398,0.875,-0.041
15.839,-0.396,0.871,-0.047
15.848,-0.393,0.865,-0.045
15.858,-0.393,0.863,-0.045
15.868,-0.391,0.863,-0.041
15.878,-0.391,0.857,-0.043
15.888,-0.393,0.855,-0.039
15.898,-0.393,0.861,-0.041
15.908,-0.393,0.869,-0.043
15.918,-0.398,0.865,-0.045
15.928,-0.396,0.871,-0.047
15.938,-0.398,0.871,-0.047
15.948,-0.398,0.873,-0.043
15.958,-0.400,0.875,-0.051
15.968,-0.398,0.881,-0.047
15.978,-0.396,0.887,-0.049
15.987,-0.398,0.881,-0.049
15.997,-0.402,0.877,-0.049
16.007,-0.402,0.873,-0.049
16.017,-0.404,0.879,-0.049
16.027,-0.398,0.879,-0.047
16.037,-0.396,0.881,-0.045
16.047,-0.395,0.879,-0.047
16.057,-0.393,0.875,-0.043
16.067,-0.400,0.869,-0.043
16.077,-0.400,0.863,-0.045
16.087,-0.402,0.855,-0.047
16.097,-0.404,0.850,-0.043
16.107,-0.408,0.857,-0.045
16.116,-0.408,0.861,-0.041
16.126,-0.410,0.863,-0.041
16.136,-0.412,0.867,-0.043
16.146,-0.408,0.871,-0.043
16.156,-0.406,0.875,-0.045
16.166,-0.406,0.871,-0.049
16.176,-0.404,0.871,-0.047
16.186,-0.402,0.875,-0.047
16.196,-0.400,0.873,-0.047
16.206,-0.396,0.877,-0.047
16.216,-0.393,0.889,-0.045
16.226,-0.387,0.889,-0.043
16.236,-0.385,0.877,-0.043
16.246,-0.389,0.871,-0.049
16.255,-0.391,0.877,-0.053
16.265,-0.391,0.877,-0.047
16.275,-0.393,0.875,-0.043
16.285,-0.391,0.877,-0.045
16.295,-0.387,0.879,-0.045
16.305,-0.393,0.871,-0.039
16.315,-0.393,0.867,-0.045
16.325,-0.393,0.857,-0.045
16.335,-0.395,0.857,-0.045
16.345,-0.396,0.863,-0.049
16.355,-0.398,0.863,-0.049
16.365,-0.402,0.869,-0.049
16.375,-0.398,0.869,-0.051
16.384,-0.404,0.875,-0.049
16.394,-0.404,0.875,-0.047
16.404,-0.408,0.869,-0.051
16.414,-0.410,0.869,-0.051
16.424,-0.406,0.877,-0.053
16.434,-0.404,0.879,-0.051
16.444,-0.406,0.881,-0.051
16.454,-0.408,0.879,-0.047
16.464,-0.408,0.873,-0.053
16.474,-0.402,0.877,-0.051
16.484,-0.400,0.879,-0.051
16.494,-0.402,0.881,-0.047
16.504,-0.400,0.877,-0.045
16.514,-0.400,0.875,-0.049
16.523,-0.396,0.869,-0.045
16.533,-0.400,0.865,-0.045
16.543,-0.400,0.859,-0.043
16.553,-0.402,0.861,-0.043
16.563,-0.395,0.859,-0.041
16.573,-0.398,0.861,-0.043
16.583,-0.396,0.861,-0.045
16.593,-0.398,0.869,-0.047
16.603,-0.398,0.873,-0.045
16.613,-0.400,0.873,-0.049
16.623,-0.395,0.867,-0.053
16.633,-0.396,0.877,-0.051
16.643,-0.398,0.881,-0.045
16.652,-0.395,0.885,-0.047
16.662,-0.395,0.883,-0.051
16.672,-0.398,0.877,-0.055
16.682,-0.400,0.877,-0.053
16.692,-0.396,0.883,-0.051
16.702,-0.398,0.889,-0.047
16.712,-0.393,0.885,-0.047
16.722,-0.393,0.877,-0.047
16.732,-0.393,0.873,-0.047
16.742,-0.396,0.869,-0.043
16.752,-0.393,0.865,-0.049
16.762,-0.396,0.859,-0.047
16.772,-0.402,0.852,-0.049
16.781,-0.406,0.852,-0.047
16.791,-0.404,0.865,-0.047
16.801,-0.404,0.873,-0.045
16.811,-0.402,0.865,-0.043
16.821,-0.402,0.867,-0.049
16.831,-0.402,0.871,-0.047
16.841,-0.398,0.869,-0.049
16.851,-0.400,0.873,-0.053
16.861,-0.398,0.869,-0.051
16.871,-0.398,0.871,-0.047
16.881,-0.398,0.881,-0.049
16.891,-0.396,0.883,-0.043
16.901,-0.400,0.877,-0.043
16.911,-0.406,0.873,-0.051
16.920,-0.406,0.875,-0.049
16.930,-0.402,0.877,-0.043
16.940,-0.406,0.879,-0.049
16.950,-0.404,0.881,-0.049
16.960,-0.402,0.879,-0.047
16.970,-0.400,0.877,-0.045
16.980,-0.398,0.871,-0.047
16.990,-0.400,0.863,-0.045
17.000,-0.398,0.863,-0.047
17.010,-0.396,0.854,-0.047
17.020,-0.396,0.855,-0.047
17.030,-0.395,0.863,-0.049
17.040,-0.389,0.869,-0.047
17.049,-0.393,0.871,-0.043
17.059,-0.395,0.871,-0.049
17.069,-0.395,0.871,-0.047
17.079,-0.395,0.877,-0.049
17.089,-0.396,0.873,-0.051
17.099,-0.396,0.871,-0.051
17.109,-0.396,0.877,-0.055
17.119,-0.400,0.877,-0.053
17.129,-0.396,0.885,-0.055
17.139,-0.400,0.881,-0.051
17.149,-0.396,0.877,-0.051
17.159,-0.398,0.875,-0.053
17.169,-0.398,0.873,-0.051
17.179,-0.400,0.873,-0.049
17.188,-0.406,0.863,-0.049
17.198,-0.408,0.859,-0.047
17.208,-0.406,0.861,-0.047
17.218,-0.410,0.865,-0.049
17.228,-0.408,0.865,-0.047
17.238,-0.412,0.867,-0.049
17.248,-0.414,0.869,-0.047
17.258,-0.414,0.867,-0.041
17.268,-0.410,0.871,-0.047
17.278,-0.414,0.867,-0.047
17.288,-0.406,0.873,-0.051
17.298,-0.408,0.871,-0.043
17.308,-0.400,0.873,-0.049
17.317,-0.398,0.875,-0.047
17.327,-0.391,0.883,-0.047
17.337,-0.391,0.879,-0.043
17.347,-0.389,0.875,-0.045
17.357,-0.387,0.877,-0.047
17.367,-0.395,0.873,-0.049
17.377,-0.391,0.871,-0.047
17.387,-0.393,0.865,-0.045
17.397,-0.391,0.865,-0.047
17.407,-0.393,0.865,-0.047
17.417,-0.395,0.863,-0.045
17.427,-0.400,0.861,-0.045
17.437,-0.406,0.859,-0.047
17.447,-0.410,0.859,-0.051
17.456,-0.412,0.863,-0.051
17.466,-0.414,0.869,-0.051
17.476,-0.410,0.877,-0.051
17.486,-0.412,0.875,-0.049
17.496,-0.410,0.879,-0.051
17.506,-0.408,0.879,-0.047
17.516,-0.408,0.883,-0.051
17.526,-0.406,0.881,-0.053
17.536,-0.402,0.873,-0.053
17.546,-0.400,0.873,-0.051
17.556,-0.400,0.875,-0.047
17.566,-0.395,0.871,-0.047
17.576,-0.389,0.879,-0.047
17.585,-0.389,0.875,-0.041
17.595,-0.389,0.871,-0.045
17.605,-0.389,0.867,-0.047
17.615,-0.385,0.865,-0.051
17.625,-0.395,0.859,-0.045
17.635,-0.398,0.861,-0.051
17.645,-0.395,0.869,-0.047
17.655,-0.395,0.873,-0.045
17.665,-0.400,0.871,-0.047
17.675,-0.400,0.869,-0.047
17.685,-0.402,0.867,-0.047
17.695,-0.404,0.867,-0.047
17.705,-0.400,0.865,-0.049
17.714,-0.400,0.871,-0.047
17.724,-0.404,0.873,-0.047
17.734,-0.404,0.879,-0.051
17.744,-0.404,0.881,-0.053
17.754,-0.404,0.879,-0.049
17.764,-0.412,0.875,-0.049
17.774,-0.412,0.877,-0.049
17.784,-0.408,0.875,-0.049
17.794,-0.406,0.875,-0.049
17.804,-0.404,0.873,-0.055
17.814,-0.402,0.871,-0.049
17.824,-0.402,0.869,-0.049
17.834,-0.395,0.875,-0.049
17.844,-0.393,0.871,-0.047
17.853,-0.396,0.863,-0.051
17.863,-0.393,0.865,-0.047
17.873,-0.393,0.863,-0.053
17.883,-0.396,0.863,-0.051
17.893,-0.396,0.865,-0.053
17.903,-0.398,0.867,-0.051
17.913,-0.395,0.871,-0.053
17.923,-0.393,0.871,-0.049
17.933,-0.391,0.875,-0.053
17.943,-0.393,0.871,-0.051
17.953,-0.391,0.871,-0.053
17.963,-0.396,0.873,-0.053
17.973,-0.395,0.881,-0.053
17.982,-0.398,0.883,-0.051
17.992,-0.400,0.873,-0.051
18.002,-0.406,0.881,-0.051
18.012,-0.404,0.883,-0.049
18.022,-0.406,0.877,-0.047
18.032,-0.408,0.877,-0.047
18.042,-0.410,0.873,-0.049
18.052,-0.408,0.877,-0.051
18.062,-0.402,0.877,-0.047
18.072,-0.393,0.875,-0.043
18.082,-0.391,0.873,-0.043
18.092,-0.393,0.863,-0.043
18.102,-0.395,0.855,-0.045
18.112,-0.396,0.850,-0.047
18.121,-0.398,0.854,-0.049
18.131,-0.400,0.861,-0.045
18.141,-0.404,0.865,-0.045
18.151,-0.402,0.871,-0.049
18.161,-0.400,0.875,-0.051
18.171,-0.402,0.875,-0.049
18.181,-0.402,0.877,-0.051
18.191,-0.404,0.869,-0.053
18.201,-0.406,0.871,-0.053
18.211,-0.404,0.873,-0.053
18.221,-0.406,0.873,-0.053
18.231,-0.408,0.865,-0.051
18.241,-0.406,0.871,-0.047
18.250,-0.402,0.877,-0.045
18.260,-0.404,0.877,-0.045
18.270,-0.404,0.871,-0.049
18.280,-0.412,0.865,-0.049
18.290,-0.410,0.869,-0.049
18.300,-0.412,0.869,-0.043
18.310,-0.410,0.869,-0.045
18.320,-0.410,0.863,-0.047
18.330,-0.404,0.865,-0.043
18.340,-0.408,0.867,-0.045
18.350,-0.410,0.863,-0.051
18.360,-0.406,0.863,-0.049
18.370,-0.404,0.861,-0.049
18.380,-0.406,0.867,-0.047
18.389,-0.404,0.871,-0.051
18.399,-0.402,0.873,-0.051
18.409,-0.400,0.873,-0.049
18.419,-0.406,0.875,-0.049
18.429,-0.406,0.879,-0.053
18.439,-0.402,0.883,-0.053
18.449,-0.400,0.879,-0.049
18.459,-0.400,0.873,-0.051
18.469,-0.398,0.873,-0.049
18.479,-0.395,0.875,-0.051
18.489,-0.396,0.875,-0.051
18.499,-0.396,0.871,-0.051
18.509,-0.396,0.873,-0.051
18.518,-0.396,0.873,-0.049
18.528,-0.395,0.871,-0.049
18.538,-0.395,0.865,-0.047
18.548,-0.400,0.857,-0.049
18.558,-0.398,0.863,-0.049
18.568,-0.402,0.861,-0.047
18.578,-0.404,0.863,-0.047
18.588,-0.402,0.865,-0.049
18.598,-0.396,0.869,-0.049
18.608,-0.400,0.871,-0.045
18.618,-0.404,0.871,-0.047
18.628,-0.406,0.875,-0.049
18.638,-0.410,0.871,-0.055
18.647,-0.412,0.877,-0.049
18.657,-0.414,0.881,-0.053
18.667,-0.412,0.877,-0.053
18.677,-0.408,0.871,-0.057
18.687,-0.406,0.875,-0.049
18.697,-0.406,0.879,-0.047
18.707,-0.404,0.875,-0.045
18.717,-0.406,0.873,-0.051
18.727,-0.410,0.873,-0.045
18.737,-0.406,0.873,-0.047
18.747,-0.404,0.869,-0.045
18.757,-0.398,0.869,-0.043
18.767,-0.395,0.867,-0.043
18.777,-0.396,0.861,-0.043
18.786,-0.404,0.852,-0.045
18.796,-0.406,0.854,-0.045
18.806,-0.408,0.865,-0.051
18.816,-0.410,0.865,-0.051
18.826,-0.412,0.869,-0.053
18.836,-0.410,0.875,-0.057
18.846,-0.406,0.881,-0.053
18.856,-0.406,0.881,-0.053
18.866,-0.402,0.879,-0.055
18.876,-0.400,0.879,-0.055
18.886,-0.395,0.881,-0.053
18.896,-0.395,0.879,-0.051
18.906,-0.389,0.877,-0.051
18.915,-0.387,0.875,-0.049
18.925,-0.389,0.877,-0.047
18.935,-0.383,0.889,-0.049
18.945,-0.383,0.881,-0.045
18.955,-0.383,0.867,-0.043
18.965,-0.387,0.863,-0.043
18.975,-0.387,0.859,-0.047
18.985,-0.391,0.854,-0.047
18.995,-0.398,0.863,-0.049
19.005,-0.398,0.871,-0.051
19.015,-0.402,0.873,-0.045
19.025,-0.408,0.877,-0.047
19.035,-0.414,0.873,-0.049
19.045,-0.416,0.867,-0.051
19.054,-0.418,0.867,-0.053
19.064,-0.420,0.865,-0.049
19.074,-0.420,0.867,-0.047
19.084,-0.412,0.871,-0.047
19.094,-0.414,0.879,-0.045
19.104,-0.412,0.883,-0.045
19.114,-0.414,0.883,-0.043
19.124,-0.412,0.877,-0.047
19.134,-0.414,0.875,-0.041
19.144,-0.404,0.873,-0.045
19.154,-0.400,0.869,-0.043
19.164,-0.395,0.861,-0.045
19.174,-0.395,0.863,-0.041
19.183,-0.395,0.865,-0.045
19.193,-0.387,0.867,-0.045
19.203,-0.385,0.867,-0.041
19.213,-0.383,0.871,-0.049
19.223,-0.381,0.871,-0.047
19.233,-0.381,0.869,-0.049
19.243,-0.383,0.871,-0.053
19.253,-0.385,0.879,-0.055
19.263,-0.385,0.881,-0.055
19.273,-0.385,0.887,-0.061
19.283,-0.379,0.889,-0.059
19.293,-0.379,0.885,-0.064
19.303,-0.375,0.889,-0.061
19.313,-0.371,0.887,-0.062
19.322,-0.377,0.891,-0.064
19.332,-0.375,0.895,-0.064
19.342,-0.373,0.896,-0.061
19.352,-0.375,0.893,-0.059
19.362,-0.373,0.885,-0.061
19.372,-0.373,0.889,-0.059
19.382,-0.363,0.887,-0.059
19.392,-0.361,0.881,-0.062
19.402,-0.361,0.879,-0.066
19.412,-0.367,0.881,-0.070
19.422,-0.363,0.885,-0.070
19.432,-0.342,0.889,-0.068
19.442,-0.340,0.889,-0.062
19.451,-0.338,0.891,-0.064
19.461,-0.336,0.891,-0.066
19.471,-0.334,0.891,-0.066
19.481,-0.336,0.889,-0.066
19.491,-0.334,0.885,-0.076
19.501,-0.340,0.889,-0.080
19.511,-0.344,0.889,-0.072
19.521,-0.336,0.889,-0.076
19.531,-0.324,0.898,-0.072
19.541,-0.322,0.904,-0.068
19.551,-0.322,0.900,-0.061
19.561,-0.312,0.893,-0.070
19.571,-0.307,0.895,-0.070
19.580,-0.307,0.893,-0.070
19.590,-0.309,0.896,-0.076
19.600,-0.303,0.887,-0.080
19.610,-0.295,0.889,-0.080
19.620,-0.301,0.895,-0.074
19.630,-0.293,0.885,-0.084
19.640,-0.262,0.887,-0.090
19.650,-0.279,0.906,-0.068
19.660,-0.301,0.918,-0.070
19.670,-0.283,0.902,-0.086
19.680,-0.270,0.900,-0.092
19.690,-0.279,0.906,-0.078
19.700,-0.287,0.904,-0.080
19.710,-0.277,0.900,-0.088
19.719,-0.273,0.898,-0.088
19.729,-0.279,0.900,-0.086
19.739,-0.275,0.904,-0.086
19.749,-0.275,0.898,-0.090
19.759,-0.270,0.908,-0.084
19.769,-0.266,0.910,-0.084
19.779,-0.266,0.908,-0.092
19.789,-0.266,0.900,-0.092
19.799,-0.264,0.914,-0.088
19.809,-0.270,0.908,-0.094
19.819,-0.262,0.908,-0.096
19.829,-0.264,0.910,-0.094
19.839,-0.266,0.912,-0.098
19.848,-0.266,0.908,-0.100
19.858,-0.270,0.904,-0.100
19.868,-0.273,0.908,-0.100
19.878,-0.279,0.908,-0.100
19.888,-0.277,0.904,-0.104
19.898,-0.275,0.904,-0.100
19.908,-0.275,0.910,-0.098
19.918,-0.275,0.906,-0.098
19.928,-0.275,0.908,-0.098
19.938,-0.273,0.906,-0.098
19.948,-0.281,0.902,-0.098
19.958,-0.287,0.896,-0.096
19.968,-0.289,0.896,-0.094
19.978,-0.293,0.898,-0.094
19.987,-0.297,0.896,-0.094
19.997,-0.301,0.900,-0.092
20.007,-0.303,0.898,-0.094
20.017,-0.299,0.887,-0.088
20.027,-0.295,0.904,-0.088
20.037,-0.299,0.906,-0.082
20.047,-0.301,0.902,-0.086
20.057,-0.301,0.896,-0.088
20.067,-0.309,0.891,-0.088
20.077,-0.311,0.898,-0.092
20.087,-0.312,0.896,-0.092
20.097,-0.314,0.896,-0.090
20.107,-0.309,0.898,-0.090
20.116,-0.309,0.893,-0.088
20.126,-0.307,0.902,-0.082
20.136,-0.307,0.902,-0.080
20.146,-0.307,0.896,-0.088
20.156,-0.311,0.896,-0.094
20.166,-0.305,0.896,-0.092
20.176,-0.309,0.896,-0.092
20.186,-0.305,0.902,-0.096
20.196,-0.307,0.902,-0.092
20.206,-0.299,0.898,-0.092
20.216,-0.297,0.896,-0.092
20.226,-0.307,0.896,-0.096
20.236,-0.301,0.898,-0.094
20.246,-0.297,0.896,-0.096
20.255,-0.299,0.896,-0.096
20.265,-0.297,0.893,-0.096
20.275,-0.303,0.896,-0.098
20.285,-0.301,0.902,-0.100
20.295,-0.303,0.895,-0.098
20.305,-0.303,0.895,-0.100
20.315,-0.303,0.900,-0.104
20.325,-0.314,0.898,-0.104
20.335,-0.314,0.895,-0.104
20.345,-0.311,0.898,-0.102
20.355,-0.307,0.898,-0.100
20.365,-0.307,0.900,-0.100
20.375,-0.305,0.898,-0.100
20.384,-0.309,0.900,-0.105
20.394,-0.311,0.898,-0.100
20.404,-0.316,0.896,-0.105
20.414,-0.318,0.893,-0.105
20.424,-0.318,0.895,-0.105
20.434,-0.320,0.896,-0.102
20.444,-0.316,0.896,-0.100
20.454,-0.316,0.893,-0.102
20.464,-0.314,0.896,-0.104
20.474,-0.316,0.896,-0.100
20.484,-0.312,0.896,-0.096
20.494,-0.312,0.898,-0.100
20.504,-0.314,0.895,-0.098
20.513,-0.312,0.896,-0.102
20.523,-0.312,0.895,-0.104
20.533,-0.312,0.893,-0.098
20.543,-0.316,0.891,-0.102
20.553,-0.314,0.891,-0.105
20.563,-0.312,0.895,-0.102
20.573,-0.311,0.896,-0.102
20.583,-0.307,0.898,-0.104
20.593,-0.309,0.898,-0.104
20.603,-0.307,0.895,-0.104
20.613,-0.305,0.893,-0.104
20.623,-0.307,0.891,-0.102
20.633,-0.311,0.891,-0.102
20.643,-0.314,0.895,-0.107
20.652,-0.312,0.895,-0.105
20.662,-0.314,0.896,-0.100
20.672,-0.318,0.895,-0.102
20.682,-0.320,0.895,-0.104
20.692,-0.322,0.898,-0.105
20.702,-0.318,0.898,-0.104
20.712,-0.312,0.895,-0.104
20.722,-0.311,0.889,-0.102
20.732,-0.311,0.893,-0.100
20.742,-0.311,0.895,-0.100
20.752,-0.314,0.895,-0.102
20.762,-0.320,0.885,-0.104
20.772,-0.324,0.881,-0.109
20.781,-0.322,0.887,-0.109
20.791,-0.318,0.889,-0.105
20.801,-0.318,0.889,-0.102
20.811,-0.312,0.900,-0.102
20.821,-0.314,0.900,-0.102
20.831,-0.316,0.898,-0.102
20.841,-0.318,0.895,-0.102
20.851,-0.320,0.896,-0.105
20.861,-0.326,0.895,-0.109
20.871,-0.328,0.895,-0.109
20.881,-0.332,0.895,-0.111
20.891,-0.338,0.896,-0.107
20.901,-0.336,0.895,-0.105
20.911,-0.330,0.893,-0.111
20.920,-0.328,0.889,-0.105
20.930,-0.328,0.891,-0.107
20.940,-0.324,0.891,-0.109
20.950,-0.322,0.898,-0.107
20.960,-0.318,0.895,-0.109
20.970,-0.320,0.889,-0.104
20.980,-0.316,0.896,-0.104
20.990,-0.314,0.895,-0.100
21.000,-0.314,0.891,-0.102
21.010,-0.318,0.889,-0.109
21.020,-0.316,0.889,-0.109
21.030,-0.318,0.887,-0.111
21.040,-0.318,0.896,-0.113
21.049,-0.318,0.904,-0.111
21.059,-0.322,0.906,-0.105
21.069,-0.320,0.910,-0.107
21.079,-0.326,0.904,-0.111
21.089,-0.324,0.898,-0.113
21.099,-0.324,0.896,-0.115
21.109,-0.328,0.891,-0.115
21.119,-0.330,0.889,-0.117
21.129,-0.330,0.898,-0.115
21.139,-0.328,0.902,-0.111
21.149,-0.326,0.906,-0.111
21.159,-0.324,0.906,-0.113
21.169,-0.320,0.902,-0.113
21.179,-0.322,0.900,-0.117
21.188,-0.320,0.900,-0.119
21.198,-0.326,0.902,-0.121
21.208,-0.330,0.902,-0.121
21.218,-0.332,0.908,-0.119
21.228,-0.334,0.908,-0.115
21.238,-0.332,0.904,-0.113
21.248,-0.328,0.900,-0.117
21.258,-0.324,0.898,-0.119
21.268,-0.316,0.898,-0.111
21.278,-0.312,0.898,-0.111
21.288,-0.311,0.900,-0.115
21.298,-0.301,0.906,-0.105
21.308,-0.281,0.908,-0.102
21.317,-0.264,0.893,-0.100
21.327,-0.238,0.887,-0.107
21.337,-0.219,0.881,-0.113
21.347,-0.215,0.883,-0.111
21.357,-0.221,0.904,-0.109
21.367,-0.221,0.916,-0.102
21.377,-0.201,0.904,-0.105
21.387,-0.184,0.896,-0.100
21.397,-0.186,0.904,-0.098
21.407,-0.193,0.912,-0.100
21.417,-0.191,0.912,-0.102
21.427,-0.193,0.912,-0.102
21.437,-0.193,0.914,-0.104
21.446,-0.195,0.910,-0.109
21.456,-0.191,0.910,-0.109
21.466,-0.197,0.918,-0.111
21.476,-0.201,0.910,-0.113
21.486,-0.201,0.908,-0.111
21.496,-0.207,0.910,-0.113
21.506,-0.207,0.912,-0.115
21.516,-0.193,0.908,-0.121
21.526,-0.176,0.902,-0.129
21.536,-0.162,0.904,-0.129
21.546,-0.168,0.906,-0.127
21.556,-0.178,0.912,-0.131
21.566,-0.166,0.918,-0.135
21.576,-0.154,0.916,-0.129
21.585,-0.146,0.920,-0.133
21.595,-0.143,0.918,-0.137
21.605,-0.145,0.918,-0.139
21.615,-0.139,0.918,-0.141
21.625,-0.131,0.916,-0.135
21.635,-0.131,0.924,-0.133
21.645,-0.139,0.936,-0.131
21.655,-0.131,0.934,-0.135
21.665,-0.131,0.930,-0.137
21.675,-0.143,0.928,-0.133
21.685,-0.148,0.924,-0.133
21.695,-0.146,0.916,-0.135
21.705,-0.145,0.912,-0.131
21.714,-0.150,0.916,-0.135
21.724,-0.154,0.912,-0.137
21.734,-0.158,0.912,-0.141
21.744,-0.162,0.912,-0.141
21.754,-0.164,0.910,-0.137
21.764,-0.166,0.914,-0.137
21.774,-0.170,0.914,-0.135
21.784,-0.164,0.906,-0.133
21.794,-0.162,0.898,-0.139
21.804,-0.166,0.896,-0.141
21.814,-0.170,0.900,-0.145
21.824,-0.174,0.898,-0.143
21.834,-0.176,0.896,-0.143
21.844,-0.176,0.898,-0.150
21.853,-0.176,0.891,-0.143
21.863,-0.176,0.895,-0.141
21.873,-0.191,0.898,-0.145
21.883,-0.205,0.898,-0.146
21.893,-0.197,0.896,-0.152
21.903,-0.199,0.900,-0.146
21.913,-0.221,0.902,-0.148
21.923,-0.244,0.904,-0.158
21.933,-0.244,0.906,-0.158
21.943,-0.238,0.906,-0.160
21.953,-0.244,0.918,-0.160
21.963,-0.258,0.932,-0.162
21.973,-0.270,0.941,-0.164
21.982,-0.271,0.943,-0.170
21.992,-0.273,0.930,-0.166
22.002,-0.279,0.928,-0.170
22.012,-0.273,0.928,-0.174
22.022,-0.270,0.928,-0.174
22.032,-0.270,0.920,-0.176
22.042,-0.275,0.920,-0.176
22.052,-0.270,0.920,-0.178
22.062,-0.270,0.920,-0.174
22.072,-0.271,0.922,-0.172
22.082,-0.266,0.920,-0.178
22.092,-0.256,0.914,-0.180
22.102,-0.240,0.910,-0.170
22.112,-0.229,0.912,-0.174
22.121,-0.221,0.908,-0.168
22.131,-0.209,0.906,-0.166
22.141,-0.203,0.904,-0.164
22.151,-0.193,0.898,-0.162
22.161,-0.197,0.895,-0.166
22.171,-0.205,0.900,-0.166
22.181,-0.209,0.904,-0.164
22.191,-0.207,0.910,-0.156
22.201,-0.205,0.912,-0.158
22.211,-0.209,0.912,-0.158
22.221,-0.213,0.912,-0.160
22.231,-0.215,0.904,-0.164
22.241,-0.217,0.904,-0.160
22.250,-0.217,0.904,-0.162
22.260,-0.221,0.902,-0.164
22.270,-0.219,0.895,-0.166
22.280,-0.219,0.896,-0.160
22.290,-0.225,0.910,-0.164
22.300,-0.229,0.910,-0.162
22.310,-0.229,0.904,-0.162
22.320,-0.230,0.902,-0.166
22.330,-0.236,0.902,-0.166
22.340,-0.238,0.908,-0.174
22.350,-0.232,0.916,-0.170
22.360,-0.227,0.916,-0.168
22.370,-0.223,0.912,-0.170
22.379,-0.219,0.910,-0.166
22.389,-0.223,0.902,-0.168
22.399,-0.227,0.898,-0.166
22.409,-0.225,0.906,-0.168
22.419,-0.227,0.912,-0.162
22.429,-0.234,0.908,-0.158
22.439,-0.234,0.912,-0.166
22.449,-0.236,0.908,-0.166
22.459,-0.238,0.908,-0.166
22.469,-0.242,0.908,-0.164
22.479,-0.248,0.906,-0.162
22.489,-0.242,0.895,-0.162
22.499,-0.242,0.891,-0.162
22.509,-0.234,0.893,-0.160
22.518,-0.232,0.895,-0.160
22.528,-0.229,0.896,-0.160
22.538,-0.225,0.898,-0.160
22.548,-0.223,0.900,-0.162
22.558,-0.227,0.900,-0.162
22.568,-0.240,0.900,-0.166
22.578,-0.246,0.902,-0.164
22.588,-0.240,0.908,-0.166
22.598,-0.240,0.908,-0.162
22.608,-0.238,0.904,-0.164
22.618,-0.230,0.910,-0.162
22.628,-0.229,0.910,-0.166
22.638,-0.227,0.904,-0.166
22.647,-0.229,0.906,-0.166
22.657,-0.230,0.908,-0.164
22.667,-0.227,0.900,-0.164
22.677,-0.223,0.896,-0.164
22.687,-0.221,0.898,-0.160
22.697,-0.225,0.896,-0.158
22.707,-0.225,0.896,-0.160
22.717,-0.227,0.895,-0.156
22.727,-0.236,0.891,-0.166
22.737,-0.238,0.896,-0.164
22.747,-0.242,0.902,-0.160
22.757,-0.240,0.900,-0.160
22.767,-0.240,0.902,-0.160
22.777,-0.246,0.902,-0.162
22.786,-0.246,0.906,-0.160
22.796,-0.248,0.902,-0.162
22.806,-0.250,0.902,-0.168
22.816,-0.254,0.904,-0.170
22.826,-0.262,0.908,-0.170
22.836,-0.258,0.908,-0.164
22.846,-0.252,0.902,-0.164
22.856,-0.254,0.904,-0.166
22.866,-0.262,0.902,-0.166
22.876,-0.266,0.900,-0.168
22.886,-0.268,0.898,-0.170
22.896,-0.266,0.900,-0.168
22.906,-0.262,0.898,-0.168
22.915,-0.264,0.898,-0.168
22.925,-0.262,0.896,-0.172
22.935,-0.260,0.898,-0.164
22.945,-0.260,0.902,-0.162
22.955,-0.256,0.910,-0.164
22.965,-0.258,0.906,-0.162
22.975,-0.262,0.906,-0.168
22.985,-0.264,0.904,-0.168
22.995,-0.268,0.900,-0.164
23.005,-0.266,0.904,-0.166
23.015,-0.262,0.898,-0.166
23.025,-0.258,0.900,-0.160
23.035,-0.256,0.895,-0.158
23.045,-0.258,0.895,-0.156
23.054,-0.248,0.883,-0.152
23.064,-0.232,0.885,-0.152
23.074,-0.238,0.887,-0.154
23.084,-0.252,0.879,-0.156
23.094,-0.262,0.883,-0.160
23.104,-0.268,0.889,-0.162
23.114,-0.271,0.895,-0.156
23.124,-0.277,0.904,-0.162
23.134,-0.283,0.910,-0.162
23.144,-0.291,0.896,-0.158
23.154,-0.299,0.896,-0.160
23.164,-0.303,0.896,-0.168
23.174,-0.309,0.895,-0.164
23.183,-0.309,0.896,-0.166
23.193,-0.316,0.895,-0.164
23.203,-0.320,0.893,-0.168
23.213,-0.318,0.895,-0.164
23.223,-0.314,0.895,-0.164
23.233,-0.311,0.889,-0.162
23.243,-0.309,0.881,-0.162
23.253,-0.303,0.877,-0.158
23.263,-0.295,0.883,-0.160
23.273,-0.291,0.885,-0.156
23.283,-0.287,0.883,-0.154
23.293,-0.281,0.879,-0.152
23.303,-0.279,0.883,-0.150
23.312,-0.283,0.885,-0.154
23.322,-0.289,0.891,-0.156
23.332,-0.291,0.895,-0.152
23.342,-0.295,0.889,-0.152
23.352,-0.299,0.893,-0.150
23.362,-0.295,0.895,-0.152
23.372,-0.297,0.900,-0.154
23.382,-0.301,0.898,-0.154
23.392,-0.303,0.900,-0.156
23.402,-0.303,0.895,-0.158
23.412,-0.303,0.893,-0.160
23.422,-0.301,0.891,-0.154
23.432,-0.291,0.896,-0.154
23.442,-0.287,0.893,-0.150
23.451,-0.287,0.893,-0.150
23.461,-0.291,0.895,-0.152
23.471,-0.289,0.887,-0.150
23.481,-0.293,0.883,-0.156
23.491,-0.295,0.885,-0.160
23.501,-0.293,0.885,-0.156
23.511,-0.287,0.887,-0.158
23.521,-0.283,0.891,-0.158
23.531,-0.281,0.891,-0.154
23.541,-0.279,0.891,-0.158
23.551,-0.279,0.893,-0.158
23.561,-0.285,0.896,-0.162
23.571,-0.283,0.893,-0.160
23.580,-0.283,0.895,-0.160
23.590,-0.283,0.893,-0.162
23.600,-0.283,0.891,-0.164
23.610,-0.279,0.898,-0.162
23.620,-0.277,0.896,-0.160
23.630,-0.279,0.893,-0.164
23.640,-0.281,0.891,-0.164
23.650,-0.291,0.889,-0.166
23.660,-0.295,0.887,-0.162
23.670,-0.297,0.889,-0.162
23.680,-0.295,0.887,-0.164
23.690,-0.293,0.885,-0.160
23.700,-0.297,0.887,-0.160
23.710,-0.299,0.887,-0.168
23.719,-0.299,0.893,-0.166
23.729,-0.303,0.893,-0.164
23.739,-0.301,0.889,-0.168
23.749,-0.301,0.891,-0.164
23.759,-0.295,0.896,-0.164
23.769,-0.297,0.902,-0.164
23.779,-0.295,0.900,-0.164
23.789,-0.293,0.902,-0.166
23.799,-0.293,0.896,-0.162
23.809,-0.287,0.896,-0.162
23.819,-0.289,0.895,-0.164
23.829,-0.287,0.893,-0.164
23.839,-0.283,0.893,-0.164
23.848,-0.281,0.891,-0.164
23.858,-0.279,0.883,-0.160
23.868,-0.277,0.879,-0.162
23.878,-0.281,0.879,-0.160
23.888,-0.277,0.883,-0.162
23.898,-0.283,0.887,-0.158
23.908,-0.285,0.887,-0.164
23.918,-0.295,0.889,-0.156
23.928,-0.295,0.885,-0.160
23.938,-0.295,0.891,-0.162
23.948,-0.295,0.895,-0.162
23.958,-0.293,0.895,-0.158
23.968,-0.293,0.896,-0.158
23.978,-0.293,0.898,-0.156
23.987,-0.293,0.896,-0.160
23.997,-0.299,0.891,-0.156
24.007,-0.295,0.896,-0.158
24.017,-0.297,0.900,-0.158
24.027,-0.299,0.895,-0.156
24.037,-0.297,0.885,-0.154
24.047,-0.293,0.893,-0.160
24.057,-0.287,0.898,-0.152
24.067,-0.289,0.900,-0.154
24.077,-0.293,0.896,-0.158
24.087,-0.291,0.893,-0.160
24.097,-0.291,0.889,-0.158
24.107,-0.287,0.885,-0.152
24.116,-0.285,0.883,-0.152
24.126,-0.279,0.885,-0.154
24.136,-0.281,0.889,-0.148
24.146,-0.281,0.885,-0.148
24.156,-0.285,0.881,-0.154
24.166,-0.285,0.885,-0.156
24.176,-0.289,0.889,-0.156
24.186,-0.287,0.893,-0.154
24.196,-0.285,0.893,-0.154
24.206,-0.287,0.895,-0.152
24.216,-0.291,0.895,-0.152
24.226,-0.293,0.893,-0.154
24.236,-0.293,0.898,-0.156
24.245,-0.291,0.900,-0.158
24.255,-0.295,0.895,-0.156
24.265,-0.297,0.895,-0.154
24.275,-0.301,0.891,-0.158
24.285,-0.295,0.889,-0.156
24.295,-0.291,0.900,-0.154
24.305,-0.291,0.898,-0.154
24.315,-0.289,0.893,-0.156
24.325,-0.289,0.889,-0.158
24.335,-0.285,0.883,-0.162
24.345,-0.289,0.879,-0.160
24.355,-0.285,0.883,-0.158
24.365,-0.281,0.885,-0.158
24.375,-0.279,0.887,-0.160
24.384,-0.281,0.891,-0.158
24.394,-0.285,0.889,-0.162
24.404,-0.289,0.893,-0.164
24.414,-0.293,0.895,-0.164
24.424,-0.287,0.893,-0.166
24.434,-0.287,0.895,-0.164
24.444,-0.289,0.896,-0.164
24.454,-0.285,0.896,-0.166
24.464,-0.283,0.898,-0.162
24.474,-0.287,0.898,-0.166
24.484,-0.287,0.896,-0.166
24.494,-0.289,0.895,-0.162
24.504,-0.285,0.893,-0.164
24.513,-0.287,0.895,-0.164
24.523,-0.287,0.896,-0.166
24.533,-0.287,0.893,-0.166
24.543,-0.289,0.891,-0.166
24.553,-0.283,0.891,-0.166
24.563,-0.281,0.887,-0.166
24.573,-0.287,0.877,-0.162
24.583,-0.291,0.877,-0.166
24.593,-0.291,0.881,-0.164
24.603,-0.293,0.881,-0.170
24.613,-0.293,0.883,-0.168
24.623,-0.297,0.887,-0.168
24.633,-0.293,0.891,-0.170
24.643,-0.293,0.895,-0.166
24.652,-0.291,0.900,-0.164
24.662,-0.293,0.898,-0.166
24.672,-0.295,0.896,-0.164
24.682,-0.293,0.895,-0.162
24.692,-0.293,0.891,-0.168
24.702,-0.295,0.896,-0.166
24.712,-0.293,0.895,-0.162
24.722,-0.287,0.889,-0.162
24.732,-0.287,0.889,-0.164
24.742,-0.283,0.898,-0.164
24.752,-0.283,0.902,-0.158
24.762,-0.285,0.895,-0.162
24.772,-0.289,0.889,-0.168
24.781,-0.293,0.891,-0.166
24.791,-0.293,0.889,-0.164
24.801,-0.289,0.883,-0.162
24.811,-0.285,0.881,-0.160
24.821,-0.287,0.887,-0.158
24.831,-0.285,0.889,-0.154
24.841,-0.293,0.887,-0.158
24.851,-0.291,0.881,-0.162
24.861,-0.293,0.879,-0.164
24.871,-0.293,0.887,-0.160
24.881,-0.291,0.891,-0.160
24.891,-0.291,0.887,-0.160
24.901,-0.285,0.893,-0.162
24.911,-0.287,0.900,-0.164
24.920,-0.291,0.906,-0.160
24.930,-0.293,0.906,-0.162
24.940,-0.293,0.900,-0.162
24.950,-0.295,0.898,-0.160
24.960,-0.299,0.898,-0.160
24.970,-0.295,0.893,-0.162
24.980,-0.293,0.885,-0.162
24.990,-0.285,0.893,-0.156
25.000,-0.283,0.893,-0.156
25.010,-0.283,0.883,-0.154
25.020,-0.289,0.875,-0.156
25.030,-0.293,0.871,-0.162
25.040,-0.295,0.881,-0.156
25.049,-0.293,0.887,-0.156
25.059,-0.289,0.893,-0.154
25.069,-0.289,0.893,-0.158
25.079,-0.289,0.895,-0.158
25.089,-0.291,0.891,-0.160
25.099,-0.295,0.891,-0.162
25.109,-0.293,0.891,-0.162
25.119,-0.299,0.887,-0.164
25.129,-0.297,0.891,-0.160
25.139,-0.291,0.896,-0.162
25.149,-0.289,0.895,-0.164
25.159,-0.291,0.893,-0.160
25.169,-0.295,0.898,-0.162
25.178,-0.293,0.898,-0.162
25.188,-0.291,0.898,-0.162
25.198,-0.291,0.895,-0.164
25.208,-0.291,0.893,-0.162
25.218,-0.289,0.893,-0.164
25.228,-0.289,0.889,-0.160
25.238,-0.291,0.887,-0.162
25.248,-0.291,0.881,-0.160
25.258,-0.291,0.883,-0.164
25.268,-0.287,0.889,-0.164
25.278,-0.287,0.889,-0.162
25.288,-0.287,0.889,-0.164
25.298,-0.289,0.889,-0.162
25.308,-0.285,0.891,-0.160
25.317,-0.285,0.891,-0.164
25.327,-0.287,0.887,-0.164
25.337,-0.289,0.889,-0.166
25.347,-0.289,0.887,-0.168
25.357,-0.289,0.898,-0.168
25.367,-0.291,0.906,-0.166
25.377,-0.297,0.902,-0.162
25.387,-0.291,0.891,-0.162
25.397,-0.291,0.896,-0.164
25.407,-0.289,0.898,-0.160
25.417,-0.291,0.893,-0.164
25.427,-0.295,0.891,-0.160
25.437,-0.293,0.893,-0.166
25.446,-0.295,0.896,-0.162
25.456,-0.289,0.891,-0.160
25.466,-0.285,0.887,-0.158
25.476,-0.287,0.883,-0.156
25.486,-0.291,0.885,-0.160
25.496,-0.291,0.883,-0.160
25.506,-0.297,0.881,-0.160
25.516,-0.295,0.885,-0.164
25.526,-0.299,0.887,-0.164
25.536,-0.297,0.887,-0.168
25.546,-0.293,0.893,-0.162
25.556,-0.293,0.896,-0.164
25.566,-0.291,0.900,-0.164
25.576,-0.291,0.902,-0.162
25.585,-0.287,0.900,-0.164
25.595,-0.283,0.898,-0.164
25.605,-0.289,0.896,-0.164
25.615,-0.289,0.896,-0.168
25.625,-0.287,0.895,-0.166
25.635,-0.279,0.902,-0.166
25.645,-0.275,0.896,-0.162
25.655,-0.277,0.895,-0.160
25.665,-0.285,0.885,-0.162
25.675,-0.289,0.879,-0.158
25.685,-0.289,0.875,-0.162
25.695,-0.289,0.879,-0.162
25.705,-0.289,0.883,-0.164
25.714,-0.289,0.889,-0.158
25.724,-0.293,0.891,-0.160
25.734,-0.295,0.895,-0.160
25.744,-0.295,0.893,-0.164
25.754,-0.295,0.891,-0.162
25.764,-0.301,0.893,-0.164
25.774,-0.299,0.889,-0.166
25.784,-0.295,0.891,-0.164
25.794,-0.293,0.898,-0.166
25.804,-0.293,0.898,-0.162
25.814,-0.295,0.896,-0.164
25.824,-0.295,0.893,-0.162
25.834,-0.297,0.893,-0.162
25.844,-0.291,0.891,-0.162
25.853,-0.293,0.893,-0.162
25.863,-0.293,0.893,-0.160
25.873,-0.293,0.889,-0.162
25.883,-0.289,0.889,-0.154
25.893,-0.289,0.885,-0.148
25.903,-0.293,0.883,-0.152
25.913,-0.295,0.877,-0.150
25.923,-0.299,0.875,-0.156
25.933,-0.305,0.871,-0.160
25.943,-0.301,0.869,-0.164
25.953,-0.297,0.873,-0.168
25.963,-0.295,0.887,-0.164
25.973,-0.289,0.893,-0.168
25.982,-0.285,0.898,-0.164
25.992,-0.281,0.900,-0.168
26.002,-0.279,0.904,-0.168
26.012,-0.283,0.902,-0.172
26.022,-0.289,0.900,-0.176
26.032,-0.287,0.900,-0.174
26.042,-0.283,0.896,-0.170
26.052,-0.283,0.893,-0.174
26.062,-0.281,0.893,-0.170
26.072,-0.281,0.900,-0.172
26.082,-0.281,0.895,-0.170
26.092,-0.285,0.889,-0.174
26.102,-0.287,0.889,-0.172
26.112,-0.285,0.887,-0.174
26.121,-0.285,0.891,-0.168
26.131,-0.281,0.889,-0.164
26.141,-0.279,0.885,-0.168
26.151,-0.279,0.887,-0.168
26.161,-0.281,0.889,-0.168
26.171,-0.291,0.883,-0.166
26.181,-0.293,0.885,-0.174
26.191,-0.293,0.889,-0.174
26.201,-0.291,0.893,-0.174
26.211,-0.293,0.898,-0.168
26.221,-0.293,0.900,-0.162
26.231,-0.295,0.906,-0.160
26.241,-0.293,0.898,-0.162
26.250,-0.299,0.889,-0.164
26.260,-0.297,0.887,-0.162
26.270,-0.299,0.883,-0.166
26.280,-0.295,0.887,-0.166
26.290,-0.295,0.885,-0.164
26.300,-0.293,0.881,-0.162
26.310,-0.289,0.883,-0.166
26.320,-0.287,0.891,-0.160
26.330,-0.291,0.889,-0.160
26.340,-0.295,0.879,-0.162
26.350,-0.295,0.877,-0.168
26.360,-0.297,0.881,-0.170
26.370,-0.297,0.887,-0.166
26.379,-0.295,0.893,-0.172
26.389,-0.297,0.893,-0.168
26.399,-0.297,0.893,-0.168
26.409,-0.293,0.895,-0.166
26.419,-0.295,0.893,-0.170
26.429,-0.297,0.891,-0.170
26.439,-0.299,0.893,-0.172
26.449,-0.295,0.895,-0.172
26.459,-0.291,0.895,-0.174
26.469,-0.289,0.891,-0.172
26.479,-0.291,0.893,-0.168
26.489,-0.285,0.895,-0.168
26.499,-0.287,0.891,-0.168
26.509,-0.283,0.891,-0.166
26.518,-0.283,0.891,-0.162
26.528,-0.285,0.883,-0.166
26.538,-0.281,0.885,-0.166
26.548,-0.283,0.885,-0.162
26.558,-0.281,0.887,-0.166
26.568,-0.289,0.885,-0.164
26.578,-0.289,0.887,-0.166
26.588,-0.293,0.891,-0.170
26.598,-0.291,0.893,-0.168
26.608,-0.299,0.893,-0.168
26.618,-0.297,0.893,-0.168
26.628,-0.297,0.898,-0.166
26.638,-0.295,0.896,-0.166
26.647,-0.293,0.896,-0.166
26.657,-0.291,0.893,-0.164
26.667,-0.289,0.893,-0.164
26.677,-0.293,0.885,-0.164
26.687,-0.291,0.885,-0.166
26.697,-0.293,0.889,-0.160
26.707,-0.295,0.887,-0.162
26.717,-0.293,0.887,-0.160
26.727,-0.291,0.889,-0.162
26.737,-0.295,0.889,-0.158
26.747,-0.299,0.889,-0.162
26.757,-0.301,0.883,-0.164
26.767,-0.305,0.883,-0.162
26.777,-0.303,0.889,-0.164
26.786,-0.301,0.891,-0.158
26.796,-0.293,0.896,-0.162
26.806,-0.295,0.896,-0.156
26.816,-0.293,0.895,-0.160
26.826,-0.297,0.893,-0.160
26.836,-0.303,0.891,-0.162
26.846,-0.299,0.887,-0.166
26.856,-0.301,0.887,-0.164
26.866,-0.303,0.889,-0.162
26.876,-0.293,0.891,-0.164
26.886,-0.289,0.895,-0.158
26.896,-0.289,0.895,-0.156
26.906,-0.289,0.891,-0.162
26.915,-0.289,0.889,-0.162
26.925,-0.287,0.881,-0.162
26.935,-0.289,0.883,-0.162
26.945,-0.289,0.883,-0.164
26.955,-0.291,0.889,-0.164
26.965,-0.295,0.887,-0.162
26.975,-0.295,0.893,-0.164
26.985,-0.289,0.898,-0.164
26.995,-0.293,0.898,-0.156
27.005,-0.291,0.891,-0.164
27.015,-0.291,0.887,-0.168
27.025,-0.293,0.895,-0.168
27.035,-0.297,0.895,-0.164
27.045,-0.291,0.898,-0.170
27.054,-0.289,0.895,-0.166
27.064,-0.289,0.895,-0.162
27.074,-0.291,0.896,-0.164
27.084,-0.297,0.891,-0.164
27.094,-0.297,0.887,-0.166
27.104,-0.295,0.883,-0.162
27.114,-0.295,0.885,-0.162
27.124,-0.293,0.889,-0.162
27.134,-0.295,0.887,-0.160
27.144,-0.291,0.889,-0.162
27.154,-0.291,0.891,-0.164
27.164,-0.293,0.895,-0.160
27.174,-0.293,0.893,-0.160
27.183,-0.293,0.893,-0.158
27.193,-0.295,0.896,-0.158
27.203,-0.299,0.893,-0.162
27.213,-0.299,0.891,-0.166
27.223,-0.295,0.889,-0.166
27.233,-0.297,0.889,-0.166
27.243,-0.297,0.891,-0.164
27.253,-0.295,0.891,-0.164
27.263,-0.289,0.891,-0.164
27.273,-0.289,0.891,-0.162
27.283,-0.289,0.887,-0.158
27.293,-0.291,0.885,-0.162
27.303,-0.291,0.885,-0.162
27.312,-0.293,0.885,-0.162
27.322,-0.293,0.885,-0.160
27.332,-0.297,0.887,-0.160
27.342,-0.301,0.893,-0.160
27.352,-0.303,0.895,-0.162
27.362,-0.307,0.891,-0.160
27.372,-0.301,0.893,-0.162
27.382,-0.303,0.896,-0.164
27.392,-0.301,0.896,-0.160
27.402,-0.295,0.893,-0.160
27.412,-0.293,0.893,-0.158
27.422,-0.289,0.883,-0.162
27.432,-0.293,0.885,-0.162
27.442,-0.289,0.889,-0.160
27.451,-0.287,0.889,-0.158
27.461,-0.285,0.883,-0.156
27.471,-0.283,0.887,-0.156
27.481,-0.287,0.889,-0.156
27.491,-0.289,0.887,-0.158
27.501,-0.293,0.889,-0.162
27.511,-0.297,0.889,-0.162
27.521,-0.299,0.891,-0.166
27.531,-0.299,0.895,-0.164
27.541,-0.293,0.898,-0.162
27.551,-0.291,0.895,-0.158
27.561,-0.293,0.896,-0.160
27.571,-0.299,0.893,-0.162
27.580,-0.299,0.889,-0.162
27.590,-0.301,0.885,-0.168
27.600,-0.295,0.885,-0.166
27.610,-0.297,0.891,-0.160
27.620,-0.289,0.891,-0.160
27.630,-0.289,0.889,-0.156
27.640,-0.289,0.889,-0.162
27.650,-0.295,0.891,-0.158
27.660,-0.291,0.887,-0.156
27.670,-0.299,0.887,-0.158
27.680,-0.301,0.883,-0.158
27.690,-0.299,0.883,-0.162
27.700,-0.301,0.887,-0.158
27.710,-0.299,0.885,-0.160
27.719,-0.297,0.891,-0.160
27.729,-0.293,0.898,-0.162
27.739,-0.291,0.900,-0.154
27.749,-0.291,0.893,-0.160
27.759,-0.293,0.891,-0.166
27.769,-0.291,0.887,-0.164
27.779,-0.291,0.893,-0.164
27.789,-0.289,0.893,-0.162
27.799,-0.285,0.895,-0.162
27.809,-0.287,0.893,-0.156
27.819,-0.295,0.895,-0.160
27.829,-0.295,0.891,-0.162
27.839,-0.297,0.885,-0.166
27.848,-0.297,0.887,-0.162
27.858,-0.299,0.889,-0.166
27.868,-0.303,0.891,-0.162
27.878,-0.297,0.893,-0.162
27.888,-0.295,0.891,-0.156
27.898,-0.297,0.895,-0.162
27.908,-0.293,0.893,-0.164
27.918,-0.289,0.895,-0.164
27.928,-0.291,0.891,-0.164
27.938,-0.293,0.891,-0.160
27.948,-0.295,0.889,-0.166
27.958,-0.295,0.889,-0.164
27.968,-0.297,0.891,-0.162
27.978,-0.299,0.891,-0.160
27.987,-0.297,0.889,-0.160
27.997,-0.297,0.887,-0.160
28.007,-0.291,0.889,-0.160
28.017,-0.289,0.891,-0.158
28.027,-0.293,0.891,-0.162
28.037,-0.291,0.889,-0.164
28.047,-0.293,0.889,-0.160
28.057,-0.297,0.887,-0.160
28.067,-0.299,0.893,-0.162
28.077,-0.297,0.895,-0.160
28.087,-0.295,0.896,-0.160
28.097,-0.297,0.889,-0.160
28.107,-0.293,0.889,-0.160
28.116,-0.299,0.883,-0.162
28.126,-0.303,0.879,-0.164
28.136,-0.303,0.889,-0.164
28.146,-0.301,0.891,-0.160
28.156,-0.301,0.889,-0.164
28.166,-0.291,0.889,-0.162
28.176,-0.291,0.895,-0.162
28.186,-0.293,0.891,-0.158
28.196,-0.297,0.887,-0.162
28.206,-0.301,0.887,-0.162
28.216,-0.303,0.893,-0.164
28.226,-0.303,0.889,-0.166
28.236,-0.299,0.896,-0.166
28.245,-0.293,0.900,-0.162
28.255,-0.295,0.898,-0.160
28.265,-0.297,0.896,-0.162
28.275,-0.293,0.893,-0.158
28.285,-0.291,0.885,-0.160
28.295,-0.287,0.883,-0.158
28.305,-0.289,0.881,-0.162
28.315,-0.291,0.883,-0.162
28.325,-0.289,0.883,-0.162
28.335,-0.287,0.887,-0.156
28.345,-0.291,0.893,-0.158
28.355,-0.291,0.896,-0.164
28.365,-0.295,0.887,-0.156
28.375,-0.293,0.885,-0.162
28.384,-0.295,0.891,-0.164
28.394,-0.301,0.893,-0.162
28.404,-0.301,0.891,-0.162
28.414,-0.297,0.889,-0.160
28.424,-0.295,0.895,-0.162
28.434,-0.293,0.898,-0.154
28.444,-0.293,0.891,-0.154
28.454,-0.295,0.891,-0.166
28.464,-0.295,0.889,-0.166
28.474,-0.297,0.889,-0.160
28.484,-0.293,0.895,-0.162
28.494,-0.287,0.895,-0.160
28.504,-0.289,0.898,-0.162
28.513,-0.293,0.896,-0.162
28.523,-0.299,0.891,-0.162
28.533,-0.303,0.883,-0.164
28.543,-0.303,0.879,-0.162
28.553,-0.301,0.879,-0.166
28.563,-0.293,0.883,-0.164
28.573,-0.299,0.887,-0.160
28.583,-0.297,0.891,-0.160
28.593,-0.295,0.889,-0.160
28.603,-0.297,0.887,-0.164
28.613,-0.299,0.895,-0.164
28.623,-0.301,0.895,-0.162
28.633,-0.303,0.896,-0.162
28.643,-0.295,0.895,-0.162
28.652,-0.289,0.891,-0.160
28.662,-0.291,0.891,-0.162
28.672,-0.293,0.889,-0.166
28.682,-0.293,0.893,-0.164
28.692,-0.295,0.891,-0.160
28.702,-0.293,0.893,-0.164
28.712,-0.293,0.895,-0.164
28.722,-0.283,0.896,-0.164
28.732,-0.283,0.893,-0.162
28.742,-0.289,0.889,-0.166
28.752,-0.293,0.887,-0.164
28.762,-0.293,0.887,-0.164
28.772,-0.291,0.883,-0.162
28.781,-0.293,0.883,-0.160
28.791,-0.289,0.885,-0.162
28.801,-0.285,0.889,-0.162
28.811,-0.291,0.889,-0.166
28.821,-0.291,0.891,-0.164
28.831,-0.289,0.893,-0.164
28.841,-0.293,0.889,-0.158
28.851,-0.293,0.889,-0.164
28.861,-0.289,0.891,-0.166
28.871,-0.291,0.896,-0.168
28.881,-0.293,0.898,-0.162
28.891,-0.293,0.896,-0.164
28.901,-0.299,0.895,-0.166
28.911,-0.297,0.895,-0.164
28.920,-0.295,0.895,-0.168
28.930,-0.295,0.896,-0.164
28.940,-0.289,0.893,-0.156
28.950,-0.289,0.893,-0.160
28.960,-0.289,0.887,-0.160
28.970,-0.295,0.881,-0.158
28.980,-0.297,0.873,-0.162
28.990,-0.303,0.873,-0.162
29.000,-0.305,0.879,-0.160
29.010,-0.307,0.887,-0.164
29.020,-0.305,0.895,-0.160
29.030,-0.303,0.893,-0.162
29.040,-0.303,0.895,-0.162
29.049,-0.301,0.895,-0.162
29.059,-0.301,0.891,-0.164
29.069,-0.299,0.889,-0.164
29.079,-0.297,0.891,-0.166
29.089,-0.293,0.893,-0.164
29.099,-0.293,0.893,-0.162
29.109,-0.289,0.898,-0.166
29.119,-0.285,0.898,-0.160
29.129,-0.285,0.896,-0.162
29.139,-0.283,0.891,-0.162
29.149,-0.285,0.887,-0.168
29.159,-0.285,0.889,-0.168
29.169,-0.285,0.891,-0.158
29.178,-0.283,0.893,-0.162
29.188,-0.281,0.896,-0.160
29.198,-0.279,0.893,-0.158
29.208,-0.285,0.887,-0.156
29.218,-0.293,0.877,-0.158
29.228,-0.293,0.881,-0.162
29.238,-0.295,0.881,-0.164
29.248,-0.293,0.885,-0.158
29.258,-0.295,0.887,-0.164
29.268,-0.299,0.893,-0.160
29.278,-0.297,0.893,-0.166
29.288,-0.299,0.895,-0.168
29.298,-0.301,0.893,-0.164
29.308,-0.301,0.896,-0.168
29.317,-0.301,0.900,-0.166
29.327,-0.301,0.896,-0.166
29.337,-0.307,0.893,-0.166
29.347,-0.301,0.893,-0.166
29.357,-0.301,0.893,-0.168
29.367,-0.297,0.898,-0.168
29.377,-0.293,0.895,-0.164
29.387,-0.299,0.893,-0.164
29.397,-0.299,0.889,-0.164
29.407,-0.297,0.889,-0.162
29.417,-0.297,0.885,-0.164
29.427,-0.301,0.883,-0.158
29.437,-0.295,0.885,-0.158
29.446,-0.293,0.885,-0.158
29.456,-0.293,0.885,-0.160
29.466,-0.295,0.883,-0.162
29.476,-0.295,0.881,-0.164
29.486,-0.291,0.889,-0.162
29.496,-0.289,0.893,-0.162
29.506,-0.289,0.889,-0.158
29.516,-0.285,0.889,-0.162
29.526,-0.287,0.898,-0.164
29.536,-0.285,0.898,-0.162
29.546,-0.289,0.898,-0.166
29.556,-0.287,0.893,-0.166
29.566,-0.293,0.895,-0.164
29.576,-0.293,0.898,-0.164
29.585,-0.291,0.898,-0.162
29.595,-0.287,0.898,-0.160
29.605,-0.289,0.896,-0.162
29.615,-0.291,0.891,-0.162
29.625,-0.299,0.887,-0.162
29.635,-0.301,0.879,-0.164
29.645,-0.301,0.875,-0.162
29.655,-0.301,0.877,-0.162
29.665,-0.295,0.881,-0.162
29.675,-0.295,0.885,-0.162
29.685,-0.295,0.889,-0.162
29.695,-0.293,0.893,-0.164
29.705,-0.291,0.893,-0.166
29.714,-0.299,0.895,-0.164
29.724,-0.303,0.895,-0.168
29.734,-0.299,0.893,-0.170
29.744,-0.299,0.891,-0.170
29.754,-0.297,0.891,-0.168
29.764,-0.295,0.904,-0.166
29.774,-0.289,0.898,-0.162
29.784,-0.289,0.887,-0.162
29.794,-0.291,0.885,-0.166
29.804,-0.293,0.887,-0.166
29.814,-0.295,0.885,-0.166
29.824,-0.291,0.885,-0.160
29.834,-0.287,0.887,-0.164
29.844,-0.283,0.891,-0.162
29.853,-0.281,0.893,-0.158
29.863,-0.283,0.885,-0.158
29.873,-0.291,0.885,-0.166
29.883,-0.293,0.889,-0.164
29.893,-0.297,0.887,-0.166
29.903,-0.299,0.885,-0.168
29.913,-0.297,0.889,-0.170
29.923,-0.297,0.893,-0.168
29.933,-0.297,0.896,-0.166
29.943,-0.297,0.896,-0.164
29.953,-0.297,0.896,-0.164
29.963,-0.297,0.898,-0.170
29.973,-0.293,0.898,-0.166
29.982,-0.293,0.898,-0.166
29.992,-0.295,0.891,-0.166
30.002,-0.297,0.887,-0.168
30.012,-0.295,0.889,-0.164
30.022,-0.297,0.891,-0.166
30.032,-0.295,0.893,-0.168
30.042,-0.291,0.891,-0.164
30.052,-0.289,0.889,-0.158
30.062,-0.287,0.887,-0.162
30.072,-0.289,0.887,-0.162
30.082,-0.295,0.883,-0.160
30.092,-0.293,0.883,-0.162
30.102,-0.293,0.885,-0.162
30.111,-0.295,0.887,-0.162
30.121,-0.293,0.889,-0.162
30.131,-0.293,0.891,-0.162
30.141,-0.289,0.891,-0.160
30.151,-0.291,0.893,-0.162
30.161,-0.293,0.891,-0.164
30.171,-0.297,0.895,-0.166
30.181,-0.299,0.902,-0.164
30.191,-0.297,0.902,-0.162
30.201,-0.293,0.895,-0.168
30.211,-0.295,0.896,-0.166
30.221,-0.293,0.895,-0.162
30.231,-0.291,0.891,-0.162
30.241,-0.291,0.891,-0.164
30.250,-0.293,0.887,-0.160
30.260,-0.293,0.889,-0.162
30.270,-0.289,0.883,-0.156
30.280,-0.287,0.883,-0.158
30.290,-0.287,0.885,-0.156
30.300,-0.289,0.885,-0.162
30.310,-0.299,0.885,-0.154
30.320,-0.301,0.881,-0.162
30.330,-0.299,0.887,-0.164
30.340,-0.299,0.889,-0.160
30.350,-0.297,0.893,-0.160
30.360,-0.295,0.891,-0.160
30.370,-0.295,0.896,-0.160
30.379,-0.295,0.898,-0.164
30.389,-0.295,0.898,-0.164
30.399,-0.297,0.896,-0.164
30.409,-0.293,0.898,-0.166
30.419,-0.297,0.893,-0.164
30.429,-0.293,0.893,-0.162
30.439,-0.295,0.895,-0.160
30.449,-0.291,0.891,-0.162
30.459,-0.287,0.898,-0.160
30.469,-0.285,0.896,-0.158
30.479,-0.287,0.893,-0.154
30.489,-0.289,0.877,-0.156
30.499,-0.291,0.873,-0.158
30.509,-0.293,0.875,-0.162
30.518,-0.295,0.879,-0.160
30.528,-0.293,0.889,-0.160
30.538,-0.291,0.895,-0.158
30.548,-0.289,0.896,-0.158
30.558,-0.291,0.898,-0.166
30.568,-0.297,0.893,-0.164
30.578,-0.297,0.891,-0.168
30.588,-0.303,0.889,-0.172
30.598,-0.303,0.895,-0.168
30.608,-0.299,0.900,-0.168
30.618,-0.297,0.900,-0.166
30.628,-0.297,0.896,-0.164
30.638,-0.293,0.898,-0.166
30.647,-0.295,0.893,-0.160
30.657,-0.291,0.895,-0.164
30.667,-0.293,0.891,-0.162
30.677,-0.291,0.889,-0.162
30.687,-0.293,0.885,-0.162
30.697,-0.287,0.887,-0.162
30.707,-0.291,0.885,-0.160
30.717,-0.291,0.881,-0.162
30.727,-0.287,0.881,-0.160
30.737,-0.295,0.891,-0.160
30.747,-0.291,0.889,-0.160
30.757,-0.291,0.891,-0.162
30.767,-0.293,0.891,-0.162
30.777,-0.291,0.893,-0.164
30.786,-0.289,0.895,-0.162
30.796,-0.293,0.893,-0.164
30.806,-0.295,0.896,-0.164
30.816,-0.293,0.895,-0.164
30.826,-0.295,0.895,-0.164
30.836,-0.299,0.896,-0.162
30.846,-0.299,0.898,-0.164
30.856,-0.301,0.896,-0.160
30.866,-0.293,0.895,-0.160
30.876,-0.293,0.889,-0.160
30.886,-0.293,0.891,-0.162
30.896,-0.293,0.891,-0.156
30.906,-0.293,0.883,-0.156
30.915,-0.291,0.881,-0.156
30.925,-0.299,0.879,-0.156
30.935,-0.301,0.881,-0.156
30.945,-0.299,0.887,-0.156
30.955,-0.297,0.889,-0.152
30.965,-0.297,0.893,-0.154
30.975,-0.297,0.893,-0.156
30.985,-0.305,0.891,-0.156
30.995,-0.303,0.887,-0.162
31.005,-0.307,0.887,-0.164
31.015,-0.303,0.895,-0.166
31.025,-0.295,0.896,-0.162
31.035,-0.295,0.900,-0.164
31.044,-0.291,0.900,-0.164
31.054,-0.289,0.898,-0.158
31.064,-0.291,0.895,-0.160
31.074,-0.285,0.893,-0.164
31.084,-0.287,0.889,-0.162
31.094,-0.287,0.889,-0.162
31.104,-0.285,0.889,-0.160
31.114,-0.289,0.885,-0.160
31.124,-0.291,0.881,-0.158
31.134,-0.287,0.889,-0.156
31.144,-0.287,0.887,-0.158
31.154,-0.289,0.881,-0.154
31.164,-0.295,0.875,-0.162
31.174,-0.299,0.879,-0.170
31.183,-0.301,0.883,-0.168
31.193,-0.305,0.891,-0.162
31.203,-0.301,0.896,-0.166
31.213,-0.297,0.898,-0.160
31.223,-0.297,0.900,-0.166
31.233,-0.301,0.896,-0.170
31.243,-0.303,0.896,-0.170
31.253,-0.307,0.893,-0.172
31.263,-0.307,0.891,-0.170
31.273,-0.305,0.891,-0.168
31.283,-0.303,0.885,-0.166
31.293,-0.303,0.889,-0.162
31.303,-0.301,0.891,-0.164
31.312,-0.303,0.885,-0.160
31.322,-0.305,0.881,-0.162
31.332,-0.303,0.879,-0.162
31.342,-0.301,0.879,-0.160
31.352,-0.303,0.877,-0.160
31.362,-0.307,0.881,-0.164
31.372,-0.309,0.885,-0.162
31.382,-0.309,0.887,-0.164
31.392,-0.309,0.885,-0.166
31.402,-0.311,0.887,-0.166
31.412,-0.309,0.891,-0.166
31.422,-0.305,0.895,-0.166
31.432,-0.301,0.898,-0.170
31.442,-0.301,0.900,-0.168
31.451,-0.297,0.904,-0.170
31.461,-0.291,0.896,-0.170
31.471,-0.287,0.893,-0.168
31.481,-0.289,0.891,-0.170
31.491,-0.289,0.889,-0.166
31.501,-0.287,0.891,-0.164
31.511,-0.289,0.889,-0.164
31.521,-0.291,0.883,-0.160
31.531,-0.295,0.883,-0.166
31.541,-0.297,0.875,-0.164
31.551,-0.299,0.881,-0.162
31.561,-0.299,0.885,-0.160
31.571,-0.299,0.881,-0.158
31.580,-0.297,0.881,-0.158
31.590,-0.297,0.887,-0.162
31.600,-0.301,0.891,-0.158
31.610,-0.301,0.889,-0.164
31.620,-0.303,0.891,-0.164
31.630,-0.311,0.887,-0.166
31.640,-0.312,0.898,-0.168
31.650,-0.309,0.900,-0.168
31.660,-0.303,0.902,-0.164
31.670,-0.305,0.898,-0.164
31.680,-0.309,0.896,-0.164
31.690,-0.312,0.887,-0.166
31.700,-0.307,0.885,-0.166
31.710,-0.307,0.883,-0.162
31.719,-0.311,0.883,-0.162
31.729,-0.311,0.883,-0.160
31.739,-0.303,0.887,-0.160
31.749,-0.301,0.883,-0.158
31.759,-0.301,0.879,-0.156
31.769,-0.301,0.879,-0.158
31.779,-0.303,0.881,-0.160
31.789,-0.305,0.883,-0.162
31.799,-0.307,0.885,-0.162
31.809,-0.311,0.885,-0.164
31.819,-0.311,0.885,-0.168
31.829,-0.303,0.889,-0.162
31.839,-0.299,0.896,-0.162
31.848,-0.295,0.898,-0.158
31.858,-0.293,0.896,-0.162
31.868,-0.295,0.889,-0.168
31.878,-0.295,0.889,-0.166
31.888,-0.299,0.889,-0.164
31.898,-0.297,0.891,-0.164
31.908,-0.295,0.895,-0.164
31.918,-0.295,0.895,-0.160
31.928,-0.299,0.896,-0.160
31.938,-0.299,0.893,-0.166
31.948,-0.305,0.887,-0.168
31.958,-0.303,0.887,-0.166
31.968,-0.305,0.879,-0.162
31.977,-0.305,0.881,-0.162
31.987,-0.307,0.881,-0.162
31.997,-0.305,0.883,-0.160
32.007,-0.305,0.885,-0.162
32.017,-0.303,0.887,-0.162
32.027,-0.305,0.887,-0.160
32.037,-0.303,0.887,-0.166
32.047,-0.305,0.893,-0.168
32.057,-0.309,0.893,-0.168
32.067,-0.309,0.895,-0.168
32.077,-0.307,0.891,-0.166
32.087,-0.309,0.893,-0.170
32.097,-0.309,0.891,-0.164
32.107,-0.305,0.885,-0.170
32.116,-0.301,0.887,-0.166
32.126,-0.299,0.893,-0.166
32.136,-0.303,0.891,-0.168
32.146,-0.301,0.887,-0.166
32.156,-0.301,0.889,-0.164
32.166,-0.301,0.893,-0.166
32.176,-0.301,0.889,-0.162
32.186,-0.301,0.887,-0.164
32.196,-0.301,0.883,-0.158
32.206,-0.301,0.879,-0.160
32.216,-0.299,0.887,-0.162
32.226,-0.305,0.881,-0.166
32.236,-0.305,0.885,-0.160
32.245,-0.303,0.887,-0.164
32.255,-0.301,0.885,-0.162
32.265,-0.295,0.883,-0.160
32.275,-0.299,0.889,-0.162
32.285,-0.299,0.889,-0.160
32.295,-0.301,0.891,-0.164
32.305,-0.301,0.893,-0.164
32.315,-0.307,0.893,-0.166
32.325,-0.309,0.896,-0.166
32.335,-0.307,0.898,-0.168
32.345,-0.303,0.902,-0.164
32.355,-0.301,0.898,-0.166
32.365,-0.305,0.895,-0.162
32.375,-0.309,0.889,-0.162
32.384,-0.309,0.879,-0.162
32.394,-0.309,0.875,-0.162
32.404,-0.307,0.879,-0.164
32.414,-0.305,0.879,-0.158
32.424,-0.299,0.883,-0.156
32.434,-0.301,0.887,-0.160
32.444,-0.299,0.889,-0.156
32.454,-0.305,0.887,-0.160
32.464,-0.305,0.883,-0.160
32.474,-0.307,0.887,-0.160
32.484,-0.309,0.887,-0.164
32.494,-0.309,0.891,-0.164
32.504,-0.305,0.891,-0.164
32.513,-0.305,0.895,-0.164
32.523,-0.301,0.898,-0.162
32.533,-0.297,0.898,-0.162
32.543,-0.297,0.889,-0.160
32.553,-0.299,0.883,-0.168
32.563,-0.299,0.887,-0.166
32.573,-0.301,0.889,-0.162
32.583,-0.299,0.887,-0.164
32.593,-0.301,0.891,-0.164
32.603,-0.297,0.893,-0.164
32.613,-0.301,0.891,-0.164
32.623,-0.305,0.885,-0.160
32.633,-0.305,0.877,-0.166
32.643,-0.305,0.877,-0.164
32.652,-0.309,0.883,-0.168
32.662,-0.309,0.883,-0.170
32.672,-0.305,0.887,-0.170
32.682,-0.307,0.891,-0.168
32.692,-0.303,0.895,-0.164
32.702,-0.303,0.891,-0.166
32.712,-0.303,0.891,-0.164
32.722,-0.303,0.891,-0.164
32.732,-0.303,0.895,-0.170
32.742,-0.299,0.895,-0.170
32.752,-0.301,0.889,-0.172
32.762,-0.305,0.883,-0.170
32.772,-0.301,0.889,-0.168
32.781,-0.301,0.891,-0.168
32.791,-0.299,0.889,-0.170
32.801,-0.301,0.887,-0.168
32.811,-0.299,0.887,-0.166
32.821,-0.303,0.889,-0.164
32.831,-0.305,0.885,-0.164
32.841,-0.309,0.877,-0.164
32.851,-0.305,0.883,-0.168
32.861,-0.305,0.885,-0.166
32.871,-0.307,0.891,-0.164
32.881,-0.307,0.887,-0.162
32.891,-0.303,0.889,-0.162
32.901,-0.301,0.889,-0.166
32.911,-0.307,0.889,-0.166
32.920,-0.307,0.889,-0.164
32.930,-0.305,0.895,-0.164
32.940,-0.299,0.896,-0.164
32.950,-0.299,0.893,-0.162
32.960,-0.295,0.891,-0.164
32.970,-0.297,0.895,-0.162
32.980,-0.293,0.889,-0.160
32.990,-0.293,0.885,-0.160
33.000,-0.301,0.889,-0.164
33.010,-0.301,0.891,-0.166
33.020,-0.297,0.893,-0.162
33.030,-0.297,0.895,-0.160
33.040,-0.295,0.895,-0.162
33.049,-0.295,0.891,-0.160
33.059,-0.301,0.885,-0.160
33.069,-0.307,0.881,-0.162
33.079,-0.307,0.873,-0.166
33.089,-0.307,0.877,-0.166
33.099,-0.305,0.887,-0.166
33.109,-0.303,0.889,-0.162
33.119,-0.299,0.891,-0.162
33.129,-0.301,0.893,-0.162
33.139,-0.301,0.895,-0.166
33.149,-0.303,0.895,-0.162
33.159,-0.307,0.893,-0.164
33.169,-0.305,0.891,-0.166
33.178,-0.307,0.893,-0.166
33.188,-0.307,0.891,-0.166
33.198,-0.309,0.885,-0.164
33.208,-0.305,0.889,-0.160
33.218,-0.299,0.891,-0.158
33.228,-0.301,0.887,-0.160
33.238,-0.301,0.879,-0.160
33.248,-0.305,0.875,-0.168
33.258,-0.305,0.879,-0.164
33.268,-0.307,0.879,-0.160
33.278,-0.299,0.887,-0.164
33.288,-0.301,0.891,-0.160
33.298,-0.301,0.893,-0.160
33.308,-0.309,0.893,-0.162
33.317,-0.311,0.895,-0.166
33.327,-0.311,0.891,-0.166
33.337,-0.312,0.887,-0.170
33.347,-0.309,0.889,-0.170
33.357,-0.305,0.895,-0.166
33.367,-0.299,0.895,-0.166
33.377,-0.299,0.895,-0.166
33.387,-0.299,0.893,-0.166
33.397,-0.293,0.893,-0.166
33.407,-0.293,0.891,-0.162
33.417,-0.295,0.887,-0.164
33.427,-0.295,0.885,-0.166
33.437,-0.295,0.881,-0.164
33.446,-0.295,0.877,-0.162
33.456,-0.297,0.877,-0.164
33.466,-0.297,0.879,-0.160
33.476,-0.299,0.883,-0.162
33.486,-0.297,0.887,-0.164
33.496,-0.303,0.887,-0.166
33.506,-0.303,0.895,-0.166
33.516,-0.303,0.895,-0.168
33.526,-0.307,0.893,-0.166
33.536,-0.307,0.898,-0.164
33.546,-0.305,0.898,-0.168
33.556,-0.307,0.896,-0.168
33.566,-0.307,0.895,-0.172
33.576,-0.305,0.896,-0.168
33.585,-0.301,0.895,-0.164
33.595,-0.297,0.889,-0.160
33.605,-0.295,0.885,-0.162
33.615,-0.295,0.885,-0.158
33.625,-0.299,0.881,-0.160
33.635,-0.303,0.879,-0.158
33.645,-0.299,0.879,-0.158
33.655,-0.299,0.879,-0.156
33.665,-0.295,0.875,-0.156
33.675,-0.297,0.879,-0.162
33.685,-0.299,0.883,-0.158
33.695,-0.299,0.889,-0.156
33.705,-0.301,0.887,-0.162
33.714,-0.307,0.891,-0.166
33.724,-0.311,0.895,-0.168
33.734,-0.311,0.896,-0.164
33.744,-0.307,0.898,-0.166
33.754,-0.303,0.904,-0.162
33.764,-0.303,0.900,-0.162
33.774,-0.307,0.896,-0.162
33.784,-0.305,0.889,-0.166
33.794,-0.305,0.887,-0.166
33.804,-0.303,0.889,-0.164
33.814,-0.303,0.887,-0.164
33.824,-0.297,0.887,-0.158
33.834,-0.301,0.889,-0.158
33.844,-0.295,0.881,-0.156
33.853,-0.297,0.877,-0.154
33.863,-0.299,0.881,-0.158
33.873,-0.299,0.879,-0.158
33.883,-0.301,0.881,-0.158
33.893,-0.303,0.879,-0.160
33.903,-0.305,0.885,-0.164
33.913,-0.301,0.885,-0.160
33.923,-0.303,0.893,-0.160
33.933,-0.299,0.900,-0.158
33.943,-0.299,0.898,-0.160
33.953,-0.301,0.891,-0.160
33.963,-0.301,0.889,-0.168
33.973,-0.297,0.893,-0.172
33.982,-0.299,0.895,-0.170
33.992,-0.295,0.900,-0.168
34.002,-0.295,0.895,-0.162
34.012,-0.295,0.896,-0.166
34.022,-0.299,0.898,-0.162
34.032,-0.303,0.891,-0.164
34.042,-0.303,0.883,-0.166
34.052,-0.299,0.881,-0.162
34.062,-0.301,0.883,-0.162
34.072,-0.295,0.883,-0.162
34.082,-0.291,0.881,-0.160
34.092,-0.293,0.881,-0.160
34.102,-0.293,0.883,-0.160
34.111,-0.297,0.883,-0.160
34.121,-0.299,0.887,-0.166
34.131,-0.299,0.889,-0.162
34.141,-0.297,0.893,-0.166
34.151,-0.297,0.887,-0.166
34.161,-0.297,0.891,-0.168
34.171,-0.301,0.891,-0.164
34.181,-0.299,0.893,-0.166
34.191,-0.303,0.895,-0.170
34.201,-0.307,0.895,-0.170
34.211,-0.303,0.893,-0.168
34.221,-0.301,0.893,-0.170
34.231,-0.301,0.895,-0.168
34.241,-0.301,0.895,-0.164
34.250,-0.299,0.891,-0.164
34.260,-0.299,0.889,-0.168
34.270,-0.303,0.887,-0.168
34.280,-0.301,0.885,-0.164
34.290,-0.301,0.883,-0.166
34.300,-0.303,0.881,-0.160
34.310,-0.303,0.879,-0.156
34.320,-0.303,0.885,-0.162
34.330,-0.303,0.883,-0.164
34.340,-0.303,0.887,-0.160
34.350,-0.301,0.885,-0.162
34.360,-0.299,0.891,-0.162
34.370,-0.291,0.885,-0.162
34.379,-0.289,0.887,-0.166
34.389,-0.289,0.896,-0.164
34.399,-0.291,0.896,-0.162
34.409,-0.291,0.895,-0.166
34.419,-0.297,0.896,-0.170
34.429,-0.297,0.895,-0.170
34.439,-0.301,0.898,-0.168
34.449,-0.295,0.896,-0.162
34.459,-0.291,0.896,-0.160
34.469,-0.291,0.895,-0.158
34.479,-0.297,0.893,-0.156
34.489,-0.303,0.885,-0.158
34.499,-0.301,0.877,-0.166
34.509,-0.303,0.875,-0.162
34.518,-0.307,0.881,-0.162
34.528,-0.303,0.885,-0.160
34.538,-0.303,0.889,-0.162
34.548,-0.303,0.891,-0.164
34.558,-0.309,0.896,-0.162
34.568,-0.311,0.891,-0.162
34.578,-0.305,0.893,-0.164
34.588,-0.303,0.893,-0.166
34.598,-0.305,0.893,-0.166
34.608,-0.303,0.896,-0.164
34.618,-0.299,0.895,-0.166
34.628,-0.293,0.891,-0.166
34.638,-0.287,0.896,-0.164
34.647,-0.285,0.895,-0.158
34.657,-0.281,0.891,-0.160
34.667,-0.287,0.887,-0.166
34.677,-0.289,0.883,-0.166
34.687,-0.289,0.885,-0.160
34.697,-0.291,0.883,-0.158
34.707,-0.293,0.883,-0.160
34.717,-0.291,0.885,-0.162
34.727,-0.297,0.883,-0.160
34.737,-0.305,0.885,-0.164
34.747,-0.307,0.883,-0.172
34.757,-0.309,0.885,-0.166
34.767,-0.305,0.885,-0.166
34.777,-0.307,0.889,-0.166
34.786,-0.305,0.893,-0.168
34.796,-0.307,0.893,-0.164
34.806,-0.309,0.895,-0.170
34.816,-0.307,0.898,-0.170
34.826,-0.303,0.898,-0.168
34.836,-0.301,0.898,-0.168
34.846,-0.301,0.895,-0.166
34.856,-0.297,0.893,-0.170
34.866,-0.297,0.887,-0.170
34.876,-0.295,0.887,-0.166
34.886,-0.295,0.887,-0.170
34.896,-0.295,0.883,-0.168
34.906,-0.293,0.883,-0.168
34.915,-0.297,0.885,-0.166
34.925,-0.295,0.883,-0.170
34.935,-0.295,0.887,-0.168
34.945,-0.295,0.887,-0.168
34.955,-0.297,0.891,-0.168
34.965,-0.301,0.891,-0.168
34.975,-0.299,0.895,-0.168
34.985,-0.301,0.895,-0.166
34.995,-0.301,0.896,-0.170
35.005,-0.297,0.898,-0.168
35.015,-0.295,0.896,-0.170
35.025,-0.299,0.895,-0.170
35.035,-0.301,0.891,-0.166
35.044,-0.301,0.891,-0.168
35.054,-0.299,0.891,-0.170
35.064,-0.297,0.889,-0.166
35.074,-0.297,0.879,-0.164
35.084,-0.293,0.885,-0.162
35.094,-0.297,0.889,-0.158
35.104,-0.297,0.883,-0.160
35.114,-0.297,0.879,-0.158
35.124,-0.301,0.877,-0.160
35.134,-0.305,0.885,-0.164
35.144,-0.305,0.889,-0.162
35.154,-0.303,0.893,-0.162
35.164,-0.303,0.893,-0.160
35.174,-0.303,0.898,-0.160
35.183,-0.309,0.900,-0.166
35.193,-0.309,0.893,-0.162
35.203,-0.307,0.885,-0.166
35.213,-0.309,0.885,-0.166
35.223,-0.307,0.885,-0.166
35.233,-0.303,0.887,-0.164
35.243,-0.299,0.887,-0.162
35.253,-0.295,0.883,-0.160
35.263,-0.297,0.881,-0.164
35.273,-0.297,0.883,-0.164
35.283,-0.299,0.881,-0.164
35.293,-0.295,0.881,-0.166
35.303,-0.299,0.883,-0.166
35.312,-0.299,0.885,-0.168
35.322,-0.299,0.883,-0.162
35.332,-0.301,0.896,-0.168
35.342,-0.295,0.898,-0.166
35.352,-0.303,0.898,-0.166
35.362,-0.303,0.891,-0.170
35.372,-0.301,0.896,-0.172
35.382,-0.301,0.896,-0.168
35.392,-0.299,0.896,-0.170
35.402,-0.293,0.896,-0.170
35.412,-0.293,0.902,-0.162
35.422,-0.285,0.898,-0.162
35.432,-0.289,0.895,-0.164
35.442,-0.285,0.887,-0.164
35.451,-0.289,0.885,-0.162
35.461,-0.291,0.883,-0.162
35.471,-0.293,0.881,-0.164
35.481,-0.291,0.887,-0.156
35.491,-0.295,0.887,-0.156
35.501,-0.299,0.887,-0.154
35.511,-0.299,0.889,-0.160
35.521,-0.301,0.891,-0.156
35.531,-0.303,0.891,-0.156
35.541,-0.309,0.891,-0.158
35.551,-0.307,0.889,-0.156
35.561,-0.312,0.887,-0.158
35.571,-0.309,0.891,-0.156
35.580,-0.309,0.889,-0.158
35.590,-0.303,0.889,-0.158
35.600,-0.309,0.887,-0.160
35.610,-0.305,0.891,-0.158
35.620,-0.301,0.889,-0.158
35.630,-0.303,0.891,-0.160
35.640,-0.299,0.889,-0.160
35.650,-0.297,0.887,-0.156
35.660,-0.299,0.883,-0.160
35.670,-0.301,0.887,-0.158
35.680,-0.299,0.885,-0.158
35.690,-0.303,0.885,-0.160
35.700,-0.299,0.887,-0.160
35.710,-0.297,0.891,-0.162
35.719,-0.301,0.889,-0.158
35.729,-0.301,0.889,-0.164
35.739,-0.305,0.889,-0.162
35.749,-0.307,0.891,-0.166
35.759,-0.307,0.893,-0.168
35.769,-0.301,0.891,-0.168
35.779,-0.301,0.891,-0.164
35.789,-0.293,0.895,-0.166
35.799,-0.291,0.898,-0.162
35.809,-0.293,0.893,-0.166
35.819,-0.293,0.895,-0.170
35.829,-0.293,0.895,-0.166
35.839,-0.297,0.896,-0.172
35.848,-0.295,0.896,-0.166
35.858,-0.293,0.891,-0.166
35.868,-0.291,0.891,-0.164
35.878,-0.295,0.891,-0.160
35.888,-0.299,0.887,-0.160
35.898,-0.299,0.881,-0.160
35.908,-0.301,0.881,-0.164
35.918,-0.301,0.883,-0.164
35.928,-0.297,0.887,-0.160
35.938,-0.297,0.889,-0.166
35.948,-0.297,0.895,-0.160
35.958,-0.299,0.895,-0.164
35.968,-0.301,0.893,-0.164
35.977,-0.309,0.895,-0.164
35.987,-0.311,0.893,-0.166
35.997,-0.312,0.893,-0.168
36.007,-0.311,0.895,-0.166
36.017,-0.307,0.896,-0.166
36.027,-0.301,0.891,-0.164
36.037,-0.297,0.893,-0.160
36.047,-0.289,0.891,-0.158
36.057,-0.283,0.889,-0.154
36.067,-0.289,0.879,-0.154
36.077,-0.289,0.877,-0.162
36.087,-0.293,0.877,-0.158
36.097,-0.295,0.879,-0.158
36.107,-0.295,0.889,-0.160
36.116,-0.297,0.891,-0.158
36.126,-0.299,0.896,-0.160
36.136,-0.299,0.898,-0.162
36.146,-0.309,0.895,-0.166
36.156,-0.309,0.887,-0.164
36.166,-0.307,0.891,-0.168
36.176,-0.305,0.893,-0.162
36.186,-0.305,0.895,-0.162
36.196,-0.303,0.895,-0.162
36.206,-0.307,0.895,-0.162
36.216,-0.309,0.896,-0.162
36.226,-0.303,0.893,-0.168
36.236,-0.299,0.893,-0.162
36.245,-0.299,0.893,-0.160
36.255,-0.293,0.887,-0.162
36.265,-0.297,0.885,-0.166
36.275,-0.295,0.887,-0.160
36.285,-0.295,0.885,-0.160
36.295,-0.293,0.891,-0.160
36.305,-0.297,0.887,-0.160
36.315,-0.295,0.889,-0.160
36.325,-0.293,0.889,-0.156
36.335,-0.295,0.891,-0.162
36.345,-0.295,0.889,-0.158
36.355,-0.295,0.885,-0.164
36.365,-0.293,0.889,-0.162
36.375,-0.293,0.889,-0.160
36.384,-0.295,0.895,-0.164
36.394,-0.297,0.895,-0.160
36.404,-0.297,0.895,-0.162
36.414,-0.299,0.896,-0.160
36.424,-0.301,0.895,-0.164
36.434,-0.305,0.889,-0.158
36.444,-0.305,0.891,-0.160
36.454,-0.307,0.891,-0.160
36.464,-0.301,0.885,-0.164
36.474,-0.307,0.881,-0.160
36.484,-0.303,0.887,-0.164
36.494,-0.305,0.891,-0.158
36.504,-0.301,0.887,-0.158
36.513,-0.305,0.883,-0.162
36.523,-0.311,0.885,-0.162
36.533,-0.309,0.891,-0.160
36.543,-0.307,0.893,-0.158
36.553,-0.301,0.893,-0.160
36.563,-0.305,0.893,-0.160
36.573,-0.303,0.893,-0.160
36.583,-0.307,0.893,-0.162
36.593,-0.307,0.889,-0.166
36.603,-0.309,0.891,-0.162
36.613,-0.307,0.896,-0.168
36.623,-0.303,0.895,-0.164
36.633,-0.301,0.895,-0.162
36.643,-0.295,0.896,-0.158
36.652,-0.287,0.893,-0.156
36.662,-0.287,0.891,-0.160
36.672,-0.287,0.883,-0.162
36.682,-0.295,0.877,-0.156
36.692,-0.293,0.879,-0.160
36.702,-0.297,0.883,-0.166
36.712,-0.289,0.883,-0.160
36.722,-0.293,0.883,-0.156
36.732,-0.295,0.889,-0.162
36.742,-0.299,0.893,-0.164
36.752,-0.297,0.887,-0.154
36.762,-0.307,0.883,-0.164
36.772,-0.309,0.887,-0.172
36.781,-0.307,0.889,-0.168
36.791,-0.309,0.893,-0.166
36.801,-0.307,0.898,-0.170
36.811,-0.307,0.902,-0.170
36.821,-0.307,0.902,-0.166
36.831,-0.307,0.898,-0.168
36.841,-0.307,0.896,-0.168
36.851,-0.303,0.889,-0.170
36.861,-0.301,0.885,-0.170
36.871,-0.301,0.883,-0.166
36.881,-0.303,0.883,-0.168
36.891,-0.295,0.885,-0.162
36.901,-0.297,0.885,-0.158
36.910,-0.295,0.885,-0.162
36.920,-0.297,0.885,-0.166
36.930,-0.305,0.881,-0.160
36.940,-0.303,0.889,-0.162
36.950,-0.307,0.887,-0.162
36.960,-0.297,0.887,-0.166
36.970,-0.299,0.891,-0.168
36.980,-0.305,0.893,-0.168
36.990,-0.299,0.891,-0.170
37.000,-0.299,0.891,-0.164
37.010,-0.303,0.889,-0.168
37.020,-0.301,0.891,-0.168
37.030,-0.297,0.891,-0.166
37.040,-0.303,0.889,-0.164
37.049,-0.305,0.887,-0.168
37.059,-0.303,0.879,-0.164
37.069,-0.303,0.881,-0.170
37.079,-0.307,0.883,-0.164
37.089,-0.309,0.885,-0.160
37.099,-0.312,0.887,-0.162
37.109,-0.312,0.883,-0.162
37.119,-0.311,0.889,-0.166
37.129,-0.316,0.885,-0.168
37.139,-0.316,0.891,-0.170
37.149,-0.316,0.895,-0.170
37.159,-0.311,0.896,-0.170
37.169,-0.305,0.891,-0.166
37.178,-0.303,0.893,-0.170
37.188,-0.299,0.896,-0.164
37.198,-0.295,0.891,-0.164
37.208,-0.297,0.885,-0.168
37.218,-0.291,0.889,-0.170
37.228,-0.295,0.889,-0.168
37.238,-0.293,0.887,-0.164
37.248,-0.287,0.887,-0.166
37.258,-0.287,0.885,-0.160
37.268,-0.285,0.887,-0.158
37.278,-0.295,0.887,-0.160
37.288,-0.301,0.881,-0.164
37.298,-0.305,0.881,-0.166
37.308,-0.307,0.883,-0.170
37.317,-0.311,0.893,-0.166
37.327,-0.311,0.896,-0.164
37.337,-0.307,0.898,-0.164
37.347,-0.309,0.902,-0.166
37.357,-0.309,0.896,-0.168
37.367,-0.311,0.896,-0.168
37.377,-0.307,0.893,-0.174
37.387,-0.303,0.889,-0.168
37.397,-0.303,0.885,-0.166
37.407,-0.301,0.889,-0.168
37.417,-0.297,0.881,-0.162
37.427,-0.293,0.885,-0.164
37.437,-0.289,0.891,-0.162
37.446,-0.293,0.885,-0.158
37.456,-0.297,0.877,-0.156
37.466,-0.299,0.871,-0.166
37.476,-0.301,0.877,-0.160
37.486,-0.305,0.883,-0.164
37.496,-0.303,0.891,-0.166
37.506,-0.301,0.895,-0.162
37.516,-0.301,0.900,-0.164
37.526,-0.305,0.898,-0.166
37.536,-0.305,0.893,-0.166
37.546,-0.305,0.895,-0.172
37.556,-0.309,0.891,-0.170
37.566,-0.307,0.889,-0.174
37.576,-0.307,0.887,-0.168
37.585,-0.305,0.887,-0.166
37.595,-0.301,0.883,-0.164
37.605,-0.303,0.885,-0.162
37.615,-0.303,0.883,-0.164
37.625,-0.303,0.883,-0.166
37.635,-0.297,0.881,-0.162
37.645,-0.303,0.885,-0.164
37.655,-0.305,0.883,-0.170
37.665,-0.307,0.885,-0.166
37.675,-0.307,0.889,-0.168
37.685,-0.305,0.893,-0.170
37.695,-0.309,0.893,-0.166
37.705,-0.307,0.896,-0.172
37.714,-0.307,0.896,-0.168
37.724,-0.303,0.898,-0.170
37.734,-0.305,0.895,-0.170
37.744,-0.301,0.889,-0.172
37.754,-0.303,0.885,-0.168
37.764,-0.303,0.887,-0.170
37.774,-0.297,0.887,-0.164
37.784,-0.295,0.881,-0.160
37.794,-0.291,0.877,-0.164
37.804,-0.295,0.879,-0.164
37.814,-0.305,0.883,-0.166
37.824,-0.311,0.883,-0.168
37.834,-0.311,0.893,-0.166
37.843,-0.311,0.895,-0.162
37.853,-0.309,0.889,-0.168
37.863,-0.309,0.895,-0.168
37.873,-0.307,0.895,-0.170
37.883,-0.311,0.889,-0.170
37.893,-0.326,0.881,-0.172
37.903,-0.340,0.883,-0.180
37.913,-0.350,0.889,-0.178
37.923,-0.338,0.895,-0.170
37.933,-0.324,0.898,-0.164
37.943,-0.309,0.896,-0.158
37.953,-0.301,0.889,-0.156
37.963,-0.305,0.877,-0.158
37.973,-0.320,0.873,-0.162
37.982,-0.318,0.875,-0.168
37.992,-0.309,0.881,-0.168
38.002,-0.305,0.883,-0.158
38.012,-0.297,0.891,-0.158
38.022,-0.295,0.895,-0.160
38.032,-0.287,0.893,-0.158
38.042,-0.283,0.895,-0.160
38.052,-0.297,0.885,-0.162
38.062,-0.305,0.885,-0.170
38.072,-0.316,0.885,-0.176
38.082,-0.332,0.891,-0.176
38.092,-0.338,0.885,-0.180
38.102,-0.352,0.844,-0.182
38.111,-0.316,0.898,-0.178
38.121,-0.305,0.920,-0.146
38.131,-0.324,0.896,-0.143
38.141,-0.348,0.865,-0.176
38.151,-0.371,0.865,-0.189
38.161,-0.371,0.877,-0.184
38.171,-0.359,0.891,-0.166
38.181,-0.340,0.896,-0.158
38.191,-0.312,0.902,-0.156
38.201,-0.297,0.900,-0.156
38.211,-0.295,0.904,-0.160
38.221,-0.301,0.889,-0.162
38.231,-0.312,0.873,-0.176
38.241,-0.332,0.854,-0.186
38.250,-0.340,0.875,-0.191
38.260,-0.326,0.896,-0.172
38.270,-0.303,0.910,-0.152
38.280,-0.285,0.908,-0.143
38.290,-0.279,0.898,-0.158
38.300,-0.289,0.893,-0.158
38.310,-0.295,0.889,-0.162
38.320,-0.293,0.885,-0.156
38.330,-0.279,0.885,-0.156
38.340,-0.268,0.889,-0.156
38.350,-0.256,0.889,-0.152
38.360,-0.252,0.893,-0.148
38.370,-0.250,0.893,-0.145
38.379,-0.264,0.885,-0.152
38.389,-0.270,0.879,-0.158
38.399,-0.271,0.881,-0.154
38.409,-0.271,0.896,-0.154
38.419,-0.264,0.902,-0.148
38.429,-0.256,0.904,-0.148
38.439,-0.256,0.908,-0.148
38.449,-0.266,0.895,-0.146
38.459,-0.291,0.873,-0.154
38.469,-0.311,0.867,-0.164
38.479,-0.314,0.875,-0.162
38.489,-0.305,0.889,-0.152
38.499,-0.283,0.891,-0.141
38.509,-0.266,0.893,-0.137
38.518,-0.256,0.900,-0.139
38.528,-0.264,0.900,-0.139
38.538,-0.262,0.896,-0.135
38.548,-0.262,0.887,-0.143
38.558,-0.271,0.867,-0.146
38.568,-0.295,0.861,-0.152
38.578,-0.301,0.875,-0.156
38.588,-0.301,0.885,-0.150
38.598,-0.295,0.891,-0.146
38.608,-0.289,0.891,-0.148
38.618,-0.293,0.891,-0.158
38.628,-0.291,0.893,-0.158
38.638,-0.285,0.902,-0.154
38.647,-0.262,0.900,-0.152
38.657,-0.248,0.904,-0.154
38.667,-0.248,0.902,-0.158
38.677,-0.258,0.900,-0.164
38.687,-0.279,0.893,-0.176
38.697,-0.297,0.877,-0.186
38.707,-0.322,0.875,-0.191
38.717,-0.344,0.871,-0.195
38.727,-0.348,0.885,-0.197
38.737,-0.334,0.896,-0.189
38.747,-0.316,0.896,-0.178
38.757,-0.303,0.893,-0.180
38.767,-0.297,0.896,-0.182
38.776,-0.305,0.889,-0.186
38.786,-0.311,0.885,-0.188
38.796,-0.314,0.883,-0.201
38.806,-0.318,0.879,-0.205
38.816,-0.320,0.871,-0.207
38.826,-0.332,0.871,-0.211
38.836,-0.334,0.883,-0.209
38.846,-0.328,0.891,-0.201
38.856,-0.322,0.893,-0.195
38.866,-0.324,0.885,-0.199
38.876,-0.334,0.875,-0.205
38.886,-0.340,0.871,-0.203
38.896,-0.336,0.875,-0.201
38.906,-0.328,0.877,-0.195
38.915,-0.307,0.883,-0.195
38.925,-0.295,0.883,-0.189
38.935,-0.287,0.885,-0.189
38.945,-0.291,0.877,-0.186
38.955,-0.303,0.869,-0.193
38.965,-0.318,0.855,-0.197
38.975,-0.324,0.859,-0.197
38.985,-0.324,0.879,-0.195
38.995,-0.322,0.883,-0.188
39.005,-0.316,0.881,-0.186
39.015,-0.307,0.883,-0.188
39.025,-0.305,0.887,-0.188
39.035,-0.307,0.883,-0.188
39.044,-0.312,0.883,-0.191
39.054,-0.318,0.877,-0.193
39.064,-0.330,0.871,-0.199
39.074,-0.340,0.867,-0.199
39.084,-0.344,0.877,-0.197
39.094,-0.340,0.881,-0.199
39.104,-0.332,0.887,-0.195
39.114,-0.322,0.893,-0.188
39.124,-0.320,0.889,-0.182
39.134,-0.318,0.891,-0.186
39.144,-0.314,0.889,-0.189
39.154,-0.314,0.877,-0.188
39.164,-0.314,0.871,-0.189
39.174,-0.318,0.867,-0.193
39.183,-0.316,0.867,-0.191
39.193,-0.309,0.871,-0.193
39.203,-0.311,0.879,-0.186
39.213,-0.305,0.883,-0.184
39.223,-0.305,0.889,-0.191
39.233,-0.307,0.889,-0.189
39.243,-0.311,0.885,-0.186
39.253,-0.322,0.875,-0.189
39.263,-0.328,0.877,-0.188
39.273,-0.336,0.867,-0.184
39.283,-0.326,0.873,-0.182
39.293,-0.316,0.883,-0.184
39.303,-0.309,0.881,-0.178
39.312,-0.314,0.883,-0.184
39.322,-0.320,0.879,-0.186
39.332,-0.328,0.877,-0.189
39.342,-0.326,0.879,-0.188
39.352,-0.322,0.883,-0.188
39.362,-0.320,0.881,-0.184
39.372,-0.322,0.881,-0.182
39.382,-0.314,0.881,-0.182
39.392,-0.311,0.879,-0.182
39.402,-0.316,0.877,-0.182
39.412,-0.314,0.869,-0.184
39.422,-0.318,0.871,-0.186
39.432,-0.320,0.877,-0.186
39.442,-0.322,0.877,-0.186
39.451,-0.316,0.881,-0.189
39.461,-0.318,0.885,-0.191
39.471,-0.314,0.883,-0.191
39.481,-0.326,0.879,-0.191
39.491,-0.324,0.881,-0.193
39.501,-0.322,0.885,-0.191
39.511,-0.320,0.883,-0.191
39.521,-0.322,0.875,-0.188
39.531,-0.314,0.879,-0.191
39.541,-0.309,0.881,-0.186
39.551,-0.309,0.885,-0.184
39.561,-0.307,0.879,-0.188
39.571,-0.309,0.875,-0.188
39.580,-0.309,0.875,-0.189
39.590,-0.309,0.871,-0.189
39.600,-0.314,0.871,-0.188
39.610,-0.316,0.873,-0.189
39.620,-0.316,0.883,-0.186
39.630,-0.322,0.885,-0.188
39.640,-0.328,0.879,-0.186
39.650,-0.328,0.883,-0.188
39.660,-0.320,0.883,-0.186
39.670,-0.320,0.881,-0.186
39.680,-0.314,0.881,-0.184
39.690,-0.311,0.881,-0.186
39.700,-0.316,0.877,-0.191
39.709,-0.324,0.879,-0.189
39.719,-0.318,0.881,-0.193
39.729,-0.318,0.877,-0.191
39.739,-0.314,0.883,-0.188
39.749,-0.314,0.883,-0.189
39.759,-0.309,0.881,-0.193
39.769,-0.305,0.885,-0.193
39.779,-0.305,0.883,-0.193
39.789,-0.305,0.877,-0.193
39.799,-0.316,0.869,-0.191
39.809,-0.320,0.863,-0.193
39.819,-0.322,0.869,-0.193
39.829,-0.318,0.873,-0.193
39.839,-0.314,0.873,-0.191
39.848,-0.314,0.881,-0.191
39.858,-0.312,0.881,-0.191
39.868,-0.312,0.887,-0.193
39.878,-0.316,0.887,-0.191
39.888,-0.318,0.885,-0.193
39.898,-0.322,0.885,-0.195
39.908,-0.318,0.885,-0.195
39.918,-0.326,0.885,-0.193
39.928,-0.324,0.883,-0.193
39.938,-0.322,0.879,-0.191
39.948,-0.316,0.885,-0.188
39.958,-0.309,0.881,-0.189
39.968,-0.305,0.875,-0.189
39.977,-0.305,0.873,-0.188
39.987,-0.309,0.875,-0.186
39.997,-0.311,0.873,-0.189
40.007,-0.316,0.869,-0.189
40.017,-0.326,0.873,-0.189
40.027,-0.324,0.881,-0.191
40.037,-0.320,0.887,-0.188
40.047,-0.314,0.883,-0.186
40.057,-0.314,0.883,-0.184
40.067,-0.318,0.881,-0.189
40.077,-0.318,0.879,-0.184
40.087,-0.320,0.879,-0.186
40.097,-0.320,0.879,-0.184
40.107,-0.316,0.879,-0.186
40.116,-0.314,0.881,-0.184
40.126,-0.312,0.881,-0.184
40.136,-0.307,0.883,-0.186
40.146,-0.309,0.883,-0.184
40.156,-0.311,0.883,-0.186
40.166,-0.312,0.885,-0.189
40.176,-0.312,0.885,-0.189
40.186,-0.307,0.883,-0.189
40.196,-0.305,0.881,-0.188
40.206,-0.307,0.871,-0.188
40.216,-0.309,0.867,-0.188
40.226,-0.303,0.879,-0.191
40.236,-0.299,0.879,-0.188
40.245,-0.301,0.883,-0.186
40.255,-0.307,0.881,-0.188
40.265,-0.311,0.881,-0.191
40.275,-0.312,0.881,-0.191
40.285,-0.312,0.883,-0.191
40.295,-0.311,0.889,-0.189
40.305,-0.320,0.885,-0.189
40.315,-0.322,0.891,-0.189
40.325,-0.320,0.893,-0.191
40.335,-0.312,0.891,-0.188
40.345,-0.314,0.885,-0.184
40.355,-0.314,0.885,-0.186
40.365,-0.307,0.883,-0.188
40.375,-0.303,0.875,-0.182
40.384,-0.305,0.879,-0.182
40.394,-0.307,0.873,-0.186
40.404,-0.311,0.871,-0.186
40.414,-0.312,0.875,-0.182
40.424,-0.309,0.877,-0.180
40.434,-0.311,0.875,-0.184
40.444,-0.312,0.877,-0.188
40.454,-0.309,0.879,-0.189
40.464,-0.311,0.881,-0.188
40.474,-0.309,0.881,-0.189
40.484,-0.312,0.883,-0.191
40.494,-0.309,0.887,-0.189
40.504,-0.311,0.891,-0.188
40.513,-0.312,0.889,-0.188
40.523,-0.314,0.889,-0.191
40.533,-0.311,0.885,-0.191
40.543,-0.311,0.887,-0.189
40.553,-0.311,0.881,-0.189
40.563,-0.309,0.877,-0.188
40.573,-0.309,0.877,-0.191
40.583,-0.312,0.877,-0.189
40.593,-0.307,0.881,-0.186
40.603,-0.311,0.881,-0.186
40.613,-0.312,0.875,-0.186
40.623,-0.309,0.869,-0.191
40.633,-0.307,0.877,-0.189
40.642,-0.307,0.881,-0.191
40.652,-0.309,0.885,-0.191
40.662,-0.311,0.883,-0.191
40.672,-0.314,0.885,-0.193
40.682,-0.309,0.885,-0.195
40.692,-0.307,0.889,-0.191
40.702,-0.305,0.887,-0.188
40.712,-0.309,0.883,-0.186
40.722,-0.312,0.885,-0.189
40.732,-0.316,0.883,-0.186
40.742,-0.311,0.883,-0.189
40.752,-0.309,0.879,-0.184
40.762,-0.309,0.879,-0.184
40.772,-0.307,0.879,-0.186
40.781,-0.305,0.879,-0.186
40.791,-0.307,0.879,-0.182
40.801,-0.312,0.877,-0.186
40.811,-0.314,0.879,-0.186
40.821,-0.316,0.883,-0.184
40.831,-0.320,0.877,-0.188
40.841,-0.322,0.885,-0.191
40.851,-0.322,0.887,-0.186
40.861,-0.318,0.885,-0.184
40.871,-0.311,0.881,-0.188
40.881,-0.305,0.887,-0.189
40.891,-0.303,0.887,-0.182
40.901,-0.303,0.879,-0.186
40.910,-0.307,0.877,-0.191
40.920,-0.303,0.877,-0.193
40.930,-0.305,0.873,-0.191
40.940,-0.305,0.875,-0.191
40.950,-0.307,0.883,-0.191
40.960,-0.303,0.891,-0.191
40.970,-0.305,0.887,-0.188
40.980,-0.309,0.887,-0.189
40.990,-0.312,0.879,-0.189
41.000,-0.314,0.879,-0.189
41.010,-0.314,0.877,-0.188
41.020,-0.312,0.877,-0.191
41.030,-0.309,0.875,-0.188
41.040,-0.305,0.879,-0.188
41.049,-0.309,0.885,-0.189
41.059,-0.311,0.885,-0.188
41.069,-0.311,0.885,-0.191
41.079,-0.316,0.887,-0.186
41.089,-0.312,0.887,-0.191
41.099,-0.316,0.881,-0.188
41.109,-0.316,0.877,-0.191
41.119,-0.314,0.879,-0.188
41.129,-0.311,0.881,-0.188
41.139,-0.311,0.883,-0.188
41.149,-0.309,0.885,-0.189
41.159,-0.309,0.883,-0.188
41.169,-0.309,0.885,-0.186
41.178,-0.312,0.879,-0.191
41.188,-0.311,0.883,-0.186
41.198,-0.307,0.885,-0.188
41.208,-0.305,0.885,-0.186
41.218,-0.309,0.881,-0.188
41.228,-0.307,0.885,-0.189
41.238,-0.305,0.881,-0.188
41.248,-0.305,0.881,-0.186
41.258,-0.309,0.881,-0.186
41.268,-0.311,0.881,-0.188
41.278,-0.311,0.881,-0.184
41.288,-0.312,0.879,-0.188
41.298,-0.314,0.881,-0.186
41.308,-0.312,0.883,-0.186
41.317,-0.307,0.883,-0.182
41.327,-0.307,0.877,-0.188
41.337,-0.305,0.877,-0.189
41.347,-0.303,0.881,-0.184
41.357,-0.305,0.885,-0.180
41.367,-0.307,0.885,-0.186
41.377,-0.312,0.885,-0.186
41.387,-0.314,0.887,-0.189
41.397,-0.314,0.881,-0.188
41.407,-0.311,0.881,-0.189
41.417,-0.312,0.889,-0.188
41.427,-0.314,0.887,-0.186
41.437,-0.309,0.883,-0.182
41.446,-0.311,0.885,-0.182
41.456,-0.311,0.881,-0.188
41.466,-0.312,0.881,-0.184
41.476,-0.309,0.881,-0.184
41.486,-0.311,0.877,-0.188
41.496,-0.309,0.881,-0.186
41.506,-0.311,0.883,-0.186
41.516,-0.311,0.883,-0.189
41.526,-0.311,0.879,-0.186
41.536,-0.311,0.881,-0.188
41.546,-0.309,0.883,-0.186
41.556,-0.311,0.883,-0.186
41.566,-0.312,0.885,-0.188
41.575,-0.305,0.881,-0.186
41.585,-0.305,0.881,-0.188
41.595,-0.301,0.883,-0.186
41.605,-0.303,0.883,-0.182
41.615,-0.303,0.879,-0.186
41.625,-0.307,0.875,-0.188
41.635,-0.307,0.883,-0.186
41.645,-0.309,0.889,-0.186
41.655,-0.309,0.887,-0.188
41.665,-0.307,0.889,-0.184
41.675,-0.307,0.881,-0.188
41.685,-0.314,0.879,-0.182
41.695,-0.316,0.879,-0.188
41.705,-0.312,0.877,-0.188
41.714,-0.311,0.881,-0.184
41.724,-0.307,0.881,-0.188
41.734,-0.311,0.883,-0.184
41.744,-0.311,0.883,-0.186
41.754,-0.312,0.883,-0.189
41.764,-0.309,0.883,-0.186
41.774,-0.307,0.885,-0.184
41.784,-0.305,0.885,-0.186
41.794,-0.307,0.883,-0.184
41.804,-0.305,0.881,-0.186
41.814,-0.311,0.879,-0.188
41.824,-0.309,0.883,-0.188
41.834,-0.307,0.883,-0.189
41.843,-0.307,0.879,-0.186
41.853,-0.305,0.881,-0.188
41.863,-0.305,0.885,-0.189
41.873,-0.307,0.883,-0.188
41.883,-0.305,0.883,-0.188
41.893,-0.307,0.883,-0.182
41.903,-0.309,0.883,-0.186
41.913,-0.314,0.881,-0.188
41.923,-0.311,0.883,-0.188
41.933,-0.309,0.883,-0.180
41.943,-0.307,0.881,-0.184
41.953,-0.309,0.879,-0.188
41.963,-0.311,0.883,-0.184
41.973,-0.312,0.879,-0.182
41.982,-0.314,0.881,-0.182
41.992,-0.309,0.885,-0.184
42.002,-0.301,0.885,-0.182
42.012,-0.305,0.881,-0.184
42.022,-0.303,0.877,-0.188
42.032,-0.307,0.879,-0.188
42.042,-0.305,0.885,-0.184
42.052,-0.311,0.885,-0.184
42.062,-0.312,0.885,-0.186
42.072,-0.316,0.883,-0.189
42.082,-0.309,0.883,-0.186
42.092,-0.301,0.889,-0.186
42.102,-0.295,0.895,-0.180
42.111,-0.303,0.887,-0.176
42.121,-0.303,0.883,-0.184
42.131,-0.307,0.877,-0.184
42.141,-0.311,0.875,-0.184
42.151,-0.314,0.877,-0.188
42.161,-0.312,0.881,-0.186
42.171,-0.311,0.881,-0.182
42.181,-0.309,0.889,-0.184
42.191,-0.307,0.887,-0.182
42.201,-0.305,0.883,-0.182
42.211,-0.305,0.883,-0.182
42.221,-0.307,0.879,-0.182
42.231,-0.309,0.875,-0.184
42.241,-0.311,0.881,-0.186
42.250,-0.311,0.879,-0.184
42.260,-0.307,0.879,-0.184
42.270,-0.301,0.879,-0.184
42.280,-0.299,0.885,-0.189
42.290,-0.299,0.887,-0.180
42.300,-0.303,0.889,-0.182
42.310,-0.309,0.885,-0.186
42.320,-0.312,0.881,-0.184
42.330,-0.312,0.881,-0.184
42.340,-0.307,0.885,-0.186
42.350,-0.307,0.885,-0.182
42.360,-0.305,0.885,-0.184
42.370,-0.309,0.883,-0.184
42.379,-0.312,0.883,-0.186
42.389,-0.311,0.887,-0.186
42.399,-0.311,0.885,-0.188
42.409,-0.309,0.883,-0.186
42.419,-0.305,0.883,-0.186
42.429,-0.303,0.883,-0.184
42.439,-0.307,0.879,-0.186
42.449,-0.309,0.885,-0.186
42.459,-0.311,0.887,-0.186
42.469,-0.312,0.887,-0.186
42.479,-0.309,0.885,-0.188
42.489,-0.305,0.883,-0.182
42.499,-0.307,0.881,-0.188
42.509,-0.301,0.883,-0.188
42.518,-0.301,0.879,-0.189
42.528,-0.301,0.879,-0.188
42.538,-0.299,0.885,-0.186
42.548,-0.303,0.883,-0.188
42.558,-0.307,0.883,-0.186
42.568,-0.309,0.889,-0.184
42.578,-0.309,0.889,-0.186
42.588,-0.312,0.885,-0.186
42.598,-0.309,0.883,-0.180
42.608,-0.303,0.877,-0.184
42.618,-0.307,0.877,-0.186
42.628,-0.311,0.879,-0.184
42.638,-0.307,0.885,-0.184
42.647,-0.309,0.887,-0.186
42.657,-0.309,0.887,-0.182
42.667,-0.311,0.885,-0.184
42.677,-0.312,0.889,-0.184
42.687,-0.309,0.887,-0.186
42.697,-0.311,0.885,-0.182
42.707,-0.307,0.883,-0.186
42.717,-0.307,0.877,-0.186
42.727,-0.309,0.875,-0.188
42.737,-0.309,0.881,-0.188
42.747,-0.311,0.881,-0.182
42.757,-0.307,0.885,-0.178
42.767,-0.307,0.881,-0.182
42.776,-0.299,0.875,-0.186
42.786,-0.301,0.879,-0.188
42.796,-0.297,0.887,-0.186
42.806,-0.299,0.889,-0.180
42.816,-0.303,0.889,-0.186
42.826,-0.309,0.887,-0.188
42.836,-0.311,0.891,-0.184
42.846,-0.312,0.889,-0.184
42.856,-0.307,0.887,-0.180
42.866,-0.305,0.889,-0.180
42.876,-0.305,0.887,-0.178
42.886,-0.309,0.885,-0.178
42.896,-0.312,0.879,-0.180
42.906,-0.311,0.881,-0.180
42.915,-0.311,0.881,-0.176
42.925,-0.312,0.881,-0.176
42.935,-0.309,0.885,-0.180
42.945,-0.305,0.879,-0.180
42.955,-0.307,0.879,-0.178
42.965,-0.305,0.881,-0.180
42.975,-0.303,0.885,-0.178
42.985,-0.307,0.883,-0.182
42.995,-0.309,0.885,-0.184
43.005,-0.311,0.887,-0.182
43.015,-0.309,0.891,-0.184
43.025,-0.305,0.887,-0.184
43.035,-0.301,0.883,-0.182
43.044,-0.293,0.889,-0.180
43.054,-0.291,0.887,-0.180
43.064,-0.295,0.881,-0.178
43.074,-0.303,0.883,-0.182
43.084,-0.305,0.879,-0.182
43.094,-0.307,0.881,-0.180
43.104,-0.309,0.885,-0.178
43.114,-0.311,0.887,-0.184
43.124,-0.307,0.889,-0.182
43.134,-0.307,0.889,-0.176
43.144,-0.309,0.885,-0.180
43.154,-0.307,0.885,-0.180
43.164,-0.307,0.885,-0.182
43.174,-0.303,0.891,-0.186
43.183,-0.301,0.896,-0.180
43.193,-0.301,0.908,-0.176
43.203,-0.307,0.898,-0.182
43.213,-0.303,0.881,-0.193
43.223,-0.301,0.889,-0.186
43.233,-0.297,0.896,-0.178
43.243,-0.285,0.904,-0.178
43.253,-0.279,0.904,-0.180
43.263,-0.277,0.898,-0.178
43.273,-0.279,0.889,-0.182
43.283,-0.287,0.879,-0.188
43.293,-0.291,0.875,-0.193
43.303,-0.287,0.883,-0.184
43.312,-0.283,0.891,-0.182
43.322,-0.281,0.896,-0.178
43.332,-0.283,0.902,-0.178
43.342,-0.287,0.902,-0.172
43.352,-0.291,0.900,-0.172
43.362,-0.289,0.895,-0.180
43.372,-0.303,0.875,-0.184
43.382,-0.312,0.875,-0.186
43.392,-0.318,0.881,-0.184
43.402,-0.311,0.891,-0.176
43.412,-0.299,0.902,-0.166
43.422,-0.287,0.912,-0.164
43.432,-0.273,0.924,-0.164
43.442,-0.260,0.926,-0.168
43.451,-0.248,0.928,-0.166
43.461,-0.240,0.916,-0.160
43.471,-0.234,0.906,-0.162
43.481,-0.234,0.902,-0.164
43.491,-0.232,0.896,-0.168
43.501,-0.244,0.893,-0.172
43.511,-0.266,0.883,-0.176
43.521,-0.283,0.885,-0.174
43.531,-0.293,0.885,-0.172
43.541,-0.301,0.885,-0.166
43.551,-0.311,0.881,-0.162
43.561,-0.320,0.869,-0.160
43.571,-0.336,0.867,-0.162
43.580,-0.346,0.871,-0.158
43.590,-0.354,0.869,-0.158
43.600,-0.357,0.873,-0.148
43.610,-0.359,0.873,-0.150
43.620,-0.359,0.881,-0.148
43.630,-0.359,0.883,-0.146
43.640,-0.363,0.883,-0.141
43.650,-0.359,0.885,-0.137
43.660,-0.355,0.885,-0.135
43.670,-0.346,0.887,-0.129
43.680,-0.342,0.889,-0.127
43.690,-0.334,0.887,-0.123
43.700,-0.326,0.895,-0.121
43.709,-0.322,0.887,-0.113
43.719,-0.311,0.883,-0.111
43.729,-0.299,0.889,-0.115
43.739,-0.287,0.896,-0.107
43.749,-0.281,0.891,-0.104
43.759,-0.277,0.893,-0.104
43.769,-0.277,0.893,-0.105
43.779,-0.277,0.891,-0.107
43.789,-0.279,0.891,-0.107
43.799,-0.277,0.896,-0.107
43.809,-0.271,0.900,-0.104
43.819,-0.266,0.908,-0.102
43.829,-0.270,0.904,-0.104
43.839,-0.271,0.902,-0.102
43.848,-0.275,0.902,-0.102
43.858,-0.275,0.898,-0.105
43.868,-0.281,0.893,-0.107
43.878,-0.291,0.895,-0.111
43.888,-0.299,0.889,-0.115
43.898,-0.303,0.896,-0.113
43.908,-0.309,0.902,-0.111
43.918,-0.309,0.906,-0.115
43.928,-0.309,0.904,-0.113
43.938,-0.309,0.904,-0.109
43.948,-0.305,0.908,-0.113
43.958,-0.303,0.900,-0.113
43.968,-0.291,0.896,-0.115
43.977,-0.295,0.895,-0.117
43.987,-0.291,0.893,-0.119
43.997,-0.291,0.898,-0.123
44.007,-0.289,0.902,-0.117
44.017,-0.287,0.902,-0.119
44.027,-0.285,0.900,-0.117
44.037,-0.281,0.895,-0.121
44.047,-0.281,0.896,-0.125
44.057,-0.289,0.896,-0.127
44.067,-0.297,0.896,-0.129
44.077,-0.301,0.896,-0.131
44.087,-0.299,0.891,-0.133
44.097,-0.291,0.902,-0.125
44.107,-0.293,0.902,-0.125
44.116,-0.291,0.898,-0.131
44.126,-0.291,0.898,-0.133
44.136,-0.289,0.900,-0.133
44.146,-0.297,0.900,-0.135
44.156,-0.305,0.900,-0.137
44.166,-0.311,0.900,-0.137
44.176,-0.305,0.904,-0.137
44.186,-0.299,0.898,-0.141
44.196,-0.303,0.895,-0.141
44.206,-0.299,0.891,-0.141
44.216,-0.295,0.893,-0.141
44.226,-0.293,0.900,-0.137
44.236,-0.293,0.900,-0.137
44.245,-0.293,0.900,-0.139
44.255,-0.297,0.898,-0.139
44.265,-0.295,0.902,-0.139
44.275,-0.293,0.902,-0.133
44.285,-0.295,0.904,-0.133
44.295,-0.297,0.896,-0.133
44.305,-0.297,0.893,-0.135
44.315,-0.299,0.893,-0.139
44.325,-0.299,0.891,-0.141
44.335,-0.305,0.891,-0.141
44.345,-0.309,0.898,-0.139
44.355,-0.307,0.904,-0.137
44.365,-0.303,0.898,-0.137
44.375,-0.293,0.896,-0.141
44.384,-0.289,0.895,-0.135
44.394,-0.297,0.893,-0.133
44.404,-0.305,0.887,-0.137
44.414,-0.303,0.887,-0.145
44.424,-0.299,0.891,-0.139
44.434,-0.303,0.896,-0.135
44.444,-0.312,0.895,-0.137
44.454,-0.314,0.887,-0.141
44.464,-0.307,0.896,-0.131
44.474,-0.293,0.910,-0.129
44.484,-0.299,0.902,-0.125
44.494,-0.301,0.896,-0.139
44.504,-0.305,0.895,-0.139
44.513,-0.309,0.893,-0.137
44.523,-0.299,0.898,-0.135
44.533,-0.301,0.902,-0.127
44.543,-0.309,0.902,-0.127
44.553,-0.299,0.898,-0.133
44.563,-0.287,0.895,-0.137
44.573,-0.285,0.895,-0.139
44.583,-0.301,0.896,-0.135
44.593,-0.318,0.893,-0.137
44.603,-0.318,0.891,-0.137
44.613,-0.312,0.891,-0.135
44.623,-0.311,0.887,-0.129
44.633,-0.316,0.891,-0.131
44.642,-0.324,0.891,-0.125
44.652,-0.326,0.887,-0.123
44.662,-0.326,0.883,-0.125
44.672,-0.322,0.877,-0.125
44.682,-0.322,0.883,-0.123
44.692,-0.330,0.883,-0.121
44.702,-0.336,0.885,-0.125
44.712,-0.334,0.883,-0.131
44.722,-0.324,0.887,-0.129
44.732,-0.316,0.893,-0.131
44.742,-0.316,0.895,-0.131
44.752,-0.312,0.896,-0.129
44.762,-0.309,0.898,-0.131
44.772,-0.309,0.900,-0.133
44.781,-0.305,0.896,-0.133
44.791,-0.305,0.898,-0.133
44.801,-0.303,0.893,-0.133
44.811,-0.305,0.885,-0.131
44.821,-0.307,0.883,-0.135
44.831,-0.305,0.887,-0.135
44.841,-0.311,0.887,-0.135
44.851,-0.312,0.889,-0.133
44.861,-0.314,0.893,-0.131
44.871,-0.312,0.893,-0.131
44.881,-0.309,0.887,-0.133
44.891,-0.303,0.889,-0.131
44.901,-0.303,0.895,-0.131
44.910,-0.309,0.893,-0.133
44.920,-0.309,0.887,-0.135
44.930,-0.312,0.891,-0.135
44.940,-0.318,0.891,-0.143
44.950,-0.314,0.889,-0.141
44.960,-0.316,0.889,-0.137
44.970,-0.318,0.895,-0.137
44.980,-0.322,0.898,-0.133
44.990,-0.328,0.904,-0.135
45.000,-0.336,0.898,-0.139
45.010,-0.346,0.889,-0.146
45.020,-0.354,0.885,-0.146
45.030,-0.354,0.881,-0.143
45.040,-0.348,0.881,-0.141
45.049,-0.340,0.883,-0.139
45.059,-0.330,0.889,-0.133
45.069,-0.328,0.895,-0.133
45.079,-0.326,0.891,-0.133
45.089,-0.320,0.889,-0.135
45.099,-0.320,0.885,-0.131
45.109,-0.316,0.881,-0.137
45.119,-0.322,0.879,-0.137
45.129,-0.324,0.875,-0.141
45.139,-0.322,0.885,-0.141
45.149,-0.322,0.893,-0.137
45.159,-0.322,0.893,-0.133
45.169,-0.324,0.893,-0.137
45.178,-0.324,0.891,-0.141
45.188,-0.322,0.891,-0.135
45.198,-0.320,0.891,-0.139
45.208,-0.318,0.889,-0.141
45.218,-0.312,0.893,-0.133
45.228,-0.316,0.893,-0.133
45.238,-0.314,0.889,-0.133
45.248,-0.314,0.891,-0.135
45.258,-0.322,0.891,-0.137
45.268,-0.326,0.889,-0.135
45.278,-0.326,0.889,-0.139
45.288,-0.322,0.891,-0.137
45.298,-0.324,0.891,-0.139
45.308,-0.326,0.891,-0.135
45.317,-0.328,0.889,-0.133
45.327,-0.330,0.891,-0.133
45.337,-0.328,0.889,-0.133
45.347,-0.332,0.887,-0.135
45.357,-0.332,0.883,-0.135
45.367,-0.332,0.883,-0.135
45.377,-0.326,0.889,-0.135
45.387,-0.326,0.891,-0.139
45.397,-0.324,0.893,-0.137
45.407,-0.326,0.893,-0.137
45.417,-0.322,0.885,-0.135
45.427,-0.322,0.887,-0.135
45.437,-0.320,0.887,-0.137
45.446,-0.316,0.887,-0.133
45.456,-0.318,0.885,-0.135
45.466,-0.322,0.883,-0.137
45.476,-0.322,0.889,-0.135
45.486,-0.324,0.887,-0.137
45.496,-0.326,0.889,-0.141
45.506,-0.324,0.889,-0.139
45.516,-0.320,0.893,-0.137
45.526,-0.322,0.895,-0.139
45.536,-0.324,0.893,-0.141
45.546,-0.324,0.891,-0.139
45.556,-0.324,0.891,-0.141
45.566,-0.318,0.889,-0.135
45.575,-0.314,0.885,-0.139
45.585,-0.314,0.887,-0.137
45.595,-0.312,0.889,-0.135
45.605,-0.314,0.887,-0.135
45.615,-0.316,0.885,-0.139
45.625,-0.320,0.885,-0.137
45.635,-0.324,0.887,-0.139
45.645,-0.318,0.895,-0.135
45.655,-0.318,0.893,-0.135
45.665,-0.314,0.895,-0.137
45.675,-0.320,0.895,-0.133
45.685,-0.326,0.889,-0.135
45.695,-0.328,0.885,-0.133
45.705,-0.332,0.883,-0.137
45.714,-0.332,0.887,-0.135
45.724,-0.334,0.885,-0.137
45.734,-0.332,0.885,-0.135
45.744,-0.330,0.889,-0.135
45.754,-0.326,0.893,-0.133
45.764,-0.326,0.889,-0.133
45.774,-0.330,0.893,-0.139
45.784,-0.328,0.893,-0.137
45.794,-0.328,0.895,-0.139
45.804,-0.324,0.893,-0.135
45.814,-0.328,0.891,-0.137
45.824,-0.322,0.885,-0.137
45.834,-0.318,0.887,-0.135
45.843,-0.318,0.883,-0.133
45.853,-0.314,0.885,-0.133
45.863,-0.320,0.879,-0.139
45.873,-0.320,0.881,-0.141
45.883,-0.320,0.885,-0.139
45.893,-0.316,0.887,-0.141
45.903,-0.314,0.891,-0.135
45.913,-0.312,0.893,-0.137
45.923,-0.309,0.896,-0.135
45.933,-0.316,0.893,-0.137
45.943,-0.320,0.891,-0.139
45.953,-0.320,0.887,-0.143
45.963,-0.324,0.891,-0.143
45.973,-0.322,0.896,-0.146
45.982,-0.322,0.896,-0.145
45.992,-0.324,0.895,-0.143
46.002,-0.322,0.889,-0.141
46.012,-0.316,0.893,-0.145
46.022,-0.316,0.896,-0.141
46.032,-0.316,0.893,-0.141
46.042,-0.316,0.891,-0.139
46.052,-0.316,0.889,-0.141
46.062,-0.314,0.883,-0.139
46.072,-0.314,0.881,-0.139
46.082,-0.316,0.879,-0.139
46.092,-0.318,0.883,-0.139
46.102,-0.320,0.885,-0.139
46.111,-0.324,0.887,-0.143
46.121,-0.324,0.891,-0.143
46.131,-0.326,0.893,-0.143
46.141,-0.322,0.893,-0.141
46.151,-0.322,0.891,-0.143
46.161,-0.326,0.891,-0.141
46.171,-0.324,0.895,-0.145
46.181,-0.324,0.900,-0.143
46.191,-0.322,0.902,-0.143
46.201,-0.322,0.896,-0.139
46.211,-0.318,0.891,-0.141
46.221,-0.316,0.891,-0.143
46.231,-0.316,0.895,-0.141
46.241,-0.316,0.895,-0.137
46.250,-0.312,0.891,-0.139
46.260,-0.316,0.885,-0.137
46.270,-0.316,0.885,-0.141
46.280,-0.320,0.885,-0.137
46.290,-0.314,0.879,-0.137
46.300,-0.314,0.881,-0.133
46.310,-0.314,0.885,-0.133
46.320,-0.314,0.887,-0.131
46.330,-0.322,0.887,-0.133
46.340,-0.322,0.887,-0.137
46.350,-0.328,0.885,-0.137
46.360,-0.326,0.887,-0.137
46.370,-0.324,0.891,-0.137
46.379,-0.328,0.891,-0.137
46.389,-0.328,0.895,-0.139
46.399,-0.328,0.900,-0.141
46.409,-0.324,0.900,-0.137
46.419,-0.326,0.893,-0.141
46.429,-0.326,0.893,-0.141
46.439,-0.324,0.893,-0.137
46.449,-0.318,0.893,-0.139
46.459,-0.318,0.885,-0.137
46.469,-0.311,0.887,-0.143
46.479,-0.305,0.893,-0.139
46.489,-0.305,0.893,-0.137
46.499,-0.309,0.885,-0.139
46.508,-0.311,0.879,-0.143
46.518,-0.314,0.877,-0.137
46.528,-0.318,0.875,-0.137
46.538,-0.316,0.885,-0.145
46.548,-0.314,0.889,-0.139
46.558,-0.312,0.893,-0.137
46.568,-0.314,0.893,-0.137
46.578,-0.316,0.893,-0.143
46.588,-0.316,0.893,-0.143
46.598,-0.318,0.893,-0.143
46.608,-0.320,0.896,-0.141
46.618,-0.322,0.895,-0.143
46.628,-0.320,0.896,-0.143
46.638,-0.320,0.896,-0.141
46.647,-0.320,0.896,-0.145
46.657,-0.322,0.896,-0.141
46.667,-0.320,0.895,-0.137
46.677,-0.322,0.891,-0.139
46.687,-0.322,0.887,-0.137
46.697,-0.324,0.879,-0.141
46.707,-0.322,0.877,-0.135
46.717,-0.326,0.875,-0.133
46.727,-0.320,0.875,-0.137
46.737,-0.324,0.877,-0.137
46.747,-0.324,0.883,-0.137
46.757,-0.324,0.887,-0.135
46.767,-0.326,0.895,-0.141
46.776,-0.324,0.895,-0.139
46.786,-0.324,0.896,-0.141
46.796,-0.328,0.895,-0.143
46.806,-0.328,0.898,-0.143
46.816,-0.324,0.900,-0.145
46.826,-0.320,0.902,-0.141
46.836,-0.320,0.896,-0.143
46.846,-0.312,0.895,-0.139
46.856,-0.309,0.891,-0.141
46.866,-0.312,0.887,-0.141
46.876,-0.309,0.885,-0.139
46.886,-0.309,0.885,-0.143
46.896,-0.305,0.881,-0.137
46.906,-0.301,0.875,-0.139
46.915,-0.301,0.879,-0.139
46.925,-0.303,0.887,-0.137
46.935,-0.309,0.885,-0.139
46.945,-0.316,0.889,-0.141
46.955,-0.324,0.889,-0.139
46.965,-0.328,0.891,-0.145
46.975,-0.324,0.896,-0.139
46.985,-0.326,0.898,-0.137
46.995,-0.322,0.898,-0.139
47.005,-0.326,0.898,-0.135
47.015,-0.328,0.895,-0.139
47.025,-0.328,0.896,-0.141
47.035,-0.326,0.898,-0.141
47.044,-0.326,0.891,-0.143
47.054,-0.324,0.891,-0.137
47.064,-0.316,0.891,-0.137
47.074,-0.312,0.895,-0.135
47.084,-0.307,0.891,-0.135
47.094,-0.305,0.887,-0.133
47.104,-0.305,0.885,-0.131
47.114,-0.309,0.883,-0.133
47.124,-0.309,0.877,-0.135
47.134,-0.312,0.881,-0.133
47.144,-0.314,0.885,-0.131
47.154,-0.316,0.885,-0.133
47.164,-0.320,0.891,-0.135
47.174,-0.316,0.895,-0.135
47.183,-0.314,0.895,-0.131
47.193,-0.318,0.891,-0.139
47.203,-0.320,0.889,-0.141
47.213,-0.322,0.891,-0.141
47.223,-0.324,0.898,-0.135
47.233,-0.320,0.902,-0.137
47.243,-0.314,0.898,-0.137
47.253,-0.316,0.896,-0.133
47.263,-0.314,0.895,-0.137
47.273,-0.314,0.889,-0.139
47.283,-0.320,0.887,-0.139
47.293,-0.318,0.887,-0.139
47.303,-0.318,0.887,-0.141
47.312,-0.318,0.887,-0.137
47.322,-0.314,0.889,-0.139
47.332,-0.314,0.889,-0.137
47.342,-0.311,0.887,-0.133
47.352,-0.312,0.885,-0.133
47.362,-0.314,0.885,-0.135
47.372,-0.316,0.889,-0.139
47.382,-0.316,0.887,-0.137
47.392,-0.316,0.889,-0.137
47.402,-0.316,0.889,-0.137
47.412,-0.320,0.895,-0.141
47.422,-0.318,0.896,-0.139
47.432,-0.320,0.898,-0.139
47.441,-0.324,0.896,-0.139
47.451,-0.318,0.895,-0.137
47.461,-0.320,0.895,-0.141
47.471,-0.318,0.895,-0.141
47.481,-0.318,0.891,-0.135
47.491,-0.318,0.887,-0.137
47.501,-0.316,0.891,-0.139
47.511,-0.314,0.891,-0.135
47.521,-0.318,0.891,-0.137
47.531,-0.326,0.887,-0.137
47.541,-0.324,0.885,-0.135
47.551,-0.322,0.891,-0.135
47.561,-0.322,0.891,-0.133
47.571,-0.322,0.885,-0.135
47.580,-0.318,0.885,-0.137
47.590,-0.314,0.893,-0.135
47.600,-0.311,0.895,-0.135
47.610,-0.312,0.893,-0.135
47.620,-0.316,0.895,-0.139
47.630,-0.318,0.893,-0.137
47.640,-0.314,0.896,-0.141
47.650,-0.307,0.896,-0.141
47.660,-0.301,0.895,-0.135
47.670,-0.303,0.896,-0.131
47.680,-0.307,0.893,-0.133
47.690,-0.309,0.891,-0.135
47.700,-0.312,0.887,-0.133
47.709,-0.316,0.883,-0.137
47.719,-0.318,0.887,-0.135
47.729,-0.320,0.889,-0.131
47.739,-0.316,0.891,-0.131
47.749,-0.318,0.893,-0.129
47.759,-0.324,0.895,-0.131
47.769,-0.326,0.893,-0.131
47.779,-0.324,0.893,-0.135
47.789,-0.326,0.889,-0.133
47.799,-0.326,0.889,-0.131
47.809,-0.326,0.895,-0.133
47.819,-0.326,0.893,-0.139
47.829,-0.322,0.889,-0.135
47.839,-0.316,0.895,-0.135
47.848,-0.314,0.896,-0.131
47.858,-0.312,0.889,-0.131
47.868,-0.312,0.887,-0.135
47.878,-0.311,0.887,-0.139
