df_hash,22ZHK4.1R5J5W
device,HZ2X61
project_hash,29R7
project_name,istanbul_aydin_university
person_hash,29R7.5LYG
person_label,v126real
date_time_start,2026-04-07_17-04-33.134000_+03
date_time_start_unix,1775563473.134
date_time_end,2026-04-07_17-12-49.773000_+03
length_difference_noticed,no

time,acc_x,acc_y,acc_z
4.435,-0.873,0.465,-0.023
4.444,-0.877,0.463,-0.025
4.454,-0.873,0.463,-0.023
4.464,-0.869,0.467,-0.020
4.474,-0.869,0.467,-0.020
4.484,-0.871,0.465,-0.021
4.494,-0.875,0.463,-0.025
4.504,-0.875,0.465,-0.023
4.514,-0.879,0.467,-0.021
4.524,-0.877,0.465,-0.020
4.534,-0.877,0.461,-0.020
4.544,-0.877,0.459,-0.018
4.554,-0.879,0.459,-0.020
4.564,-0.885,0.457,-0.020
4.574,-0.883,0.453,-0.018
4.583,-0.889,0.453,-0.020
4.593,-0.889,0.451,-0.021
4.603,-0.889,0.449,-0.020
4.613,-0.889,0.449,-0.021
4.623,-0.891,0.449,-0.020
4.633,-0.891,0.449,-0.016
4.643,-0.889,0.447,-0.016
4.653,-0.893,0.451,-0.016
4.663,-0.893,0.445,-0.016
4.673,-0.891,0.443,-0.018
4.683,-0.893,0.447,-0.020
4.693,-0.889,0.443,-0.020
4.703,-0.893,0.445,-0.016
4.712,-0.887,0.441,-0.016
4.722,-0.887,0.441,-0.016
4.732,-0.891,0.443,-0.014
4.742,-0.889,0.445,-0.018
4.752,-0.887,0.443,-0.016
4.762,-0.895,0.443,-0.018
4.772,-0.893,0.447,-0.016
4.782,-0.896,0.451,-0.012
4.792,-0.896,0.459,-0.012
4.802,-0.896,0.461,-0.021
4.812,-0.900,0.455,-0.021
4.822,-0.896,0.451,-0.025
4.832,-0.893,0.447,-0.023
4.842,-0.889,0.445,-0.021
4.851,-0.887,0.445,-0.021
4.861,-0.887,0.445,-0.021
4.871,-0.881,0.449,-0.018
4.881,-0.881,0.455,-0.014
4.891,-0.883,0.461,-0.016
4.901,-0.881,0.457,-0.016
4.911,-0.881,0.453,-0.014
4.921,-0.879,0.449,-0.014
4.931,-0.881,0.451,-0.016
4.941,-0.885,0.455,-0.014
4.951,-0.883,0.461,-0.014
4.961,-0.881,0.459,-0.016
4.971,-0.879,0.455,-0.014
4.981,-0.879,0.455,-0.014
4.990,-0.873,0.455,-0.016
5.000,-0.877,0.449,-0.010
5.010,-0.875,0.451,-0.012
5.020,-0.879,0.451,-0.012
5.030,-0.879,0.451,-0.014
5.040,-0.885,0.453,-0.010
5.050,-0.887,0.459,-0.012
5.060,-0.891,0.461,-0.010
5.070,-0.887,0.461,-0.016
5.080,-0.887,0.459,-0.012
5.090,-0.891,0.457,-0.014
5.100,-0.889,0.457,-0.012
5.110,-0.889,0.455,-0.014
5.120,-0.887,0.457,-0.008
5.129,-0.887,0.455,-0.012
5.139,-0.883,0.451,-0.014
5.149,-0.885,0.451,-0.010
5.159,-0.885,0.451,-0.012
5.169,-0.883,0.449,-0.008
5.179,-0.883,0.447,-0.010
5.189,-0.885,0.447,-0.010
5.199,-0.885,0.453,-0.010
5.209,-0.885,0.455,-0.012
5.219,-0.883,0.455,-0.010
5.229,-0.883,0.461,-0.010
5.239,-0.883,0.461,-0.008
5.249,-0.885,0.461,-0.010
5.258,-0.885,0.457,-0.008
5.268,-0.889,0.455,-0.012
5.278,-0.889,0.453,-0.010
5.288,-0.887,0.455,-0.012
5.298,-0.885,0.457,-0.010
5.308,-0.889,0.453,-0.012
5.318,-0.887,0.455,-0.012
5.328,-0.889,0.449,-0.008
5.338,-0.885,0.453,-0.010
5.348,-0.887,0.457,-0.008
5.358,-0.885,0.455,-0.008
5.368,-0.881,0.457,-0.008
5.378,-0.883,0.453,-0.006
5.388,-0.885,0.453,-0.008
5.397,-0.883,0.453,-0.010
5.407,-0.883,0.449,-0.008
5.417,-0.883,0.449,-0.014
5.427,-0.885,0.451,-0.008
5.437,-0.885,0.453,-0.008
5.447,-0.885,0.455,-0.008
5.457,-0.883,0.455,-0.006
5.467,-0.887,0.455,-0.008
5.477,-0.887,0.455,-0.008
5.487,-0.887,0.453,-0.008
5.497,-0.885,0.455,-0.006
5.507,-0.889,0.455,-0.008
5.517,-0.887,0.457,-0.006
5.527,-0.889,0.455,-0.006
5.536,-0.889,0.455,-0.006
5.546,-0.887,0.455,-0.004
5.556,-0.885,0.453,-0.006
5.566,-0.887,0.453,-0.004
5.576,-0.889,0.451,-0.004
5.586,-0.889,0.453,-0.008
5.596,-0.891,0.453,-0.008
5.606,-0.891,0.451,-0.006
5.616,-0.889,0.453,-0.004
5.626,-0.889,0.451,-0.008
5.636,-0.891,0.453,-0.006
5.646,-0.889,0.451,-0.004
5.656,-0.891,0.451,-0.004
5.665,-0.887,0.449,-0.002
5.675,-0.885,0.445,-0.002
5.685,-0.883,0.447,0.000
5.695,-0.887,0.445,0.000
5.705,-0.889,0.443,-0.002
5.715,-0.887,0.443,0.002
5.725,-0.885,0.447,-0.004
5.735,-0.887,0.443,-0.004
5.745,-0.885,0.445,-0.002
5.755,-0.885,0.449,-0.004
5.765,-0.887,0.451,-0.006
5.775,-0.887,0.453,-0.004
5.785,-0.885,0.455,-0.006
5.795,-0.885,0.451,-0.008
5.804,-0.891,0.457,-0.008
5.814,-0.891,0.457,-0.004
5.824,-0.889,0.459,-0.010
5.834,-0.885,0.465,-0.006
5.844,-0.883,0.461,-0.006
5.854,-0.879,0.459,-0.010
5.864,-0.879,0.455,-0.008
5.874,-0.881,0.455,-0.008
5.884,-0.877,0.459,-0.002
5.894,-0.877,0.463,-0.008
5.904,-0.881,0.465,-0.006
5.914,-0.883,0.465,-0.004
5.924,-0.881,0.463,-0.002
5.934,-0.879,0.463,-0.006
5.943,-0.879,0.457,-0.006
5.953,-0.879,0.453,-0.002
5.963,-0.885,0.455,-0.004
5.973,-0.887,0.451,-0.006
5.983,-0.887,0.453,-0.004
5.993,-0.883,0.455,-0.006
6.003,-0.887,0.457,-0.006
6.013,-0.889,0.459,-0.006
6.023,-0.889,0.459,-0.006
6.033,-0.893,0.459,-0.004
6.043,-0.893,0.457,-0.006
6.053,-0.889,0.459,-0.008
6.063,-0.891,0.457,-0.006
6.072,-0.889,0.457,-0.004
6.082,-0.891,0.463,-0.004
6.092,-0.889,0.461,0.000
6.102,-0.885,0.465,0.004
6.112,-0.887,0.459,0.002
6.122,-0.883,0.455,0.006
6.132,-0.881,0.453,0.006
6.142,-0.877,0.451,0.002
6.152,-0.877,0.449,0.004
6.162,-0.875,0.451,0.004
6.172,-0.877,0.451,0.008
6.182,-0.883,0.455,0.004
6.192,-0.883,0.459,0.000
6.202,-0.883,0.459,0.000
6.211,-0.883,0.459,0.000
6.221,-0.887,0.461,0.002
6.231,-0.885,0.459,-0.004
6.241,-0.885,0.459,-0.006
6.251,-0.889,0.459,-0.004
6.261,-0.887,0.459,-0.012
6.271,-0.885,0.461,-0.010
6.281,-0.885,0.463,-0.008
6.291,-0.885,0.465,-0.008
6.301,-0.881,0.465,-0.012
6.311,-0.881,0.465,-0.006
6.321,-0.877,0.467,-0.010
6.331,-0.879,0.463,-0.006
6.341,-0.873,0.461,-0.008
6.350,-0.873,0.465,-0.006
6.360,-0.871,0.467,-0.006
6.370,-0.871,0.467,-0.006
6.380,-0.873,0.469,-0.006
6.390,-0.873,0.467,-0.008
6.400,-0.873,0.465,-0.004
6.410,-0.877,0.463,-0.006
6.420,-0.879,0.463,-0.006
6.430,-0.879,0.461,-0.004
6.440,-0.881,0.459,-0.004
6.450,-0.881,0.461,-0.004
6.460,-0.877,0.459,-0.002
6.470,-0.881,0.461,-0.004
6.480,-0.879,0.463,-0.006
6.489,-0.881,0.461,-0.006
6.499,-0.881,0.457,-0.008
6.509,-0.887,0.461,-0.010
6.519,-0.885,0.461,-0.008
6.529,-0.887,0.459,-0.008
6.539,-0.885,0.459,-0.008
6.549,-0.887,0.459,-0.010
6.559,-0.887,0.459,-0.010
6.569,-0.887,0.461,-0.008
6.579,-0.887,0.463,-0.010
6.589,-0.889,0.461,-0.010
6.599,-0.889,0.459,-0.004
6.609,-0.883,0.455,-0.010
6.618,-0.887,0.457,-0.008
6.628,-0.885,0.455,-0.008
6.638,-0.887,0.457,-0.012
6.648,-0.887,0.459,-0.010
6.658,-0.883,0.455,-0.008
6.668,-0.883,0.453,-0.010
6.678,-0.887,0.455,-0.006
6.688,-0.885,0.459,-0.008
6.698,-0.883,0.459,-0.010
6.708,-0.875,0.457,-0.010
6.718,-0.881,0.461,-0.010
6.728,-0.879,0.463,-0.012
6.738,-0.879,0.457,-0.010
6.748,-0.883,0.455,-0.008
6.757,-0.885,0.457,-0.008
6.767,-0.883,0.461,-0.010
6.777,-0.883,0.461,-0.010
6.787,-0.885,0.461,-0.010
6.797,-0.885,0.455,-0.012
6.807,-0.883,0.459,-0.012
6.817,-0.881,0.457,-0.010
6.827,-0.883,0.453,-0.012
6.837,-0.883,0.449,-0.014
6.847,-0.885,0.449,-0.012
6.857,-0.887,0.451,-0.012
6.867,-0.889,0.453,-0.016
6.877,-0.889,0.455,-0.014
6.887,-0.889,0.457,-0.012
6.896,-0.887,0.461,-0.012
6.906,-0.889,0.463,-0.012
6.916,-0.891,0.461,-0.010
6.926,-0.889,0.459,-0.012
6.936,-0.885,0.457,-0.012
6.946,-0.885,0.457,-0.012
6.956,-0.883,0.463,-0.010
6.966,-0.881,0.463,-0.010
6.976,-0.883,0.461,-0.010
6.986,-0.881,0.465,-0.002
6.996,-0.879,0.465,-0.004
7.006,-0.879,0.463,-0.006
7.016,-0.875,0.467,-0.006
7.025,-0.877,0.465,-0.004
7.035,-0.877,0.465,-0.008
7.045,-0.879,0.463,-0.006
7.055,-0.879,0.461,-0.006
7.065,-0.879,0.461,-0.004
7.075,-0.881,0.461,-0.002
7.085,-0.879,0.461,-0.006
7.095,-0.881,0.461,-0.008
7.105,-0.881,0.459,-0.004
7.115,-0.883,0.459,-0.006
7.125,-0.885,0.459,-0.002
7.135,-0.883,0.457,-0.002
7.145,-0.881,0.459,0.000
7.155,-0.881,0.457,-0.004
7.164,-0.885,0.455,-0.002
7.174,-0.885,0.455,-0.004
7.184,-0.885,0.459,-0.004
7.194,-0.885,0.455,0.000
7.204,-0.887,0.453,-0.004
7.214,-0.887,0.453,-0.004
7.224,-0.885,0.451,0.000
7.234,-0.885,0.453,-0.002
7.244,-0.885,0.449,-0.002
7.254,-0.885,0.453,0.000
7.264,-0.885,0.449,-0.002
7.274,-0.885,0.453,-0.004
7.284,-0.889,0.453,-0.002
7.294,-0.883,0.457,-0.004
7.303,-0.889,0.455,-0.004
7.313,-0.885,0.455,-0.004
7.323,-0.883,0.455,-0.002
7.333,-0.883,0.455,-0.006
7.343,-0.885,0.455,-0.004
7.353,-0.881,0.453,-0.004
7.363,-0.883,0.459,-0.004
7.373,-0.883,0.459,-0.004
7.383,-0.881,0.461,-0.004
7.393,-0.881,0.463,-0.004
7.403,-0.881,0.461,-0.006
7.413,-0.883,0.463,-0.004
7.423,-0.883,0.463,-0.008
7.432,-0.881,0.463,-0.008
7.442,-0.879,0.463,-0.006
7.452,-0.881,0.459,-0.002
7.462,-0.881,0.461,-0.006
7.472,-0.881,0.463,-0.004
7.482,-0.879,0.467,-0.006
7.492,-0.875,0.465,-0.006
7.502,-0.877,0.465,-0.004
7.512,-0.879,0.467,-0.004
7.522,-0.877,0.461,-0.006
7.532,-0.877,0.459,-0.006
7.542,-0.877,0.457,-0.008
7.552,-0.877,0.463,-0.008
7.562,-0.883,0.465,-0.006
7.571,-0.881,0.461,-0.006
7.581,-0.883,0.461,-0.006
7.591,-0.885,0.461,-0.006
7.601,-0.885,0.459,-0.010
7.611,-0.887,0.459,-0.010
7.621,-0.891,0.451,-0.012
7.631,-0.891,0.451,-0.010
7.641,-0.893,0.451,-0.008
7.651,-0.891,0.451,-0.014
7.661,-0.895,0.451,-0.014
7.671,-0.893,0.455,-0.008
7.681,-0.893,0.455,-0.008
7.691,-0.893,0.453,-0.008
7.701,-0.891,0.451,-0.008
7.710,-0.887,0.451,-0.006
7.720,-0.885,0.451,-0.010
7.730,-0.885,0.453,-0.012
7.740,-0.883,0.455,-0.008
7.750,-0.883,0.453,-0.006
7.760,-0.885,0.453,-0.010
7.770,-0.887,0.457,-0.010
7.780,-0.883,0.455,-0.008
7.790,-0.883,0.453,-0.008
7.800,-0.881,0.459,-0.010
7.810,-0.879,0.459,-0.012
7.820,-0.881,0.461,-0.008
7.830,-0.881,0.459,-0.006
7.839,-0.881,0.459,-0.010
7.849,-0.881,0.459,-0.006
7.859,-0.883,0.461,-0.008
7.869,-0.883,0.461,-0.012
7.879,-0.883,0.455,-0.010
7.889,-0.881,0.459,-0.010
7.899,-0.879,0.459,-0.008
7.909,-0.881,0.463,-0.008
7.919,-0.883,0.463,-0.010
7.929,-0.881,0.463,-0.008
7.939,-0.881,0.463,-0.006
7.949,-0.881,0.461,-0.010
7.959,-0.877,0.459,-0.010
7.969,-0.875,0.457,-0.012
7.978,-0.879,0.461,-0.008
7.988,-0.877,0.457,-0.006
7.998,-0.879,0.455,-0.008
8.008,-0.879,0.459,-0.008
8.018,-0.883,0.459,-0.010
8.028,-0.887,0.461,-0.008
8.038,-0.889,0.461,-0.010
8.048,-0.889,0.461,-0.010
8.058,-0.889,0.457,-0.010
8.068,-0.891,0.461,-0.008
8.078,-0.891,0.455,-0.010
8.088,-0.893,0.453,-0.008
8.098,-0.893,0.455,-0.010
8.108,-0.893,0.451,-0.006
8.117,-0.893,0.453,-0.004
8.127,-0.893,0.449,-0.004
8.137,-0.896,0.445,-0.002
8.147,-0.893,0.445,-0.004
8.157,-0.895,0.447,-0.002
8.167,-0.893,0.445,0.000
8.177,-0.893,0.447,-0.004
8.187,-0.893,0.445,0.002
8.197,-0.893,0.449,0.002
8.207,-0.889,0.451,0.004
8.217,-0.889,0.451,0.000
8.227,-0.887,0.449,0.002
8.237,-0.883,0.447,0.002
8.247,-0.881,0.449,0.002
8.256,-0.881,0.449,0.000
8.266,-0.883,0.455,0.000
8.276,-0.881,0.455,0.002
8.286,-0.879,0.457,0.002
8.296,-0.877,0.459,0.000
8.306,-0.877,0.451,0.000
8.316,-0.879,0.447,-0.002
8.326,-0.875,0.451,0.002
8.336,-0.879,0.457,-0.002
8.346,-0.883,0.461,-0.002
8.356,-0.889,0.463,-0.002
8.366,-0.883,0.461,-0.004
8.376,-0.883,0.463,-0.006
8.385,-0.885,0.459,-0.006
8.395,-0.885,0.453,-0.004
8.405,-0.885,0.455,-0.004
8.415,-0.885,0.449,-0.010
8.425,-0.889,0.449,-0.008
8.435,-0.885,0.449,-0.006
8.445,-0.885,0.453,-0.006
8.455,-0.889,0.457,-0.006
8.465,-0.891,0.459,-0.008
8.475,-0.889,0.459,-0.008
8.485,-0.889,0.461,-0.004
8.495,-0.889,0.459,-0.004
8.505,-0.887,0.453,-0.006
8.515,-0.889,0.451,-0.008
8.524,-0.887,0.451,-0.006
8.534,-0.891,0.453,-0.006
8.544,-0.887,0.453,-0.006
8.554,-0.887,0.459,-0.002
8.564,-0.887,0.457,-0.004
8.574,-0.889,0.449,-0.002
8.584,-0.889,0.453,-0.004
8.594,-0.889,0.453,0.000
8.604,-0.891,0.453,-0.004
8.614,-0.891,0.449,-0.004
8.624,-0.891,0.445,-0.002
8.634,-0.887,0.447,-0.004
8.644,-0.889,0.449,-0.006
8.654,-0.885,0.449,-0.004
8.663,-0.893,0.447,-0.006
8.673,-0.895,0.449,-0.006
8.683,-0.895,0.447,-0.006
8.693,-0.891,0.445,-0.008
8.703,-0.891,0.445,-0.006
8.713,-0.891,0.447,-0.006
8.723,-0.891,0.449,-0.006
8.733,-0.887,0.449,-0.008
8.743,-0.887,0.451,-0.006
8.753,-0.889,0.449,-0.006
8.763,-0.887,0.451,-0.006
8.773,-0.887,0.447,-0.006
8.783,-0.883,0.445,-0.008
8.792,-0.885,0.447,-0.006
8.802,-0.883,0.447,-0.006
8.812,-0.885,0.449,-0.010
8.822,-0.885,0.453,-0.008
8.832,-0.885,0.457,-0.010
8.842,-0.885,0.455,-0.010
8.852,-0.887,0.457,-0.008
8.862,-0.885,0.459,-0.004
8.872,-0.885,0.457,-0.008
8.882,-0.887,0.457,-0.008
8.892,-0.889,0.457,-0.008
8.902,-0.883,0.451,-0.008
8.912,-0.883,0.453,-0.010
8.922,-0.885,0.455,-0.006
8.931,-0.887,0.455,-0.008
8.941,-0.889,0.457,-0.010
8.951,-0.891,0.457,-0.006
8.961,-0.885,0.459,-0.006
8.971,-0.887,0.459,-0.004
8.981,-0.889,0.461,-0.008
8.991,-0.887,0.459,-0.008
9.001,-0.885,0.457,-0.006
9.011,-0.885,0.457,-0.004
9.021,-0.881,0.457,-0.006
9.031,-0.885,0.457,-0.004
9.041,-0.885,0.459,-0.004
9.051,-0.883,0.461,-0.006
9.061,-0.881,0.463,-0.002
9.070,-0.881,0.465,-0.006
9.080,-0.879,0.463,-0.002
9.090,-0.877,0.457,-0.006
9.100,-0.879,0.453,-0.004
9.110,-0.881,0.453,-0.006
9.120,-0.883,0.455,-0.002
9.130,-0.885,0.461,-0.002
9.140,-0.885,0.457,-0.004
9.150,-0.887,0.453,-0.004
9.160,-0.889,0.451,-0.006
9.170,-0.883,0.449,-0.004
9.180,-0.885,0.447,-0.010
9.190,-0.887,0.449,-0.004
9.199,-0.891,0.443,-0.006
9.209,-0.893,0.441,-0.006
9.219,-0.893,0.441,-0.006
9.229,-0.889,0.443,-0.004
9.239,-0.893,0.447,-0.006
9.249,-0.893,0.449,-0.004
9.259,-0.893,0.449,-0.006
9.269,-0.893,0.453,-0.006
9.279,-0.889,0.451,-0.006
9.289,-0.891,0.451,-0.004
9.299,-0.891,0.449,-0.010
9.309,-0.889,0.449,-0.004
9.319,-0.885,0.451,-0.004
9.329,-0.885,0.455,-0.004
9.338,-0.887,0.457,-0.004
9.348,-0.885,0.457,-0.002
9.358,-0.885,0.455,-0.004
9.368,-0.883,0.457,-0.006
9.378,-0.885,0.455,-0.004
9.388,-0.881,0.455,-0.008
9.398,-0.891,0.455,-0.002
9.408,-0.889,0.457,-0.004
9.418,-0.887,0.459,-0.006
9.428,-0.887,0.459,-0.004
9.438,-0.891,0.461,0.000
9.448,-0.889,0.453,-0.008
9.458,-0.885,0.455,-0.002
9.468,-0.881,0.457,-0.010
9.477,-0.879,0.457,-0.008
9.487,-0.881,0.455,-0.006
9.497,-0.879,0.455,-0.008
9.507,-0.883,0.453,-0.008
9.517,-0.879,0.453,-0.004
9.527,-0.883,0.457,-0.006
9.537,-0.885,0.457,-0.006
9.547,-0.879,0.457,-0.004
9.557,-0.883,0.457,-0.004
9.567,-0.883,0.455,-0.002
9.577,-0.885,0.457,-0.004
9.587,-0.881,0.457,-0.006
9.597,-0.883,0.455,-0.004
9.607,-0.885,0.455,-0.004
9.616,-0.889,0.451,-0.006
9.626,-0.887,0.451,-0.006
9.636,-0.891,0.451,-0.002
9.646,-0.891,0.451,0.000
9.656,-0.891,0.445,-0.006
9.666,-0.891,0.445,-0.004
9.676,-0.893,0.447,-0.006
9.686,-0.891,0.447,-0.002
9.696,-0.891,0.449,-0.002
9.706,-0.893,0.453,-0.004
9.716,-0.889,0.453,-0.006
9.726,-0.893,0.451,-0.002
9.736,-0.893,0.451,-0.002
9.745,-0.889,0.453,-0.004
9.755,-0.891,0.449,-0.002
9.765,-0.889,0.447,-0.006
9.775,-0.887,0.445,-0.004
9.785,-0.885,0.447,-0.002
9.795,-0.889,0.451,-0.004
9.805,-0.885,0.449,0.000
9.815,-0.885,0.453,-0.002
9.825,-0.883,0.455,-0.004
9.835,-0.883,0.459,-0.004
9.845,-0.883,0.455,-0.004
9.855,-0.883,0.449,-0.004
9.865,-0.885,0.447,-0.004
9.875,-0.887,0.455,-0.004
9.884,-0.889,0.453,-0.004
9.894,-0.893,0.451,-0.006
9.904,-0.889,0.451,-0.006
9.914,-0.893,0.451,-0.004
9.924,-0.891,0.451,-0.004
9.934,-0.891,0.445,-0.004
9.944,-0.893,0.443,-0.004
9.954,-0.889,0.445,-0.004
9.964,-0.893,0.445,-0.004
9.974,-0.893,0.449,0.000
9.984,-0.893,0.447,-0.004
9.994,-0.893,0.449,0.000
10.004,-0.889,0.453,0.000
10.014,-0.893,0.457,0.000
10.023,-0.889,0.457,-0.002
10.033,-0.887,0.457,-0.004
10.043,-0.887,0.455,0.000
10.053,-0.887,0.449,-0.004
10.063,-0.885,0.455,-0.006
10.073,-0.881,0.459,-0.002
10.083,-0.883,0.461,-0.002
10.093,-0.879,0.461,-0.004
10.103,-0.877,0.455,-0.006
10.113,-0.875,0.459,-0.002
10.123,-0.873,0.457,-0.006
10.133,-0.875,0.455,-0.002
10.143,-0.875,0.457,-0.004
10.152,-0.879,0.457,-0.004
10.162,-0.877,0.457,-0.006
10.172,-0.881,0.459,-0.004
10.182,-0.881,0.461,-0.008
10.192,-0.883,0.459,-0.006
10.202,-0.887,0.457,-0.006
10.212,-0.889,0.455,-0.004
10.222,-0.893,0.457,-0.006
10.232,-0.893,0.449,-0.004
10.242,-0.891,0.449,-0.002
10.252,-0.891,0.449,-0.004
10.262,-0.891,0.447,-0.002
10.272,-0.896,0.447,-0.002
10.282,-0.895,0.449,-0.004
10.291,-0.896,0.447,-0.004
10.301,-0.895,0.447,-0.002
10.311,-0.895,0.447,-0.002
10.321,-0.889,0.447,0.000
10.331,-0.889,0.451,-0.002
10.341,-0.889,0.451,-0.002
10.351,-0.883,0.455,-0.002
10.361,-0.885,0.457,-0.004
10.371,-0.879,0.459,-0.004
10.381,-0.883,0.459,0.000
10.391,-0.881,0.459,0.000
10.401,-0.881,0.457,-0.004
10.411,-0.879,0.457,-0.006
10.421,-0.881,0.455,-0.004
10.430,-0.883,0.453,-0.004
10.440,-0.889,0.459,0.000
10.450,-0.889,0.457,-0.002
10.460,-0.889,0.455,-0.004
10.470,-0.889,0.453,0.000
10.480,-0.889,0.451,-0.006
10.490,-0.889,0.451,-0.002
10.500,-0.889,0.449,-0.004
10.510,-0.891,0.451,-0.002
10.520,-0.891,0.451,-0.004
10.530,-0.887,0.453,0.000
10.540,-0.885,0.453,0.000
10.550,-0.885,0.451,0.004
10.559,-0.883,0.451,0.000
10.569,-0.883,0.447,0.002
10.579,-0.883,0.445,-0.002
10.589,-0.885,0.445,0.000
10.599,-0.885,0.451,0.002
10.609,-0.887,0.455,0.000
10.619,-0.889,0.453,0.000
10.629,-0.887,0.449,0.000
10.639,-0.889,0.455,0.002
10.649,-0.889,0.453,0.002
10.659,-0.889,0.449,-0.002
10.669,-0.891,0.443,-0.004
10.679,-0.893,0.443,-0.004
10.689,-0.893,0.443,0.000
10.698,-0.895,0.447,0.000
10.708,-0.893,0.449,-0.004
10.718,-0.893,0.453,-0.004
10.728,-0.891,0.453,-0.002
10.738,-0.889,0.455,-0.002
10.748,-0.889,0.453,-0.004
10.758,-0.887,0.453,-0.004
10.768,-0.885,0.453,-0.004
10.778,-0.885,0.449,-0.004
10.788,-0.883,0.453,-0.004
10.798,-0.883,0.457,-0.004
10.808,-0.881,0.457,-0.004
10.818,-0.881,0.461,-0.002
10.828,-0.879,0.459,0.000
10.837,-0.877,0.457,-0.006
10.847,-0.881,0.461,0.000
10.857,-0.885,0.459,-0.002
10.867,-0.883,0.455,-0.004
10.877,-0.887,0.453,0.000
10.887,-0.885,0.453,-0.004
10.897,-0.889,0.453,-0.002
10.907,-0.891,0.449,0.002
10.917,-0.891,0.445,-0.002
10.927,-0.891,0.445,0.000
10.937,-0.895,0.447,-0.002
10.947,-0.893,0.445,0.002
10.957,-0.895,0.447,-0.004
10.966,-0.895,0.447,0.000
10.976,-0.891,0.447,-0.002
10.986,-0.895,0.447,0.000
10.996,-0.893,0.449,0.002
11.006,-0.891,0.451,-0.004
11.016,-0.885,0.449,-0.002
11.026,-0.883,0.449,-0.006
11.036,-0.887,0.453,-0.004
11.046,-0.883,0.455,0.000
11.056,-0.879,0.457,-0.002
11.066,-0.883,0.457,-0.002
11.076,-0.879,0.455,0.000
11.086,-0.879,0.455,-0.004
11.096,-0.885,0.459,-0.002
11.105,-0.883,0.459,-0.002
11.115,-0.887,0.457,-0.002
11.125,-0.887,0.455,0.000
11.135,-0.887,0.457,-0.004
11.145,-0.889,0.455,-0.004
11.155,-0.887,0.449,0.002
11.165,-0.889,0.447,0.004
11.175,-0.891,0.449,0.004
11.185,-0.891,0.445,0.002
11.195,-0.889,0.445,0.002
11.205,-0.893,0.447,-0.002
11.215,-0.895,0.443,0.004
11.225,-0.896,0.443,0.006
11.235,-0.893,0.441,0.002
11.244,-0.895,0.445,0.002
11.254,-0.893,0.439,0.002
11.264,-0.895,0.439,0.004
11.274,-0.891,0.443,0.002
11.284,-0.893,0.443,0.002
11.294,-0.893,0.445,0.004
11.304,-0.891,0.443,0.004
11.314,-0.893,0.447,0.004
11.324,-0.891,0.443,0.006
11.334,-0.887,0.438,0.004
11.344,-0.883,0.436,0.002
11.354,-0.885,0.439,0.004
11.364,-0.891,0.439,0.004
11.374,-0.891,0.445,0.004
11.383,-0.896,0.443,0.000
11.393,-0.896,0.443,0.000
11.403,-0.893,0.443,0.002
11.413,-0.896,0.439,0.000
11.423,-0.896,0.439,-0.002
11.433,-0.895,0.443,-0.004
11.443,-0.896,0.441,-0.006
11.453,-0.896,0.443,-0.006
11.463,-0.896,0.443,-0.008
11.473,-0.895,0.449,-0.012
11.483,-0.896,0.451,-0.010
11.493,-0.896,0.451,-0.014
11.503,-0.889,0.455,-0.010
11.512,-0.883,0.463,-0.008
11.522,-0.881,0.461,-0.012
11.532,-0.883,0.457,-0.014
11.542,-0.877,0.463,-0.008
11.552,-0.877,0.461,-0.014
11.562,-0.875,0.463,-0.012
11.572,-0.873,0.463,-0.016
11.582,-0.875,0.467,-0.012
11.592,-0.873,0.471,-0.012
11.602,-0.879,0.469,-0.012
11.612,-0.879,0.467,-0.012
11.622,-0.879,0.469,-0.016
11.632,-0.879,0.465,-0.014
11.642,-0.881,0.463,-0.014
11.651,-0.883,0.459,-0.016
11.661,-0.885,0.457,-0.016
11.671,-0.887,0.457,-0.014
11.681,-0.887,0.455,-0.014
11.691,-0.891,0.453,-0.014
11.701,-0.893,0.455,-0.014
11.711,-0.893,0.451,-0.014
11.721,-0.895,0.449,-0.014
11.731,-0.893,0.445,-0.014
11.741,-0.895,0.445,-0.012
11.751,-0.893,0.443,-0.008
11.761,-0.891,0.447,-0.012
11.771,-0.891,0.445,-0.008
11.781,-0.891,0.443,-0.006
11.790,-0.893,0.441,-0.008
11.800,-0.896,0.445,-0.006
11.810,-0.895,0.443,-0.006
11.820,-0.893,0.441,-0.006
11.830,-0.896,0.443,-0.006
11.840,-0.891,0.439,-0.004
11.850,-0.893,0.441,-0.004
11.860,-0.891,0.445,-0.002
11.870,-0.891,0.445,-0.008
11.880,-0.889,0.443,-0.004
11.890,-0.889,0.447,-0.006
11.900,-0.887,0.447,-0.004
11.910,-0.887,0.451,-0.008
11.919,-0.887,0.449,-0.004
11.929,-0.885,0.449,-0.004
11.939,-0.887,0.451,-0.006
11.949,-0.885,0.455,-0.006
11.959,-0.883,0.455,-0.006
11.969,-0.887,0.455,-0.006
11.979,-0.883,0.457,-0.008
11.989,-0.883,0.463,-0.008
11.999,-0.881,0.461,-0.008
12.009,-0.881,0.461,-0.008
12.019,-0.881,0.463,-0.004
12.029,-0.885,0.463,-0.006
12.039,-0.879,0.463,-0.008
12.049,-0.879,0.465,-0.004
12.058,-0.881,0.463,-0.006
12.068,-0.881,0.461,-0.006
12.078,-0.881,0.465,-0.004
12.088,-0.881,0.461,-0.004
12.098,-0.881,0.465,-0.006
12.108,-0.883,0.461,-0.002
12.118,-0.883,0.465,-0.002
12.128,-0.885,0.463,-0.004
12.138,-0.883,0.461,0.000
12.148,-0.883,0.457,-0.004
12.158,-0.883,0.459,-0.002
12.168,-0.883,0.457,-0.002
12.178,-0.887,0.455,-0.002
12.188,-0.885,0.461,0.000
12.197,-0.889,0.461,-0.002
12.207,-0.887,0.459,-0.002
12.217,-0.887,0.457,-0.002
12.227,-0.885,0.455,0.000
12.237,-0.889,0.455,0.000
12.247,-0.883,0.459,0.002
12.257,-0.883,0.457,0.004
12.267,-0.883,0.457,0.004
12.277,-0.887,0.457,0.002
12.287,-0.881,0.451,0.002
12.297,-0.881,0.451,-0.002
12.307,-0.883,0.451,0.000
12.317,-0.885,0.459,0.000
12.326,-0.885,0.459,0.004
12.336,-0.887,0.459,0.000
12.346,-0.885,0.453,0.000
12.356,-0.887,0.451,0.002
12.366,-0.885,0.449,0.000
12.376,-0.889,0.447,-0.002
12.386,-0.891,0.445,-0.004
12.396,-0.889,0.441,0.000
12.406,-0.891,0.447,0.002
12.416,-0.889,0.451,0.000
12.426,-0.893,0.453,-0.002
12.436,-0.891,0.453,-0.002
12.446,-0.891,0.453,-0.002
12.456,-0.891,0.453,-0.004
12.465,-0.889,0.453,-0.004
12.475,-0.885,0.455,-0.004
12.485,-0.885,0.457,-0.004
12.495,-0.887,0.457,-0.006
12.505,-0.883,0.457,-0.006
12.515,-0.879,0.459,-0.006
12.525,-0.879,0.461,-0.004
12.535,-0.877,0.463,-0.006
12.545,-0.877,0.461,-0.002
12.555,-0.877,0.463,-0.004
12.565,-0.879,0.459,-0.002
12.575,-0.883,0.465,-0.004
12.585,-0.881,0.463,-0.004
12.595,-0.883,0.461,-0.008
12.604,-0.883,0.459,-0.004
12.614,-0.883,0.463,-0.004
12.624,-0.887,0.461,-0.004
12.634,-0.885,0.461,-0.004
12.644,-0.889,0.455,-0.006
12.654,-0.887,0.457,-0.008
12.664,-0.887,0.455,-0.004
12.674,-0.889,0.457,-0.004
12.684,-0.887,0.457,-0.004
12.694,-0.887,0.457,-0.004
12.704,-0.885,0.457,-0.006
12.714,-0.885,0.453,-0.008
12.724,-0.889,0.457,-0.008
12.734,-0.885,0.457,-0.008
12.743,-0.883,0.459,-0.006
12.753,-0.883,0.461,-0.006
12.763,-0.883,0.463,-0.008
12.773,-0.885,0.461,-0.006
12.783,-0.883,0.461,-0.008
12.793,-0.883,0.461,-0.010
12.803,-0.883,0.459,-0.008
12.813,-0.877,0.461,-0.006
12.823,-0.885,0.463,-0.006
12.833,-0.881,0.461,-0.008
12.843,-0.883,0.461,-0.006
12.853,-0.885,0.459,-0.008
12.863,-0.881,0.461,-0.006
12.872,-0.887,0.459,-0.008
12.882,-0.885,0.459,-0.004
12.892,-0.885,0.461,-0.004
12.902,-0.883,0.459,-0.004
12.912,-0.883,0.459,-0.004
12.922,-0.885,0.453,-0.002
12.932,-0.885,0.457,-0.004
12.942,-0.889,0.457,-0.006
12.952,-0.885,0.461,-0.002
12.962,-0.887,0.459,-0.002
12.972,-0.887,0.461,0.000
12.982,-0.889,0.457,0.000
12.992,-0.889,0.459,0.000
13.002,-0.887,0.461,0.002
13.011,-0.889,0.459,0.000
13.021,-0.887,0.459,0.000
13.031,-0.885,0.459,0.004
13.041,-0.887,0.455,0.004
13.051,-0.885,0.461,0.006
13.061,-0.883,0.457,0.006
13.071,-0.883,0.455,0.006
13.081,-0.881,0.457,0.008
13.091,-0.881,0.455,0.008
13.101,-0.883,0.457,0.010
13.111,-0.881,0.455,0.006
13.121,-0.883,0.453,0.010
13.131,-0.883,0.457,0.012
13.141,-0.885,0.461,0.010
13.150,-0.881,0.457,0.010
13.160,-0.885,0.457,0.012
13.170,-0.883,0.451,0.010
13.180,-0.881,0.453,0.014
13.190,-0.883,0.451,0.006
13.200,-0.883,0.449,0.012
13.210,-0.883,0.451,0.012
13.220,-0.887,0.449,0.014
13.230,-0.889,0.455,0.012
13.240,-0.887,0.457,0.010
13.250,-0.887,0.457,0.012
13.260,-0.887,0.459,0.014
13.270,-0.883,0.459,0.016
13.279,-0.883,0.459,0.014
13.289,-0.881,0.463,0.016
13.299,-0.881,0.461,0.014
13.309,-0.881,0.463,0.014
13.319,-0.879,0.457,0.010
13.329,-0.877,0.461,0.012
13.339,-0.877,0.459,0.010
13.349,-0.881,0.465,0.012
13.359,-0.879,0.461,0.012
13.369,-0.875,0.457,0.010
13.379,-0.877,0.461,0.010
13.389,-0.879,0.461,0.012
13.399,-0.881,0.463,0.010
13.409,-0.883,0.463,0.008
13.418,-0.881,0.461,0.010
13.428,-0.883,0.467,0.010
13.438,-0.885,0.469,0.008
13.448,-0.885,0.463,0.008
13.458,-0.885,0.461,0.010
13.468,-0.883,0.461,0.008
13.478,-0.883,0.459,0.008
13.488,-0.887,0.459,0.008
13.498,-0.885,0.457,0.006
13.508,-0.885,0.455,0.008
13.518,-0.883,0.459,0.008
13.528,-0.883,0.459,0.004
13.538,-0.885,0.459,0.006
13.548,-0.883,0.461,0.010
13.557,-0.881,0.457,0.008
13.567,-0.877,0.461,0.006
13.577,-0.883,0.463,0.006
13.587,-0.879,0.461,0.008
13.597,-0.881,0.463,0.008
13.607,-0.881,0.463,0.004
13.617,-0.879,0.467,0.006
13.627,-0.879,0.461,0.006
13.637,-0.879,0.463,0.002
13.647,-0.879,0.459,0.004
13.657,-0.881,0.461,0.006
13.667,-0.881,0.457,0.006
13.677,-0.881,0.459,0.006
13.686,-0.883,0.459,0.002
13.696,-0.881,0.463,0.002
13.706,-0.883,0.461,0.002
13.716,-0.881,0.461,0.004
13.726,-0.883,0.465,0.004
13.736,-0.883,0.463,0.004
13.746,-0.885,0.463,-0.002
13.756,-0.885,0.459,0.006
13.766,-0.881,0.461,0.004
13.776,-0.883,0.457,0.004
13.786,-0.885,0.459,0.004
13.796,-0.883,0.463,0.004
13.806,-0.879,0.463,0.004
13.816,-0.881,0.465,0.004
13.825,-0.877,0.465,0.006
13.835,-0.879,0.463,0.008
13.845,-0.877,0.461,0.004
13.855,-0.877,0.459,0.004
13.865,-0.879,0.459,0.006
13.875,-0.883,0.459,0.008
13.885,-0.885,0.467,0.002
13.895,-0.883,0.467,0.002
13.905,-0.887,0.461,0.006
13.915,-0.883,0.463,0.004
13.925,-0.883,0.459,0.002
13.935,-0.885,0.459,0.004
13.945,-0.885,0.455,0.000
13.955,-0.887,0.453,0.004
13.964,-0.889,0.455,0.004
13.974,-0.889,0.455,0.004
13.984,-0.885,0.461,0.006
13.994,-0.885,0.459,0.004
14.004,-0.887,0.463,0.002
14.014,-0.885,0.461,0.004
14.024,-0.885,0.463,0.004
14.034,-0.885,0.459,0.002
14.044,-0.885,0.461,0.002
14.054,-0.879,0.459,0.004
14.064,-0.881,0.463,0.006
14.074,-0.881,0.465,0.006
14.084,-0.877,0.465,0.006
14.093,-0.881,0.467,0.006
14.103,-0.879,0.465,0.004
14.113,-0.877,0.463,0.004
14.123,-0.875,0.465,0.006
14.133,-0.877,0.465,0.002
14.143,-0.881,0.463,0.002
14.153,-0.879,0.463,0.006
14.163,-0.881,0.461,0.004
14.173,-0.883,0.465,0.008
14.183,-0.883,0.465,0.002
14.193,-0.881,0.461,0.006
14.203,-0.883,0.459,0.004
14.213,-0.883,0.457,0.002
14.223,-0.881,0.457,0.002
14.232,-0.885,0.461,0.000
14.242,-0.885,0.465,0.002
14.252,-0.885,0.465,0.002
14.262,-0.885,0.461,0.002
14.272,-0.885,0.463,0.006
14.282,-0.881,0.465,0.008
14.292,-0.883,0.461,0.004
14.302,-0.881,0.459,0.004
14.312,-0.883,0.461,0.004
14.322,-0.881,0.457,0.006
14.332,-0.881,0.459,0.006
14.342,-0.881,0.459,0.002
14.352,-0.881,0.459,0.002
14.362,-0.881,0.459,0.006
14.371,-0.881,0.457,0.002
14.381,-0.883,0.459,0.004
14.391,-0.883,0.461,0.002
14.401,-0.883,0.459,0.004
14.411,-0.887,0.459,0.004
14.421,-0.885,0.459,0.004
14.431,-0.883,0.455,0.006
14.441,-0.885,0.455,0.006
14.451,-0.885,0.453,0.006
14.461,-0.887,0.455,0.010
14.471,-0.887,0.455,0.008
14.481,-0.887,0.453,0.010
14.491,-0.889,0.455,0.008
14.501,-0.889,0.457,0.008
14.510,-0.889,0.457,0.008
14.520,-0.889,0.461,0.008
14.530,-0.889,0.463,0.008
14.540,-0.891,0.461,0.006
14.550,-0.891,0.463,0.008
14.560,-0.889,0.463,0.008
14.570,-0.891,0.465,0.012
14.580,-0.889,0.465,0.010
14.590,-0.885,0.463,0.012
14.600,-0.877,0.467,0.010
14.610,-0.877,0.467,0.016
14.620,-0.873,0.463,0.014
14.630,-0.869,0.461,0.012
14.639,-0.873,0.459,0.012
14.649,-0.873,0.463,0.010
14.659,-0.873,0.471,0.012
14.669,-0.877,0.471,0.008
14.679,-0.875,0.467,0.006
14.689,-0.883,0.469,0.008
14.699,-0.881,0.469,0.008
14.709,-0.877,0.469,0.004
14.719,-0.877,0.463,0.006
14.729,-0.881,0.461,0.004
14.739,-0.881,0.457,0.004
14.749,-0.881,0.457,0.008
14.759,-0.887,0.457,0.010
14.769,-0.883,0.457,0.012
14.778,-0.881,0.455,0.012
14.788,-0.879,0.455,0.014
14.798,-0.881,0.451,0.014
14.808,-0.881,0.455,0.020
14.818,-0.881,0.449,0.018
14.828,-0.885,0.449,0.018
14.838,-0.887,0.445,0.018
14.848,-0.885,0.451,0.016
14.858,-0.889,0.453,0.018
14.868,-0.887,0.455,0.014
14.878,-0.893,0.463,0.016
14.888,-0.893,0.461,0.012
14.898,-0.889,0.459,0.012
14.908,-0.891,0.459,0.006
14.917,-0.889,0.463,0.008
14.927,-0.891,0.461,0.006
14.937,-0.885,0.461,0.006
14.947,-0.887,0.467,0.006
14.957,-0.887,0.467,0.002
14.967,-0.883,0.467,0.006
14.977,-0.885,0.463,0.006
14.987,-0.883,0.463,0.002
14.997,-0.881,0.463,0.004
15.007,-0.883,0.465,0.004
15.017,-0.885,0.467,0.006
15.027,-0.883,0.463,0.008
15.037,-0.883,0.469,0.012
15.046,-0.879,0.465,0.008
15.056,-0.877,0.465,0.008
15.066,-0.879,0.463,0.008
15.076,-0.885,0.461,0.004
15.086,-0.883,0.465,0.006
15.096,-0.881,0.465,0.010
15.106,-0.881,0.467,0.010
15.116,-0.879,0.469,0.006
15.126,-0.875,0.469,0.006
15.136,-0.877,0.471,0.010
15.146,-0.877,0.471,0.012
15.156,-0.877,0.467,0.008
15.166,-0.877,0.471,0.010
15.176,-0.875,0.473,0.006
15.185,-0.875,0.469,0.008
15.195,-0.873,0.469,0.006
15.205,-0.871,0.469,0.010
15.215,-0.875,0.469,0.010
15.225,-0.877,0.469,0.014
15.235,-0.873,0.471,0.012
15.245,-0.873,0.475,0.012
15.255,-0.873,0.467,0.014
15.265,-0.867,0.469,0.012
15.275,-0.871,0.467,0.016
15.285,-0.875,0.467,0.018
15.295,-0.879,0.473,0.018
15.305,-0.879,0.473,0.016
15.315,-0.879,0.463,0.014
15.324,-0.881,0.463,0.016
15.334,-0.883,0.463,0.010
15.344,-0.879,0.467,0.014
15.354,-0.879,0.469,0.012
15.364,-0.883,0.471,0.010
15.374,-0.881,0.477,0.010
15.384,-0.885,0.477,0.010
15.394,-0.879,0.477,0.008
15.404,-0.881,0.480,0.012
15.414,-0.879,0.479,0.012
15.424,-0.877,0.482,0.010
15.434,-0.877,0.482,0.008
15.444,-0.875,0.488,0.012
15.453,-0.875,0.496,0.008
15.463,-0.871,0.492,0.004
15.473,-0.869,0.486,0.006
15.483,-0.867,0.484,0.004
15.493,-0.869,0.488,0.002
15.503,-0.867,0.486,0.006
15.513,-0.867,0.482,0.004
15.523,-0.869,0.482,0.010
15.533,-0.865,0.479,0.010
15.543,-0.863,0.477,0.012
15.553,-0.865,0.475,0.010
15.563,-0.869,0.475,0.012
15.573,-0.867,0.475,0.014
15.583,-0.871,0.473,0.010
15.592,-0.873,0.475,0.016
15.602,-0.873,0.475,0.018
15.612,-0.871,0.480,0.016
15.622,-0.871,0.484,0.020
15.632,-0.869,0.482,0.016
15.642,-0.869,0.486,0.016
15.652,-0.869,0.484,0.012
15.662,-0.867,0.484,0.014
15.672,-0.861,0.486,0.012
15.682,-0.863,0.486,0.012
15.692,-0.857,0.492,0.012
15.702,-0.859,0.498,0.010
15.712,-0.861,0.498,0.016
15.722,-0.857,0.498,0.014
15.731,-0.855,0.496,0.018
15.741,-0.854,0.496,0.010
15.751,-0.850,0.496,0.016
15.761,-0.855,0.496,0.016
15.771,-0.855,0.496,0.016
15.781,-0.857,0.494,0.018
15.791,-0.859,0.494,0.016
15.801,-0.859,0.492,0.016
15.811,-0.867,0.490,0.020
15.821,-0.863,0.488,0.018
15.831,-0.867,0.488,0.016
15.841,-0.865,0.486,0.016
15.851,-0.873,0.486,0.014
15.861,-0.867,0.488,0.016
15.870,-0.869,0.486,0.014
15.880,-0.865,0.490,0.016
15.890,-0.869,0.492,0.014
15.900,-0.867,0.492,0.016
15.910,-0.865,0.492,0.014
15.920,-0.861,0.490,0.016
15.930,-0.863,0.492,0.014
15.940,-0.863,0.494,0.016
15.950,-0.861,0.494,0.016
15.960,-0.859,0.494,0.018
15.970,-0.859,0.492,0.016
15.980,-0.854,0.492,0.014
15.990,-0.855,0.490,0.020
15.999,-0.859,0.490,0.016
16.009,-0.861,0.492,0.014
16.019,-0.859,0.486,0.016
16.029,-0.859,0.488,0.020
16.039,-0.863,0.488,0.016
16.049,-0.865,0.486,0.016
16.059,-0.863,0.486,0.016
16.069,-0.867,0.486,0.012
16.079,-0.871,0.488,0.016
16.089,-0.873,0.484,0.014
16.099,-0.869,0.486,0.014
16.109,-0.877,0.484,0.014
16.119,-0.873,0.482,0.016
16.129,-0.869,0.488,0.018
16.138,-0.875,0.486,0.012
16.148,-0.871,0.484,0.014
16.158,-0.867,0.482,0.018
16.168,-0.865,0.482,0.016
16.178,-0.863,0.484,0.016
16.188,-0.867,0.484,0.014
16.198,-0.871,0.484,0.016
16.208,-0.869,0.488,0.014
16.218,-0.869,0.486,0.014
16.228,-0.867,0.484,0.014
16.238,-0.867,0.486,0.018
16.248,-0.867,0.490,0.014
16.258,-0.867,0.486,0.010
16.268,-0.867,0.486,0.010
16.277,-0.863,0.484,0.012
16.287,-0.863,0.488,0.012
16.297,-0.863,0.490,0.010
16.307,-0.867,0.488,0.012
16.317,-0.863,0.488,0.008
16.327,-0.861,0.486,0.010
16.337,-0.861,0.492,0.008
16.347,-0.863,0.484,0.006
16.357,-0.863,0.484,0.010
16.367,-0.863,0.486,0.006
16.377,-0.873,0.490,0.010
16.387,-0.873,0.496,0.008
16.397,-0.873,0.486,0.008
16.406,-0.871,0.488,0.008
16.416,-0.869,0.490,0.010
16.426,-0.867,0.490,0.010
16.436,-0.869,0.484,0.008
16.446,-0.869,0.479,0.012
16.456,-0.869,0.475,0.008
16.466,-0.865,0.477,0.010
16.476,-0.867,0.477,0.008
16.486,-0.865,0.484,0.010
16.496,-0.865,0.488,0.010
16.506,-0.863,0.488,0.010
16.516,-0.867,0.490,0.010
16.526,-0.865,0.486,0.010
16.536,-0.869,0.488,0.010
16.545,-0.867,0.486,0.008
16.555,-0.865,0.482,0.010
16.565,-0.867,0.486,0.008
16.575,-0.865,0.488,0.010
16.585,-0.863,0.488,0.010
16.595,-0.863,0.488,0.012
16.605,-0.859,0.486,0.010
16.615,-0.861,0.488,0.012
16.625,-0.865,0.488,0.014
16.635,-0.865,0.488,0.010
16.645,-0.867,0.486,0.012
16.655,-0.865,0.484,0.010
16.665,-0.865,0.482,0.010
16.675,-0.861,0.482,0.012
16.684,-0.861,0.482,0.012
16.694,-0.865,0.486,0.008
16.704,-0.861,0.486,0.014
16.714,-0.867,0.488,0.008
16.724,-0.865,0.486,0.010
16.734,-0.863,0.488,0.008
16.744,-0.863,0.490,0.012
16.754,-0.863,0.490,0.008
16.764,-0.861,0.486,0.004
16.774,-0.861,0.484,0.012
16.784,-0.863,0.484,0.008
16.794,-0.865,0.488,0.008
16.804,-0.861,0.484,0.008
16.813,-0.861,0.484,0.006
16.823,-0.867,0.484,0.010
16.833,-0.869,0.482,0.008
16.843,-0.871,0.486,0.006
16.853,-0.873,0.480,0.006
16.863,-0.875,0.484,0.008
16.873,-0.873,0.486,0.008
16.883,-0.873,0.482,0.006
16.893,-0.871,0.484,0.010
16.903,-0.877,0.482,0.012
16.913,-0.869,0.480,0.012
16.923,-0.869,0.479,0.010
16.933,-0.869,0.479,0.010
16.943,-0.871,0.477,0.012
16.952,-0.871,0.479,0.012
16.962,-0.867,0.480,0.018
16.972,-0.871,0.482,0.014
16.982,-0.869,0.482,0.016
16.992,-0.871,0.486,0.018
17.002,-0.869,0.486,0.016
17.012,-0.871,0.484,0.020
17.022,-0.871,0.482,0.018
17.032,-0.867,0.482,0.016
17.042,-0.865,0.479,0.016
17.052,-0.865,0.482,0.018
17.062,-0.865,0.482,0.020
17.072,-0.861,0.479,0.016
17.082,-0.861,0.480,0.021
17.091,-0.861,0.482,0.020
17.101,-0.861,0.480,0.018
17.111,-0.861,0.475,0.016
17.121,-0.859,0.475,0.012
17.131,-0.865,0.479,0.014
17.141,-0.871,0.482,0.014
17.151,-0.873,0.486,0.010
17.161,-0.877,0.486,0.016
17.171,-0.875,0.488,0.014
17.181,-0.877,0.490,0.014
17.191,-0.873,0.484,0.014
17.201,-0.871,0.482,0.010
17.211,-0.871,0.477,0.014
17.220,-0.869,0.475,0.012
17.230,-0.869,0.473,0.018
17.240,-0.873,0.473,0.018
17.250,-0.871,0.475,0.018
17.260,-0.875,0.477,0.016
17.270,-0.877,0.482,0.018
17.280,-0.877,0.482,0.018
17.290,-0.873,0.482,0.018
17.300,-0.875,0.480,0.020
17.310,-0.877,0.480,0.018
17.320,-0.877,0.475,0.020
17.330,-0.871,0.479,0.018
17.340,-0.869,0.479,0.018
17.350,-0.869,0.482,0.021
17.359,-0.869,0.482,0.021
17.369,-0.867,0.482,0.023
17.379,-0.867,0.482,0.021
17.389,-0.867,0.480,0.018
17.399,-0.865,0.486,0.018
17.409,-0.865,0.486,0.018
17.419,-0.861,0.488,0.020
17.429,-0.863,0.490,0.018
17.439,-0.863,0.490,0.020
17.449,-0.865,0.494,0.021
17.459,-0.861,0.490,0.020
17.469,-0.865,0.486,0.020
17.479,-0.865,0.482,0.021
17.489,-0.865,0.480,0.016
17.498,-0.867,0.477,0.021
17.508,-0.871,0.479,0.020
17.518,-0.869,0.475,0.020
17.528,-0.873,0.475,0.016
17.538,-0.877,0.479,0.020
17.548,-0.875,0.477,0.018
17.558,-0.873,0.480,0.014
17.568,-0.873,0.479,0.016
17.578,-0.875,0.479,0.018
17.588,-0.873,0.480,0.016
17.598,-0.875,0.480,0.020
17.608,-0.871,0.477,0.018
17.618,-0.869,0.479,0.020
17.628,-0.869,0.477,0.016
17.637,-0.867,0.480,0.016
17.647,-0.871,0.477,0.016
17.657,-0.873,0.479,0.018
17.667,-0.869,0.479,0.014
17.677,-0.871,0.479,0.018
17.687,-0.871,0.482,0.014
17.697,-0.873,0.480,0.016
17.707,-0.875,0.479,0.016
17.717,-0.871,0.482,0.014
17.727,-0.875,0.477,0.012
17.737,-0.873,0.475,0.014
17.747,-0.871,0.475,0.014
17.757,-0.873,0.477,0.014
17.766,-0.873,0.480,0.014
17.776,-0.875,0.475,0.012
17.786,-0.879,0.475,0.016
17.796,-0.873,0.480,0.010
17.806,-0.873,0.484,0.012
17.816,-0.871,0.482,0.014
17.826,-0.867,0.480,0.014
17.836,-0.869,0.480,0.016
17.846,-0.871,0.484,0.014
17.856,-0.867,0.484,0.012
17.866,-0.867,0.484,0.016
17.876,-0.867,0.486,0.012
17.886,-0.865,0.482,0.012
17.896,-0.861,0.482,0.018
17.905,-0.863,0.479,0.012
17.915,-0.865,0.479,0.012
17.925,-0.867,0.482,0.016
17.935,-0.871,0.484,0.014
17.945,-0.871,0.488,0.010
17.955,-0.873,0.484,0.014
17.965,-0.871,0.484,0.010
17.975,-0.871,0.480,0.010
17.985,-0.871,0.480,0.010
17.995,-0.871,0.475,0.012
18.005,-0.873,0.473,0.010
18.015,-0.871,0.473,0.014
18.025,-0.873,0.477,0.010
18.035,-0.875,0.479,0.012
18.044,-0.875,0.484,0.008
18.054,-0.873,0.486,0.010
18.064,-0.875,0.482,0.012
18.074,-0.873,0.480,0.010
18.084,-0.871,0.477,0.012
18.094,-0.871,0.479,0.012
18.104,-0.869,0.475,0.012
18.114,-0.873,0.477,0.014
18.124,-0.871,0.480,0.014
18.134,-0.869,0.480,0.016
18.144,-0.869,0.480,0.016
18.154,-0.869,0.480,0.014
18.164,-0.865,0.482,0.016
18.173,-0.869,0.477,0.020
18.183,-0.867,0.475,0.016
18.193,-0.871,0.477,0.018
18.203,-0.869,0.477,0.014
18.213,-0.869,0.477,0.018
18.223,-0.869,0.479,0.016
18.233,-0.869,0.479,0.014
18.243,-0.875,0.482,0.014
18.253,-0.871,0.482,0.014
18.263,-0.873,0.486,0.012
18.273,-0.877,0.479,0.012
18.283,-0.877,0.480,0.012
18.293,-0.873,0.477,0.010
18.303,-0.873,0.477,0.010
18.312,-0.873,0.480,0.012
18.322,-0.871,0.479,0.006
18.332,-0.869,0.482,0.008
18.342,-0.869,0.484,0.012
18.352,-0.871,0.484,0.012
18.362,-0.871,0.480,0.010
18.372,-0.871,0.479,0.012
18.382,-0.867,0.480,0.010
18.392,-0.871,0.479,0.010
18.402,-0.869,0.482,0.010
18.412,-0.867,0.480,0.010
18.422,-0.867,0.484,0.010
18.432,-0.867,0.482,0.012
18.442,-0.867,0.482,0.010
18.451,-0.869,0.480,0.012
18.461,-0.869,0.479,0.012
18.471,-0.873,0.479,0.010
18.481,-0.869,0.475,0.012
18.491,-0.873,0.475,0.012
18.501,-0.869,0.477,0.012
18.511,-0.871,0.473,0.012
18.521,-0.875,0.473,0.010
18.531,-0.875,0.475,0.012
18.541,-0.875,0.475,0.012
18.551,-0.877,0.479,0.012
18.561,-0.879,0.479,0.012
18.571,-0.877,0.480,0.016
18.580,-0.879,0.475,0.014
18.590,-0.879,0.477,0.016
18.600,-0.875,0.479,0.018
18.610,-0.875,0.473,0.014
18.620,-0.873,0.473,0.016
18.630,-0.877,0.471,0.018
18.640,-0.871,0.475,0.018
18.650,-0.873,0.479,0.020
18.660,-0.869,0.477,0.020
18.670,-0.867,0.480,0.020
18.680,-0.869,0.480,0.020
18.690,-0.871,0.475,0.018
18.700,-0.869,0.473,0.014
18.710,-0.873,0.475,0.020
18.719,-0.871,0.480,0.016
18.729,-0.875,0.482,0.014
18.739,-0.873,0.480,0.016
18.749,-0.875,0.482,0.016
18.759,-0.875,0.480,0.018
18.769,-0.873,0.477,0.016
18.779,-0.873,0.475,0.014
18.789,-0.875,0.473,0.008
18.799,-0.877,0.469,0.010
18.809,-0.871,0.473,0.010
18.819,-0.875,0.475,0.010
18.829,-0.873,0.480,0.008
18.839,-0.875,0.479,0.012
18.849,-0.873,0.482,0.010
18.858,-0.875,0.482,0.012
18.868,-0.873,0.480,0.014
18.878,-0.873,0.480,0.012
18.888,-0.871,0.479,0.014
18.898,-0.871,0.475,0.016
18.908,-0.867,0.479,0.016
18.918,-0.867,0.479,0.018
18.928,-0.869,0.484,0.016
18.938,-0.867,0.486,0.016
18.948,-0.863,0.484,0.018
18.958,-0.861,0.480,0.020
18.968,-0.863,0.482,0.016
18.978,-0.867,0.482,0.018
18.988,-0.869,0.484,0.018
18.997,-0.869,0.480,0.018
19.007,-0.869,0.482,0.018
19.017,-0.871,0.482,0.020
19.027,-0.873,0.482,0.016
19.037,-0.875,0.475,0.018
19.047,-0.875,0.479,0.020
19.057,-0.877,0.482,0.020
19.067,-0.873,0.477,0.018
19.077,-0.875,0.480,0.018
19.087,-0.871,0.479,0.018
19.097,-0.869,0.479,0.018
19.107,-0.871,0.479,0.020
19.117,-0.869,0.479,0.014
19.126,-0.871,0.475,0.018
19.136,-0.867,0.477,0.012
19.146,-0.869,0.480,0.021
19.156,-0.869,0.480,0.016
19.166,-0.869,0.480,0.018
19.176,-0.871,0.475,0.016
19.186,-0.869,0.477,0.016
19.196,-0.873,0.477,0.014
19.206,-0.875,0.480,0.014
19.216,-0.875,0.479,0.012
19.226,-0.875,0.480,0.016
19.236,-0.873,0.479,0.010
19.246,-0.873,0.479,0.014
19.256,-0.871,0.475,0.018
19.265,-0.869,0.475,0.016
19.275,-0.871,0.473,0.016
19.285,-0.867,0.475,0.014
19.295,-0.869,0.475,0.014
19.305,-0.867,0.475,0.014
19.315,-0.865,0.477,0.014
19.325,-0.869,0.479,0.014
19.335,-0.873,0.477,0.016
19.345,-0.869,0.479,0.016
19.355,-0.873,0.477,0.018
19.365,-0.875,0.475,0.018
19.375,-0.879,0.473,0.018
19.385,-0.879,0.471,0.018
19.395,-0.887,0.477,0.012
19.404,-0.879,0.475,0.014
19.414,-0.881,0.473,0.016
19.424,-0.883,0.475,0.016
19.434,-0.879,0.477,0.016
19.444,-0.877,0.475,0.016
19.454,-0.879,0.473,0.016
19.464,-0.873,0.469,0.018
19.474,-0.881,0.471,0.018
19.484,-0.873,0.477,0.016
19.494,-0.875,0.482,0.018
19.504,-0.877,0.479,0.016
19.514,-0.873,0.482,0.016
19.524,-0.867,0.482,0.018
19.533,-0.871,0.482,0.014
19.543,-0.867,0.480,0.016
19.553,-0.867,0.480,0.014
19.563,-0.865,0.479,0.012
19.573,-0.867,0.480,0.016
19.583,-0.865,0.484,0.018
19.593,-0.867,0.486,0.010
19.603,-0.867,0.488,0.016
19.613,-0.865,0.488,0.014
19.623,-0.863,0.492,0.016
19.633,-0.863,0.492,0.014
19.643,-0.863,0.490,0.010
19.653,-0.863,0.492,0.016
19.663,-0.861,0.490,0.014
19.672,-0.865,0.492,0.016
19.682,-0.859,0.492,0.018
19.692,-0.861,0.492,0.018
19.702,-0.863,0.494,0.020
19.712,-0.859,0.490,0.018
19.722,-0.865,0.488,0.020
19.732,-0.861,0.484,0.023
19.742,-0.863,0.486,0.021
19.752,-0.865,0.484,0.020
19.762,-0.869,0.482,0.020
19.772,-0.867,0.479,0.016
19.782,-0.867,0.479,0.018
19.792,-0.867,0.479,0.018
19.802,-0.867,0.477,0.020
19.811,-0.869,0.477,0.020
19.821,-0.871,0.473,0.020
19.831,-0.873,0.473,0.020
19.841,-0.875,0.475,0.018
19.851,-0.875,0.473,0.018
19.861,-0.875,0.473,0.020
19.871,-0.873,0.475,0.021
19.881,-0.879,0.471,0.021
19.891,-0.879,0.469,0.020
19.901,-0.877,0.467,0.016
19.911,-0.877,0.469,0.016
19.921,-0.877,0.469,0.020
19.931,-0.879,0.471,0.020
19.940,-0.879,0.471,0.020
19.950,-0.879,0.473,0.018
19.960,-0.875,0.477,0.018
19.970,-0.879,0.473,0.016
19.980,-0.877,0.477,0.016
19.990,-0.879,0.477,0.014
20.000,-0.877,0.477,0.014
20.010,-0.873,0.475,0.016
20.020,-0.875,0.475,0.016
20.030,-0.875,0.473,0.014
20.040,-0.875,0.479,0.014
20.050,-0.873,0.480,0.012
20.060,-0.873,0.479,0.012
20.070,-0.875,0.477,0.018
20.079,-0.869,0.480,0.014
20.089,-0.871,0.477,0.014
20.099,-0.869,0.480,0.012
20.109,-0.869,0.480,0.012
20.119,-0.873,0.482,0.012
20.129,-0.873,0.484,0.012
20.139,-0.871,0.486,0.014
20.149,-0.873,0.488,0.014
20.159,-0.875,0.488,0.014
20.169,-0.871,0.484,0.012
20.179,-0.871,0.486,0.016
20.189,-0.871,0.484,0.016
20.199,-0.871,0.484,0.012
20.209,-0.867,0.482,0.014
20.218,-0.865,0.482,0.018
20.228,-0.865,0.482,0.016
20.238,-0.867,0.482,0.014
20.248,-0.859,0.475,0.014
20.258,-0.861,0.477,0.016
20.268,-0.867,0.480,0.016
20.278,-0.867,0.484,0.016
20.288,-0.869,0.484,0.012
20.298,-0.871,0.482,0.014
20.308,-0.869,0.480,0.014
20.318,-0.873,0.482,0.016
20.328,-0.873,0.479,0.014
20.338,-0.873,0.473,0.012
20.347,-0.877,0.473,0.014
20.357,-0.875,0.471,0.012
20.367,-0.877,0.473,0.012
20.377,-0.875,0.473,0.012
20.387,-0.875,0.475,0.012
20.397,-0.875,0.477,0.010
20.407,-0.877,0.475,0.010
20.417,-0.873,0.475,0.012
20.427,-0.875,0.477,0.010
20.437,-0.877,0.477,0.014
20.447,-0.875,0.477,0.010
20.457,-0.875,0.477,0.012
20.467,-0.871,0.473,0.012
20.477,-0.869,0.475,0.014
20.486,-0.873,0.480,0.012
20.496,-0.871,0.480,0.016
20.506,-0.873,0.479,0.014
20.516,-0.869,0.479,0.014
20.526,-0.867,0.479,0.014
20.536,-0.871,0.477,0.016
20.546,-0.873,0.480,0.014
20.556,-0.871,0.477,0.014
20.566,-0.871,0.480,0.016
20.576,-0.873,0.480,0.014
20.586,-0.875,0.480,0.016
20.596,-0.869,0.479,0.014
20.606,-0.871,0.479,0.012
20.616,-0.869,0.479,0.014
20.625,-0.871,0.477,0.014
20.635,-0.871,0.479,0.012
20.645,-0.869,0.479,0.012
20.655,-0.871,0.479,0.014
20.665,-0.875,0.479,0.014
20.675,-0.873,0.479,0.010
20.685,-0.873,0.479,0.012
20.695,-0.873,0.480,0.010
20.705,-0.875,0.480,0.010
20.715,-0.873,0.480,0.014
20.725,-0.873,0.480,0.008
20.735,-0.869,0.480,0.010
20.745,-0.869,0.479,0.008
20.755,-0.867,0.479,0.010
20.764,-0.871,0.479,0.010
20.774,-0.865,0.480,0.010
20.784,-0.871,0.482,0.010
20.794,-0.867,0.480,0.012
20.804,-0.873,0.480,0.010
20.814,-0.871,0.479,0.016
20.824,-0.873,0.475,0.010
20.834,-0.873,0.473,0.014
20.844,-0.871,0.475,0.014
20.854,-0.871,0.475,0.016
20.864,-0.873,0.475,0.016
20.874,-0.873,0.477,0.020
20.884,-0.875,0.477,0.016
20.893,-0.877,0.475,0.016
20.903,-0.875,0.475,0.012
20.913,-0.877,0.475,0.014
20.923,-0.875,0.475,0.014
20.933,-0.879,0.473,0.014
20.943,-0.877,0.475,0.012
20.953,-0.877,0.475,0.012
20.963,-0.877,0.479,0.012
20.973,-0.875,0.475,0.012
20.983,-0.875,0.479,0.014
20.993,-0.873,0.479,0.016
21.003,-0.873,0.477,0.012
21.013,-0.875,0.477,0.016
21.023,-0.875,0.477,0.010
21.032,-0.873,0.475,0.012
21.042,-0.873,0.477,0.014
21.052,-0.871,0.475,0.014
21.062,-0.869,0.473,0.010
21.072,-0.873,0.475,0.014
21.082,-0.873,0.477,0.014
21.092,-0.873,0.480,0.012
21.102,-0.875,0.482,0.010
21.112,-0.873,0.482,0.010
21.122,-0.877,0.484,0.014
21.132,-0.875,0.482,0.012
21.142,-0.873,0.482,0.012
21.152,-0.873,0.480,0.014
21.162,-0.873,0.475,0.012
21.171,-0.873,0.477,0.014
21.181,-0.867,0.480,0.014
21.191,-0.867,0.484,0.012
21.201,-0.871,0.484,0.016
21.211,-0.869,0.484,0.016
21.221,-0.863,0.479,0.016
21.231,-0.865,0.473,0.016
21.241,-0.867,0.479,0.018
21.251,-0.867,0.479,0.014
21.261,-0.869,0.480,0.016
21.271,-0.871,0.479,0.014
21.281,-0.873,0.480,0.016
21.291,-0.873,0.479,0.014
21.300,-0.873,0.473,0.014
21.310,-0.877,0.471,0.014
21.320,-0.879,0.471,0.012
21.330,-0.881,0.469,0.010
21.340,-0.883,0.469,0.012
21.350,-0.879,0.471,0.012
21.360,-0.881,0.471,0.012
21.370,-0.881,0.475,0.012
21.380,-0.881,0.475,0.014
21.390,-0.879,0.477,0.014
21.400,-0.881,0.479,0.016
21.410,-0.879,0.479,0.016
21.420,-0.879,0.475,0.014
21.430,-0.875,0.475,0.018
21.439,-0.871,0.473,0.012
21.449,-0.869,0.473,0.012
21.459,-0.867,0.479,0.016
21.469,-0.869,0.484,0.016
21.479,-0.867,0.479,0.018
21.489,-0.865,0.482,0.016
21.499,-0.867,0.480,0.018
21.509,-0.867,0.484,0.016
21.519,-0.871,0.482,0.016
21.529,-0.865,0.484,0.016
21.539,-0.867,0.484,0.016
21.549,-0.869,0.480,0.014
21.559,-0.869,0.482,0.014
21.569,-0.869,0.480,0.014
21.578,-0.871,0.480,0.008
21.588,-0.873,0.480,0.012
21.598,-0.871,0.480,0.012
21.608,-0.875,0.482,0.012
21.618,-0.875,0.482,0.012
21.628,-0.873,0.484,0.008
21.638,-0.867,0.482,0.012
21.648,-0.871,0.480,0.008
21.658,-0.869,0.482,0.010
21.668,-0.871,0.480,0.010
21.678,-0.869,0.479,0.008
21.688,-0.869,0.480,0.012
21.698,-0.869,0.479,0.012
21.707,-0.873,0.480,0.012
21.717,-0.873,0.482,0.012
21.727,-0.871,0.479,0.012
21.737,-0.869,0.480,0.014
21.747,-0.871,0.475,0.010
21.757,-0.871,0.475,0.014
21.767,-0.873,0.473,0.012
21.777,-0.875,0.477,0.010
21.787,-0.875,0.475,0.012
21.797,-0.875,0.477,0.010
21.807,-0.875,0.475,0.012
21.817,-0.875,0.473,0.012
21.827,-0.875,0.477,0.012
21.837,-0.877,0.479,0.012
21.846,-0.875,0.475,0.014
21.856,-0.875,0.473,0.008
21.866,-0.875,0.475,0.012
21.876,-0.877,0.477,0.010
21.886,-0.877,0.477,0.010
21.896,-0.875,0.479,0.012
21.906,-0.875,0.479,0.012
21.916,-0.871,0.479,0.010
21.926,-0.875,0.479,0.012
21.936,-0.871,0.475,0.012
21.946,-0.871,0.475,0.016
21.956,-0.871,0.471,0.016
21.966,-0.873,0.477,0.014
21.976,-0.873,0.473,0.014
21.985,-0.871,0.479,0.012
21.995,-0.873,0.479,0.012
22.005,-0.873,0.477,0.014
22.015,-0.873,0.480,0.010
22.025,-0.873,0.477,0.012
22.035,-0.871,0.480,0.012
22.045,-0.871,0.477,0.016
22.055,-0.871,0.482,0.014
22.065,-0.871,0.480,0.014
22.075,-0.871,0.480,0.016
22.085,-0.871,0.480,0.018
22.095,-0.871,0.479,0.014
22.105,-0.869,0.484,0.014
22.115,-0.875,0.480,0.014
22.124,-0.875,0.477,0.018
22.134,-0.881,0.475,0.012
22.144,-0.877,0.473,0.014
22.154,-0.875,0.475,0.014
22.164,-0.871,0.475,0.014
22.174,-0.869,0.475,0.016
22.184,-0.867,0.477,0.014
22.194,-0.865,0.475,0.014
22.204,-0.869,0.475,0.016
22.214,-0.869,0.477,0.016
22.224,-0.871,0.477,0.014
22.234,-0.871,0.477,0.010
22.244,-0.869,0.477,0.014
22.253,-0.869,0.482,0.010
22.263,-0.867,0.484,0.014
22.273,-0.869,0.486,0.016
22.283,-0.871,0.486,0.016
22.293,-0.871,0.484,0.016
22.303,-0.875,0.488,0.016
22.313,-0.875,0.486,0.018
22.323,-0.877,0.482,0.018
22.333,-0.877,0.477,0.021
22.343,-0.875,0.475,0.021
22.353,-0.873,0.473,0.020
22.363,-0.875,0.477,0.020
22.373,-0.869,0.473,0.023
22.383,-0.867,0.475,0.023
22.392,-0.869,0.473,0.018
22.402,-0.871,0.467,0.020
22.412,-0.875,0.473,0.023
22.422,-0.873,0.475,0.020
22.432,-0.875,0.479,0.020
22.442,-0.873,0.477,0.021
22.452,-0.879,0.477,0.018
22.462,-0.881,0.475,0.018
22.472,-0.881,0.475,0.018
22.482,-0.877,0.475,0.016
22.492,-0.877,0.477,0.018
22.502,-0.877,0.479,0.016
22.512,-0.875,0.477,0.014
22.522,-0.873,0.477,0.016
22.531,-0.873,0.480,0.018
22.541,-0.871,0.482,0.018
22.551,-0.873,0.484,0.014
22.561,-0.867,0.484,0.016
22.571,-0.863,0.484,0.016
22.581,-0.863,0.486,0.016
22.591,-0.861,0.484,0.016
22.601,-0.865,0.484,0.018
22.611,-0.861,0.484,0.016
22.621,-0.867,0.486,0.020
22.631,-0.865,0.488,0.014
22.641,-0.865,0.488,0.020
22.651,-0.861,0.486,0.018
22.660,-0.865,0.484,0.016
22.670,-0.863,0.486,0.018
22.680,-0.859,0.486,0.020
22.690,-0.861,0.484,0.020
22.700,-0.857,0.484,0.016
22.710,-0.865,0.480,0.020
22.720,-0.871,0.486,0.021
22.730,-0.873,0.484,0.018
22.740,-0.875,0.486,0.020
22.750,-0.877,0.484,0.021
22.760,-0.877,0.484,0.018
22.770,-0.879,0.479,0.018
22.780,-0.881,0.480,0.018
22.790,-0.877,0.479,0.016
22.799,-0.877,0.484,0.018
22.809,-0.875,0.482,0.018
22.819,-0.875,0.482,0.020
22.829,-0.871,0.482,0.020
22.839,-0.867,0.482,0.021
22.849,-0.863,0.480,0.018
22.859,-0.865,0.479,0.018
22.869,-0.867,0.480,0.018
22.879,-0.869,0.479,0.016
22.889,-0.869,0.477,0.018
22.899,-0.875,0.477,0.014
22.909,-0.875,0.479,0.014
22.919,-0.875,0.477,0.018
22.929,-0.873,0.477,0.016
22.938,-0.873,0.480,0.016
22.948,-0.873,0.482,0.012
22.958,-0.873,0.480,0.016
22.968,-0.875,0.482,0.014
22.978,-0.875,0.486,0.014
22.988,-0.875,0.488,0.020
22.998,-0.881,0.486,0.020
23.008,-0.875,0.484,0.016
23.018,-0.875,0.486,0.018
23.028,-0.869,0.479,0.020
23.038,-0.873,0.477,0.016
23.048,-0.875,0.482,0.020
23.058,-0.871,0.482,0.018
23.067,-0.861,0.482,0.023
23.077,-0.859,0.490,0.023
23.087,-0.865,0.490,0.025
23.097,-0.861,0.490,0.029
23.107,-0.863,0.488,0.025
23.117,-0.861,0.484,0.027
23.127,-0.865,0.486,0.029
23.137,-0.867,0.486,0.027
23.147,-0.871,0.482,0.033
23.157,-0.875,0.488,0.033
23.167,-0.875,0.484,0.033
23.177,-0.879,0.484,0.035
23.187,-0.879,0.488,0.037
23.197,-0.879,0.484,0.029
23.206,-0.875,0.480,0.031
23.216,-0.865,0.480,0.029
23.226,-0.865,0.486,0.029
23.236,-0.859,0.488,0.031
23.246,-0.854,0.492,0.033
23.256,-0.850,0.500,0.035
23.266,-0.846,0.502,0.031
23.276,-0.854,0.498,0.025
23.286,-0.852,0.504,0.031
23.296,-0.848,0.500,0.037
23.306,-0.852,0.494,0.031
23.316,-0.850,0.490,0.035
23.326,-0.850,0.494,0.037
23.336,-0.854,0.496,0.031
23.345,-0.854,0.496,0.031
23.355,-0.855,0.496,0.035
23.365,-0.852,0.492,0.031
23.375,-0.857,0.494,0.031
23.385,-0.857,0.494,0.037
23.395,-0.859,0.496,0.033
23.405,-0.863,0.492,0.029
23.415,-0.863,0.492,0.029
23.425,-0.867,0.488,0.033
23.435,-0.865,0.486,0.031
23.445,-0.865,0.488,0.033
23.455,-0.867,0.488,0.033
23.465,-0.869,0.488,0.031
23.474,-0.871,0.490,0.033
23.484,-0.869,0.490,0.031
23.494,-0.871,0.492,0.031
23.504,-0.869,0.496,0.035
23.514,-0.871,0.494,0.027
23.524,-0.869,0.492,0.031
23.534,-0.863,0.494,0.031
23.544,-0.863,0.490,0.033
23.554,-0.861,0.490,0.033
23.564,-0.861,0.488,0.031
23.574,-0.861,0.490,0.035
23.584,-0.861,0.496,0.033
23.594,-0.861,0.496,0.035
23.604,-0.859,0.496,0.031
23.613,-0.857,0.496,0.033
23.623,-0.854,0.496,0.035
23.633,-0.855,0.490,0.033
23.643,-0.859,0.490,0.031
23.653,-0.859,0.492,0.033
23.663,-0.859,0.496,0.031
23.673,-0.863,0.498,0.029
23.683,-0.863,0.496,0.033
23.693,-0.865,0.496,0.031
23.703,-0.863,0.490,0.031
23.713,-0.863,0.490,0.025
23.723,-0.863,0.488,0.027
23.733,-0.869,0.484,0.029
23.743,-0.871,0.482,0.029
23.752,-0.869,0.480,0.033
23.762,-0.869,0.486,0.031
23.772,-0.871,0.486,0.029
23.782,-0.869,0.490,0.027
23.792,-0.871,0.496,0.029
23.802,-0.869,0.494,0.027
23.812,-0.867,0.492,0.029
23.822,-0.869,0.490,0.029
23.832,-0.865,0.494,0.029
23.842,-0.861,0.490,0.029
23.852,-0.865,0.488,0.029
23.862,-0.863,0.492,0.029
23.872,-0.859,0.490,0.027
23.882,-0.863,0.492,0.029
23.891,-0.857,0.494,0.027
23.901,-0.859,0.490,0.033
23.911,-0.855,0.490,0.029
23.921,-0.859,0.494,0.031
23.931,-0.861,0.492,0.029
23.941,-0.861,0.486,0.029
23.951,-0.863,0.494,0.029
23.961,-0.863,0.490,0.029
23.971,-0.863,0.490,0.027
23.981,-0.865,0.488,0.027
23.991,-0.865,0.484,0.029
24.001,-0.863,0.490,0.027
24.011,-0.869,0.488,0.029
24.020,-0.865,0.490,0.027
24.030,-0.865,0.492,0.025
24.040,-0.873,0.490,0.021
24.050,-0.869,0.490,0.023
24.060,-0.865,0.494,0.029
24.070,-0.863,0.490,0.027
24.080,-0.863,0.488,0.027
24.090,-0.863,0.484,0.025
24.100,-0.863,0.486,0.027
24.110,-0.863,0.486,0.025
24.120,-0.867,0.490,0.023
24.130,-0.865,0.490,0.025
24.140,-0.863,0.496,0.023
24.150,-0.863,0.494,0.025
24.159,-0.867,0.492,0.023
24.169,-0.865,0.486,0.021
24.179,-0.865,0.492,0.023
24.189,-0.865,0.486,0.023
24.199,-0.869,0.486,0.023
24.209,-0.869,0.486,0.027
24.219,-0.869,0.484,0.023
24.229,-0.869,0.488,0.025
24.239,-0.873,0.488,0.023
24.249,-0.871,0.486,0.025
24.259,-0.869,0.486,0.029
24.269,-0.869,0.486,0.027
24.279,-0.869,0.484,0.029
24.289,-0.871,0.486,0.027
24.298,-0.869,0.488,0.027
24.308,-0.865,0.486,0.029
24.318,-0.865,0.484,0.027
24.328,-0.865,0.484,0.033
24.338,-0.865,0.488,0.029
24.348,-0.861,0.492,0.027
24.358,-0.863,0.490,0.027
24.368,-0.861,0.490,0.033
24.378,-0.863,0.492,0.031
24.388,-0.863,0.488,0.033
24.398,-0.863,0.482,0.027
24.408,-0.863,0.480,0.029
24.418,-0.867,0.482,0.029
24.427,-0.869,0.488,0.021
24.437,-0.871,0.486,0.027
24.447,-0.869,0.488,0.029
24.457,-0.871,0.490,0.027
24.467,-0.867,0.490,0.027
24.477,-0.869,0.492,0.025
24.487,-0.865,0.490,0.027
24.497,-0.867,0.492,0.021
24.507,-0.869,0.492,0.020
24.517,-0.865,0.492,0.027
24.527,-0.869,0.494,0.029
24.537,-0.871,0.490,0.037
24.547,-0.869,0.486,0.031
24.557,-0.859,0.484,0.035
24.566,-0.863,0.484,0.031
24.576,-0.863,0.484,0.033
24.586,-0.865,0.486,0.033
24.596,-0.863,0.494,0.029
24.606,-0.863,0.492,0.029
24.616,-0.861,0.496,0.035
24.626,-0.861,0.492,0.031
24.636,-0.865,0.490,0.031
24.646,-0.859,0.488,0.031
24.656,-0.861,0.482,0.029
24.666,-0.871,0.482,0.027
24.676,-0.865,0.480,0.027
24.686,-0.873,0.484,0.027
24.696,-0.871,0.488,0.027
24.705,-0.869,0.492,0.029
24.715,-0.869,0.496,0.029
24.725,-0.865,0.492,0.033
24.735,-0.865,0.494,0.027
24.745,-0.859,0.492,0.031
24.755,-0.865,0.486,0.033
24.765,-0.861,0.486,0.035
24.775,-0.859,0.488,0.037
24.785,-0.857,0.490,0.035
24.795,-0.861,0.492,0.031
24.805,-0.861,0.494,0.031
24.815,-0.859,0.494,0.033
24.825,-0.857,0.492,0.033
24.834,-0.859,0.492,0.031
24.844,-0.863,0.494,0.033
24.854,-0.861,0.492,0.033
24.864,-0.869,0.488,0.029
24.874,-0.867,0.488,0.029
24.884,-0.867,0.492,0.031
24.894,-0.871,0.494,0.029
24.904,-0.873,0.488,0.027
24.914,-0.871,0.488,0.027
24.924,-0.869,0.488,0.029
24.934,-0.867,0.488,0.031
24.944,-0.869,0.490,0.027
24.954,-0.865,0.488,0.029
24.964,-0.865,0.486,0.027
24.973,-0.867,0.494,0.025
24.983,-0.869,0.488,0.025
24.993,-0.865,0.492,0.029
25.003,-0.865,0.492,0.029
25.013,-0.867,0.494,0.025
25.023,-0.861,0.490,0.025
25.033,-0.867,0.490,0.025
25.043,-0.863,0.492,0.025
25.053,-0.861,0.490,0.025
25.063,-0.861,0.490,0.025
25.073,-0.865,0.490,0.029
25.083,-0.865,0.488,0.025
25.093,-0.865,0.486,0.029
25.103,-0.865,0.486,0.027
25.112,-0.871,0.484,0.027
25.122,-0.867,0.488,0.031
25.132,-0.869,0.488,0.025
25.142,-0.871,0.486,0.025
25.152,-0.865,0.486,0.021
25.162,-0.865,0.482,0.025
25.172,-0.867,0.482,0.021
25.182,-0.863,0.482,0.025
25.192,-0.863,0.484,0.025
25.202,-0.863,0.486,0.027
25.212,-0.865,0.490,0.027
25.222,-0.867,0.492,0.025
25.232,-0.869,0.496,0.025
25.242,-0.869,0.494,0.025
25.251,-0.871,0.494,0.027
25.261,-0.867,0.490,0.025
25.271,-0.865,0.486,0.023
25.281,-0.863,0.490,0.025
25.291,-0.861,0.488,0.023
25.301,-0.865,0.488,0.021
25.311,-0.863,0.490,0.023
25.321,-0.863,0.492,0.023
25.331,-0.865,0.494,0.021
25.341,-0.865,0.494,0.021
25.351,-0.863,0.492,0.020
25.361,-0.863,0.494,0.023
25.371,-0.863,0.492,0.023
25.380,-0.865,0.490,0.020
25.390,-0.863,0.488,0.023
25.400,-0.865,0.484,0.023
25.410,-0.867,0.486,0.021
25.420,-0.861,0.484,0.020
25.430,-0.863,0.486,0.023
25.440,-0.867,0.492,0.027
25.450,-0.871,0.498,0.023
25.460,-0.871,0.494,0.023
25.470,-0.869,0.488,0.029
25.480,-0.867,0.482,0.029
25.490,-0.871,0.484,0.029
25.500,-0.871,0.490,0.027
25.510,-0.869,0.488,0.031
25.519,-0.871,0.482,0.029
25.529,-0.871,0.484,0.031
25.539,-0.869,0.484,0.031
25.549,-0.865,0.480,0.029
25.559,-0.871,0.477,0.031
25.569,-0.871,0.479,0.029
25.579,-0.867,0.482,0.029
25.589,-0.869,0.484,0.027
25.599,-0.867,0.486,0.025
25.609,-0.865,0.490,0.025
25.619,-0.869,0.492,0.021
25.629,-0.865,0.492,0.027
25.639,-0.861,0.492,0.025
25.649,-0.861,0.492,0.031
25.658,-0.863,0.488,0.029
25.668,-0.863,0.484,0.031
25.678,-0.859,0.488,0.031
25.688,-0.863,0.488,0.031
25.698,-0.865,0.492,0.035
25.708,-0.867,0.492,0.031
25.718,-0.865,0.492,0.033
25.728,-0.861,0.490,0.035
25.738,-0.859,0.492,0.035
25.748,-0.859,0.494,0.033
25.758,-0.855,0.496,0.037
25.768,-0.859,0.492,0.035
25.778,-0.859,0.488,0.037
25.787,-0.861,0.486,0.037
25.797,-0.861,0.492,0.033
25.807,-0.859,0.488,0.033
25.817,-0.861,0.488,0.033
25.827,-0.865,0.486,0.031
25.837,-0.865,0.486,0.037
25.847,-0.865,0.488,0.033
25.857,-0.867,0.490,0.031
25.867,-0.867,0.488,0.031
25.877,-0.867,0.490,0.033
25.887,-0.869,0.486,0.031
25.897,-0.869,0.486,0.035
25.907,-0.861,0.484,0.035
25.917,-0.867,0.484,0.033
25.926,-0.867,0.484,0.031
25.936,-0.865,0.484,0.035
25.946,-0.867,0.484,0.035
25.956,-0.867,0.484,0.031
25.966,-0.867,0.486,0.035
25.976,-0.869,0.486,0.029
25.986,-0.871,0.482,0.035
25.996,-0.871,0.486,0.033
26.006,-0.871,0.480,0.033
26.016,-0.871,0.484,0.031
26.026,-0.871,0.484,0.027
26.036,-0.867,0.484,0.033
26.046,-0.869,0.484,0.029
26.056,-0.865,0.486,0.033
26.065,-0.867,0.484,0.029
26.075,-0.867,0.486,0.031
26.085,-0.867,0.488,0.031
26.095,-0.865,0.486,0.035
26.105,-0.867,0.486,0.031
26.115,-0.869,0.490,0.033
26.125,-0.865,0.490,0.027
26.135,-0.867,0.488,0.031
26.145,-0.865,0.490,0.033
26.155,-0.867,0.488,0.031
26.165,-0.865,0.484,0.035
26.175,-0.865,0.484,0.033
26.185,-0.863,0.484,0.033
26.194,-0.861,0.488,0.035
26.204,-0.867,0.486,0.031
26.214,-0.863,0.490,0.037
26.224,-0.863,0.490,0.033
26.234,-0.865,0.488,0.031
26.244,-0.859,0.488,0.035
26.254,-0.865,0.486,0.029
26.264,-0.867,0.486,0.033
26.274,-0.869,0.488,0.029
26.284,-0.869,0.492,0.029
26.294,-0.873,0.492,0.029
26.304,-0.869,0.490,0.029
26.314,-0.869,0.490,0.029
26.324,-0.867,0.492,0.031
26.333,-0.871,0.484,0.029
26.343,-0.869,0.480,0.029
26.353,-0.871,0.482,0.031
26.363,-0.867,0.484,0.029
26.373,-0.871,0.482,0.033
26.383,-0.869,0.484,0.031
26.393,-0.867,0.486,0.035
26.403,-0.869,0.486,0.035
26.413,-0.867,0.488,0.035
26.423,-0.865,0.486,0.035
26.433,-0.865,0.488,0.035
26.443,-0.863,0.484,0.035
26.453,-0.865,0.484,0.031
26.463,-0.867,0.488,0.033
26.472,-0.865,0.486,0.033
26.482,-0.865,0.486,0.033
26.492,-0.863,0.486,0.033
26.502,-0.865,0.490,0.035
26.512,-0.863,0.486,0.033
26.522,-0.863,0.484,0.033
26.532,-0.865,0.486,0.029
26.542,-0.863,0.490,0.033
26.552,-0.865,0.490,0.031
26.562,-0.863,0.494,0.031
26.572,-0.863,0.490,0.031
26.582,-0.865,0.496,0.031
26.592,-0.863,0.494,0.033
26.601,-0.865,0.492,0.029
26.611,-0.863,0.482,0.033
26.621,-0.865,0.486,0.033
26.631,-0.863,0.486,0.033
26.641,-0.867,0.486,0.033
26.651,-0.867,0.486,0.033
26.661,-0.865,0.486,0.035
26.671,-0.865,0.486,0.033
26.681,-0.867,0.488,0.033
26.691,-0.871,0.486,0.033
26.701,-0.873,0.486,0.029
26.711,-0.871,0.484,0.031
26.721,-0.871,0.484,0.033
26.731,-0.869,0.482,0.029
26.740,-0.871,0.484,0.027
26.750,-0.869,0.486,0.029
26.760,-0.869,0.484,0.029
26.770,-0.867,0.486,0.029
26.780,-0.863,0.492,0.033
26.790,-0.861,0.490,0.031
26.800,-0.865,0.492,0.031
26.810,-0.867,0.492,0.029
26.820,-0.865,0.488,0.029
26.830,-0.865,0.488,0.031
26.840,-0.863,0.490,0.031
26.850,-0.865,0.484,0.031
26.860,-0.863,0.480,0.031
26.870,-0.865,0.482,0.031
26.879,-0.867,0.482,0.033
26.889,-0.871,0.484,0.035
26.899,-0.867,0.484,0.031
26.909,-0.873,0.482,0.035
26.919,-0.875,0.479,0.033
26.929,-0.877,0.484,0.033
26.939,-0.877,0.482,0.033
26.949,-0.877,0.484,0.033
26.959,-0.877,0.479,0.033
26.969,-0.873,0.477,0.033
26.979,-0.877,0.482,0.033
26.989,-0.873,0.482,0.035
26.999,-0.865,0.486,0.035
27.009,-0.863,0.488,0.033
27.018,-0.859,0.490,0.033
27.028,-0.859,0.484,0.031
27.038,-0.857,0.480,0.029
27.048,-0.861,0.484,0.029
27.058,-0.863,0.492,0.031
27.068,-0.867,0.494,0.031
27.078,-0.863,0.498,0.031
27.088,-0.861,0.496,0.031
27.098,-0.865,0.490,0.035
27.108,-0.865,0.488,0.033
27.118,-0.867,0.480,0.033
27.128,-0.873,0.477,0.037
27.138,-0.875,0.475,0.029
27.147,-0.875,0.471,0.033
27.157,-0.879,0.475,0.031
27.167,-0.881,0.479,0.029
27.177,-0.877,0.484,0.029
27.187,-0.875,0.488,0.029
27.197,-0.873,0.490,0.033
27.207,-0.871,0.492,0.031
27.217,-0.869,0.488,0.031
27.227,-0.867,0.490,0.031
27.237,-0.863,0.486,0.029
27.247,-0.863,0.486,0.027
27.257,-0.861,0.490,0.033
27.267,-0.857,0.488,0.031
27.277,-0.855,0.492,0.033
27.286,-0.857,0.496,0.035
27.296,-0.855,0.492,0.033
27.306,-0.855,0.488,0.033
27.316,-0.859,0.492,0.033
27.326,-0.863,0.490,0.035
27.336,-0.865,0.490,0.033
27.346,-0.865,0.488,0.035
27.356,-0.867,0.488,0.037
27.366,-0.871,0.488,0.035
27.376,-0.871,0.484,0.029
27.386,-0.871,0.480,0.035
27.396,-0.875,0.479,0.035
27.406,-0.873,0.477,0.035
27.416,-0.875,0.477,0.031
27.425,-0.875,0.479,0.031
27.435,-0.871,0.482,0.033
27.445,-0.873,0.488,0.031
27.455,-0.867,0.486,0.031
27.465,-0.869,0.488,0.033
27.475,-0.867,0.490,0.031
27.485,-0.865,0.486,0.031
27.495,-0.863,0.486,0.033
27.505,-0.867,0.486,0.027
27.515,-0.867,0.480,0.031
27.525,-0.865,0.484,0.031
27.535,-0.867,0.482,0.031
27.545,-0.869,0.484,0.029
27.554,-0.871,0.482,0.029
27.564,-0.869,0.484,0.033
27.574,-0.867,0.488,0.033
27.584,-0.867,0.484,0.033
27.594,-0.869,0.484,0.031
27.604,-0.869,0.482,0.027
27.614,-0.871,0.482,0.029
27.624,-0.871,0.484,0.029
27.634,-0.873,0.486,0.029
27.644,-0.869,0.488,0.033
27.654,-0.869,0.486,0.029
27.664,-0.869,0.486,0.031
27.674,-0.869,0.482,0.027
27.684,-0.865,0.484,0.029
27.693,-0.865,0.486,0.029
27.703,-0.865,0.488,0.033
27.713,-0.865,0.480,0.029
27.723,-0.869,0.484,0.033
27.733,-0.869,0.486,0.035
27.743,-0.879,0.480,0.025
27.753,-0.881,0.484,0.031
27.763,-0.883,0.486,0.031
27.773,-0.877,0.486,0.039
27.783,-0.881,0.486,0.035
27.793,-0.877,0.480,0.037
27.803,-0.867,0.480,0.041
27.813,-0.863,0.480,0.037
27.823,-0.863,0.480,0.039
27.832,-0.865,0.479,0.035
27.842,-0.859,0.482,0.041
27.852,-0.852,0.486,0.039
27.862,-0.854,0.492,0.041
27.872,-0.855,0.488,0.039
27.882,-0.859,0.484,0.035
27.892,-0.863,0.484,0.033
27.902,-0.867,0.488,0.035
27.912,-0.869,0.488,0.031
27.922,-0.873,0.486,0.029
27.932,-0.877,0.484,0.023
27.942,-0.873,0.486,0.029
27.952,-0.877,0.479,0.029
27.961,-0.867,0.480,0.029
27.971,-0.871,0.475,0.031
27.981,-0.871,0.477,0.029
27.991,-0.875,0.475,0.031
28.001,-0.871,0.482,0.031
28.011,-0.875,0.486,0.033
28.021,-0.873,0.484,0.029
28.031,-0.873,0.484,0.031
28.041,-0.879,0.480,0.023
28.051,-0.873,0.484,0.033
28.061,-0.871,0.482,0.033
28.071,-0.869,0.480,0.033
28.081,-0.871,0.480,0.029
28.091,-0.867,0.480,0.033
28.100,-0.869,0.484,0.033
28.110,-0.865,0.484,0.029
28.120,-0.867,0.484,0.035
28.130,-0.863,0.482,0.029
28.140,-0.865,0.486,0.027
28.150,-0.865,0.488,0.033
28.160,-0.867,0.488,0.029
28.170,-0.863,0.492,0.029
28.180,-0.867,0.490,0.029
28.190,-0.869,0.492,0.031
28.200,-0.863,0.490,0.029
28.210,-0.865,0.488,0.029
28.220,-0.867,0.486,0.027
28.230,-0.865,0.488,0.027
28.239,-0.865,0.484,0.031
28.249,-0.867,0.486,0.033
28.259,-0.865,0.490,0.029
28.269,-0.869,0.486,0.029
28.279,-0.863,0.490,0.027
28.289,-0.869,0.488,0.029
28.299,-0.867,0.486,0.029
28.309,-0.865,0.486,0.031
28.319,-0.865,0.486,0.029
28.329,-0.867,0.484,0.033
28.339,-0.869,0.488,0.031
28.349,-0.869,0.490,0.031
28.359,-0.867,0.488,0.031
28.369,-0.869,0.486,0.033
28.378,-0.869,0.484,0.029
28.388,-0.869,0.482,0.027
28.398,-0.867,0.482,0.027
28.408,-0.871,0.482,0.031
28.418,-0.871,0.482,0.029
28.428,-0.871,0.482,0.031
28.438,-0.871,0.486,0.031
28.448,-0.871,0.484,0.027
28.458,-0.869,0.484,0.029
28.468,-0.871,0.480,0.029
28.478,-0.869,0.480,0.027
28.488,-0.865,0.479,0.029
28.498,-0.867,0.482,0.031
28.507,-0.871,0.482,0.031
28.517,-0.869,0.484,0.029
28.527,-0.871,0.484,0.031
28.537,-0.871,0.482,0.027
28.547,-0.869,0.484,0.031
28.557,-0.869,0.486,0.033
28.567,-0.871,0.486,0.031
28.577,-0.865,0.484,0.031
28.587,-0.869,0.484,0.031
28.597,-0.867,0.486,0.033
28.607,-0.871,0.486,0.031
28.617,-0.867,0.484,0.029
28.627,-0.865,0.480,0.027
28.637,-0.865,0.488,0.031
28.646,-0.867,0.484,0.027
28.656,-0.863,0.486,0.031
28.666,-0.863,0.492,0.031
28.676,-0.863,0.494,0.031
28.686,-0.869,0.492,0.033
28.696,-0.861,0.488,0.033
28.706,-0.861,0.484,0.033
28.716,-0.863,0.484,0.033
28.726,-0.869,0.490,0.033
28.736,-0.869,0.488,0.029
28.746,-0.869,0.484,0.031
28.756,-0.869,0.486,0.031
28.766,-0.869,0.486,0.033
28.776,-0.869,0.484,0.029
28.785,-0.869,0.480,0.027
28.795,-0.869,0.477,0.029
28.805,-0.871,0.480,0.031
28.815,-0.869,0.480,0.029
28.825,-0.871,0.480,0.029
28.835,-0.873,0.482,0.029
28.845,-0.873,0.486,0.031
28.855,-0.875,0.486,0.031
28.865,-0.871,0.488,0.031
28.875,-0.873,0.486,0.029
28.885,-0.871,0.484,0.029
28.895,-0.867,0.484,0.029
28.905,-0.867,0.486,0.029
28.914,-0.861,0.490,0.029
28.924,-0.861,0.492,0.029
28.934,-0.865,0.492,0.031
28.944,-0.861,0.492,0.029
28.954,-0.861,0.490,0.029
28.964,-0.859,0.492,0.027
28.974,-0.859,0.492,0.031
28.984,-0.857,0.490,0.027
28.994,-0.857,0.486,0.033
29.004,-0.859,0.486,0.027
29.014,-0.865,0.490,0.029
29.024,-0.863,0.486,0.027
29.034,-0.863,0.490,0.031
29.044,-0.869,0.490,0.027
29.053,-0.869,0.492,0.027
29.063,-0.869,0.490,0.027
29.073,-0.875,0.490,0.020
29.083,-0.869,0.490,0.027
29.093,-0.869,0.490,0.027
29.103,-0.871,0.490,0.027
29.113,-0.867,0.492,0.025
29.123,-0.867,0.492,0.027
29.133,-0.869,0.490,0.033
29.143,-0.867,0.494,0.029
29.153,-0.863,0.490,0.029
29.163,-0.865,0.490,0.033
29.173,-0.865,0.486,0.031
29.183,-0.867,0.490,0.031
29.192,-0.863,0.488,0.033
29.202,-0.863,0.486,0.031
29.212,-0.861,0.488,0.037
29.222,-0.865,0.492,0.035
29.232,-0.859,0.486,0.033
29.242,-0.861,0.494,0.037
29.252,-0.859,0.494,0.037
29.262,-0.865,0.492,0.031
29.272,-0.867,0.492,0.037
29.282,-0.865,0.492,0.031
29.292,-0.861,0.488,0.033
29.302,-0.863,0.488,0.035
29.312,-0.863,0.486,0.035
29.321,-0.861,0.484,0.035
29.331,-0.863,0.486,0.033
29.341,-0.865,0.486,0.033
29.351,-0.865,0.490,0.033
29.361,-0.869,0.488,0.037
29.371,-0.867,0.488,0.033
29.381,-0.867,0.490,0.035
29.391,-0.865,0.492,0.035
29.401,-0.865,0.488,0.033
29.411,-0.861,0.484,0.035
29.421,-0.867,0.482,0.039
29.431,-0.865,0.488,0.035
29.441,-0.867,0.488,0.037
29.451,-0.865,0.486,0.037
29.460,-0.861,0.490,0.035
29.470,-0.863,0.492,0.035
29.480,-0.861,0.486,0.035
29.490,-0.865,0.484,0.035
29.500,-0.863,0.480,0.037
29.510,-0.861,0.490,0.035
29.520,-0.867,0.490,0.039
29.530,-0.865,0.488,0.033
29.540,-0.867,0.488,0.035
29.550,-0.867,0.492,0.033
29.560,-0.869,0.490,0.033
29.570,-0.869,0.484,0.035
29.580,-0.871,0.482,0.033
29.590,-0.871,0.480,0.027
29.599,-0.869,0.482,0.027
29.609,-0.869,0.482,0.025
29.619,-0.875,0.488,0.031
29.629,-0.871,0.492,0.027
29.639,-0.869,0.494,0.027
29.649,-0.871,0.498,0.031
29.659,-0.869,0.492,0.027
29.669,-0.869,0.488,0.029
29.679,-0.865,0.486,0.031
29.689,-0.865,0.484,0.029
29.699,-0.863,0.488,0.031
29.709,-0.861,0.488,0.033
29.719,-0.861,0.490,0.035
29.728,-0.863,0.492,0.031
29.738,-0.863,0.490,0.035
29.748,-0.863,0.492,0.033
29.758,-0.863,0.490,0.033
29.768,-0.865,0.488,0.035
29.778,-0.863,0.490,0.035
29.788,-0.859,0.490,0.033
29.798,-0.865,0.490,0.031
29.808,-0.865,0.490,0.035
29.818,-0.867,0.490,0.031
29.828,-0.865,0.492,0.031
29.838,-0.865,0.486,0.033
29.848,-0.869,0.490,0.033
29.858,-0.865,0.488,0.031
29.867,-0.865,0.486,0.033
29.877,-0.865,0.488,0.029
29.887,-0.861,0.484,0.031
29.897,-0.863,0.488,0.037
29.907,-0.863,0.490,0.031
29.917,-0.861,0.492,0.031
29.927,-0.863,0.490,0.031
29.937,-0.863,0.488,0.029
29.947,-0.863,0.492,0.031
29.957,-0.869,0.488,0.025
29.967,-0.867,0.486,0.029
29.977,-0.867,0.488,0.031
29.987,-0.865,0.488,0.027
29.997,-0.869,0.486,0.027
30.006,-0.869,0.486,0.027
30.016,-0.867,0.486,0.025
30.026,-0.867,0.486,0.027
30.036,-0.867,0.488,0.029
30.046,-0.867,0.490,0.027
30.056,-0.869,0.488,0.029
30.066,-0.867,0.486,0.029
30.076,-0.865,0.484,0.031
30.086,-0.867,0.482,0.029
30.096,-0.869,0.482,0.033
30.106,-0.867,0.480,0.029
30.116,-0.875,0.480,0.031
30.126,-0.875,0.482,0.031
30.136,-0.871,0.482,0.027
30.145,-0.873,0.482,0.031
30.155,-0.873,0.484,0.029
30.165,-0.873,0.484,0.029
30.175,-0.875,0.484,0.031
30.185,-0.871,0.482,0.029
30.195,-0.871,0.484,0.031
30.205,-0.869,0.484,0.031
30.215,-0.867,0.484,0.029
30.225,-0.865,0.482,0.029
30.235,-0.865,0.484,0.027
30.245,-0.865,0.488,0.029
30.255,-0.865,0.490,0.027
30.265,-0.863,0.496,0.029
30.274,-0.865,0.492,0.029
30.284,-0.861,0.494,0.031
30.294,-0.863,0.494,0.031
30.304,-0.863,0.490,0.031
30.314,-0.863,0.492,0.029
30.324,-0.867,0.492,0.029
30.334,-0.863,0.490,0.033
30.344,-0.861,0.490,0.029
30.354,-0.863,0.490,0.029
30.364,-0.863,0.490,0.027
30.374,-0.865,0.482,0.033
30.384,-0.863,0.480,0.029
30.394,-0.867,0.486,0.031
30.404,-0.869,0.494,0.033
30.413,-0.871,0.496,0.029
30.423,-0.867,0.490,0.029
30.433,-0.871,0.490,0.033
30.443,-0.867,0.486,0.033
30.453,-0.867,0.482,0.029
30.463,-0.869,0.480,0.027
30.473,-0.869,0.480,0.033
30.483,-0.869,0.482,0.031
30.493,-0.871,0.484,0.033
30.503,-0.871,0.484,0.031
30.513,-0.867,0.488,0.035
30.523,-0.869,0.490,0.033
30.533,-0.867,0.488,0.035
30.543,-0.867,0.484,0.035
30.552,-0.869,0.484,0.035
30.562,-0.867,0.480,0.035
30.572,-0.865,0.482,0.037
30.582,-0.867,0.484,0.037
30.592,-0.869,0.484,0.039
30.602,-0.869,0.486,0.033
30.612,-0.865,0.488,0.039
30.622,-0.865,0.488,0.035
30.632,-0.865,0.488,0.035
30.642,-0.863,0.484,0.035
30.652,-0.863,0.484,0.033
30.662,-0.863,0.490,0.031
30.672,-0.863,0.492,0.033
30.681,-0.863,0.492,0.031
30.691,-0.861,0.492,0.029
30.701,-0.863,0.492,0.031
30.711,-0.861,0.494,0.029
30.721,-0.863,0.494,0.027
30.731,-0.867,0.490,0.027
30.741,-0.871,0.492,0.029
30.751,-0.871,0.488,0.025
30.761,-0.867,0.490,0.027
30.771,-0.867,0.490,0.027
30.781,-0.867,0.490,0.025
30.791,-0.869,0.488,0.029
30.801,-0.865,0.488,0.033
30.811,-0.869,0.486,0.029
30.820,-0.863,0.486,0.033
30.830,-0.865,0.486,0.029
30.840,-0.867,0.482,0.031
30.850,-0.869,0.482,0.033
30.860,-0.873,0.484,0.031
30.870,-0.871,0.486,0.029
30.880,-0.871,0.486,0.031
30.890,-0.871,0.486,0.027
30.900,-0.871,0.486,0.031
30.910,-0.869,0.482,0.027
30.920,-0.869,0.482,0.027
30.930,-0.869,0.480,0.031
30.940,-0.873,0.484,0.029
30.950,-0.869,0.488,0.029
30.959,-0.871,0.486,0.029
30.969,-0.869,0.488,0.029
30.979,-0.865,0.486,0.027
30.989,-0.867,0.484,0.031
30.999,-0.865,0.486,0.031
31.009,-0.865,0.484,0.029
31.019,-0.865,0.482,0.033
31.029,-0.867,0.482,0.029
31.039,-0.869,0.480,0.031
31.049,-0.869,0.480,0.031
31.059,-0.873,0.482,0.031
31.069,-0.871,0.482,0.029
31.079,-0.871,0.486,0.031
31.088,-0.869,0.480,0.029
31.098,-0.873,0.479,0.029
31.108,-0.871,0.484,0.031
31.118,-0.873,0.482,0.023
31.128,-0.875,0.482,0.023
31.138,-0.873,0.484,0.025
31.148,-0.869,0.486,0.023
31.158,-0.871,0.486,0.025
31.168,-0.867,0.488,0.027
31.178,-0.869,0.488,0.027
31.188,-0.869,0.488,0.027
31.198,-0.871,0.484,0.029
31.208,-0.867,0.486,0.025
31.218,-0.865,0.486,0.029
31.227,-0.869,0.484,0.027
31.237,-0.867,0.484,0.025
31.247,-0.869,0.486,0.033
31.257,-0.869,0.479,0.029
31.267,-0.867,0.482,0.031
31.277,-0.865,0.482,0.027
31.287,-0.865,0.486,0.029
31.297,-0.865,0.490,0.029
31.307,-0.867,0.498,0.031
31.317,-0.865,0.496,0.031
31.327,-0.863,0.484,0.033
31.337,-0.867,0.480,0.029
31.347,-0.869,0.482,0.029
31.357,-0.869,0.482,0.029
31.366,-0.871,0.486,0.025
31.376,-0.869,0.482,0.027
31.386,-0.871,0.482,0.023
31.396,-0.869,0.482,0.023
31.406,-0.873,0.482,0.025
31.416,-0.873,0.480,0.031
31.426,-0.875,0.480,0.025
31.436,-0.875,0.480,0.027
31.446,-0.873,0.484,0.027
31.456,-0.871,0.482,0.027
31.466,-0.871,0.482,0.029
31.476,-0.871,0.484,0.025
31.486,-0.867,0.484,0.025
31.496,-0.869,0.484,0.029
31.505,-0.867,0.484,0.033
31.515,-0.867,0.484,0.031
31.525,-0.869,0.480,0.031
31.535,-0.867,0.482,0.029
31.545,-0.869,0.486,0.031
31.555,-0.867,0.488,0.033
31.565,-0.865,0.490,0.031
31.575,-0.867,0.486,0.027
31.585,-0.865,0.484,0.029
31.595,-0.865,0.488,0.031
31.605,-0.865,0.490,0.029
31.615,-0.861,0.488,0.033
31.625,-0.861,0.488,0.031
31.634,-0.863,0.488,0.033
31.644,-0.865,0.486,0.031
31.654,-0.869,0.486,0.029
31.664,-0.865,0.486,0.031
31.674,-0.865,0.482,0.027
31.684,-0.867,0.482,0.029
31.694,-0.869,0.484,0.027
31.704,-0.871,0.488,0.029
31.714,-0.873,0.490,0.033
31.724,-0.875,0.492,0.029
31.734,-0.869,0.486,0.029
31.744,-0.867,0.492,0.027
31.754,-0.869,0.486,0.029
31.764,-0.865,0.486,0.031
31.773,-0.863,0.486,0.033
31.783,-0.865,0.484,0.031
31.793,-0.863,0.482,0.027
31.803,-0.867,0.482,0.033
31.813,-0.867,0.482,0.031
31.823,-0.867,0.486,0.029
31.833,-0.867,0.486,0.031
31.843,-0.867,0.484,0.029
31.853,-0.867,0.484,0.031
31.863,-0.871,0.484,0.027
31.873,-0.869,0.482,0.029
31.883,-0.873,0.482,0.029
31.893,-0.869,0.486,0.029
31.903,-0.869,0.488,0.031
31.912,-0.871,0.490,0.029
31.922,-0.869,0.490,0.029
31.932,-0.863,0.486,0.029
31.942,-0.865,0.486,0.031
31.952,-0.861,0.486,0.029
31.962,-0.865,0.486,0.031
31.972,-0.863,0.488,0.029
31.982,-0.865,0.488,0.031
31.992,-0.865,0.490,0.035
32.002,-0.865,0.484,0.033
32.012,-0.865,0.484,0.031
32.022,-0.871,0.488,0.033
32.032,-0.873,0.484,0.033
32.041,-0.875,0.482,0.037
32.051,-0.875,0.482,0.035
32.061,-0.877,0.475,0.037
32.071,-0.881,0.477,0.035
32.081,-0.875,0.479,0.037
32.091,-0.875,0.480,0.035
32.101,-0.871,0.480,0.039
32.111,-0.871,0.482,0.037
32.121,-0.869,0.482,0.035
32.131,-0.871,0.477,0.035
32.141,-0.869,0.479,0.033
32.151,-0.869,0.477,0.037
32.161,-0.869,0.482,0.033
32.171,-0.871,0.484,0.033
32.180,-0.869,0.486,0.035
32.190,-0.865,0.482,0.031
32.200,-0.867,0.486,0.035
32.210,-0.867,0.484,0.031
32.220,-0.863,0.480,0.029
32.230,-0.867,0.480,0.029
32.240,-0.867,0.482,0.033
32.250,-0.867,0.482,0.033
32.260,-0.869,0.484,0.033
32.270,-0.871,0.484,0.029
32.280,-0.871,0.490,0.031
32.290,-0.875,0.488,0.031
32.300,-0.873,0.490,0.029
32.310,-0.867,0.484,0.031
32.319,-0.871,0.484,0.029
32.329,-0.871,0.486,0.031
32.339,-0.869,0.482,0.031
32.349,-0.867,0.484,0.027
32.359,-0.867,0.492,0.027
32.369,-0.867,0.494,0.031
32.379,-0.865,0.496,0.029
32.389,-0.861,0.492,0.029
32.399,-0.859,0.490,0.029
32.409,-0.857,0.486,0.033
32.419,-0.859,0.488,0.031
32.429,-0.863,0.490,0.033
32.439,-0.863,0.490,0.035
32.448,-0.863,0.490,0.031
32.458,-0.865,0.492,0.033
32.468,-0.865,0.490,0.031
32.478,-0.865,0.488,0.035
32.488,-0.861,0.484,0.033
32.498,-0.869,0.486,0.033
32.508,-0.869,0.486,0.033
32.518,-0.869,0.484,0.035
32.528,-0.867,0.486,0.031
32.538,-0.865,0.486,0.035
32.548,-0.873,0.486,0.035
32.558,-0.873,0.488,0.031
32.568,-0.869,0.484,0.033
32.578,-0.869,0.482,0.035
32.587,-0.867,0.486,0.035
32.597,-0.871,0.484,0.033
32.607,-0.871,0.484,0.033
32.617,-0.869,0.482,0.033
32.627,-0.867,0.484,0.033
32.637,-0.865,0.486,0.033
32.647,-0.863,0.490,0.031
32.657,-0.861,0.488,0.035
32.667,-0.863,0.484,0.035
32.677,-0.865,0.484,0.033
32.687,-0.869,0.486,0.029
32.697,-0.871,0.488,0.037
32.707,-0.867,0.484,0.031
32.717,-0.867,0.484,0.035
32.726,-0.867,0.482,0.033
32.736,-0.869,0.482,0.033
32.746,-0.873,0.480,0.031
32.756,-0.869,0.480,0.031
32.766,-0.875,0.482,0.033
32.776,-0.875,0.484,0.029
32.786,-0.875,0.486,0.031
32.796,-0.877,0.484,0.029
32.806,-0.879,0.486,0.033
32.816,-0.875,0.484,0.031
32.826,-0.879,0.486,0.033
32.836,-0.869,0.480,0.033
32.846,-0.865,0.486,0.033
32.855,-0.867,0.486,0.033
32.865,-0.863,0.490,0.033
32.875,-0.863,0.488,0.035
32.885,-0.861,0.490,0.041
32.895,-0.859,0.488,0.037
32.905,-0.859,0.488,0.041
32.915,-0.859,0.486,0.037
32.925,-0.859,0.486,0.037
32.935,-0.867,0.490,0.037
32.945,-0.867,0.494,0.035
32.955,-0.865,0.492,0.037
32.965,-0.865,0.486,0.035
32.975,-0.867,0.486,0.037
32.985,-0.867,0.482,0.035
32.994,-0.869,0.479,0.035
33.004,-0.869,0.477,0.031
33.014,-0.873,0.477,0.033
33.024,-0.877,0.477,0.035
33.034,-0.873,0.479,0.031
33.044,-0.873,0.482,0.031
33.054,-0.873,0.484,0.031
33.064,-0.869,0.488,0.029
33.074,-0.867,0.488,0.033
33.084,-0.869,0.486,0.029
33.094,-0.869,0.486,0.029
33.104,-0.867,0.488,0.029
33.114,-0.871,0.488,0.031
33.124,-0.867,0.484,0.031
33.133,-0.865,0.482,0.031
33.143,-0.861,0.482,0.037
33.153,-0.865,0.486,0.031
33.163,-0.867,0.484,0.033
33.173,-0.867,0.486,0.035
33.183,-0.869,0.484,0.031
33.193,-0.869,0.484,0.033
33.203,-0.869,0.482,0.031
33.213,-0.871,0.486,0.029
33.223,-0.869,0.488,0.029
33.233,-0.869,0.490,0.031
33.243,-0.869,0.488,0.033
33.253,-0.867,0.486,0.033
33.263,-0.867,0.484,0.031
33.272,-0.867,0.484,0.031
33.282,-0.867,0.482,0.035
33.292,-0.869,0.480,0.033
33.302,-0.869,0.480,0.031
33.312,-0.867,0.482,0.029
33.322,-0.869,0.484,0.033
33.332,-0.869,0.488,0.033
33.342,-0.867,0.486,0.033
33.352,-0.869,0.486,0.031
33.362,-0.871,0.488,0.035
33.372,-0.871,0.482,0.033
33.382,-0.873,0.480,0.031
33.392,-0.867,0.479,0.031
33.401,-0.871,0.479,0.033
33.411,-0.873,0.479,0.029
33.421,-0.869,0.480,0.029
33.431,-0.873,0.482,0.033
33.441,-0.869,0.484,0.027
33.451,-0.869,0.482,0.031
33.461,-0.869,0.488,0.031
33.471,-0.867,0.488,0.033
33.481,-0.867,0.488,0.033
33.491,-0.865,0.488,0.031
33.501,-0.865,0.484,0.035
33.511,-0.863,0.480,0.031
33.521,-0.863,0.480,0.031
33.531,-0.865,0.480,0.035
33.540,-0.869,0.480,0.029
33.550,-0.869,0.484,0.033
33.560,-0.871,0.486,0.031
33.570,-0.873,0.486,0.033
33.580,-0.869,0.484,0.031
33.590,-0.867,0.480,0.031
33.600,-0.871,0.477,0.029
33.610,-0.873,0.480,0.031
33.620,-0.877,0.482,0.031
33.630,-0.875,0.480,0.033
33.640,-0.875,0.486,0.029
33.650,-0.873,0.486,0.031
33.660,-0.873,0.488,0.031
33.670,-0.867,0.486,0.033
33.679,-0.865,0.482,0.033
33.689,-0.867,0.486,0.029
33.699,-0.867,0.486,0.033
33.709,-0.871,0.486,0.031
33.719,-0.863,0.484,0.035
33.729,-0.867,0.484,0.035
33.739,-0.863,0.486,0.033
33.749,-0.863,0.480,0.031
33.759,-0.863,0.477,0.033
33.769,-0.871,0.484,0.033
33.779,-0.869,0.490,0.027
33.789,-0.873,0.490,0.031
33.799,-0.875,0.486,0.031
33.808,-0.875,0.482,0.029
33.818,-0.873,0.482,0.033
33.828,-0.871,0.473,0.027
33.838,-0.873,0.475,0.029
33.848,-0.871,0.477,0.025
33.858,-0.871,0.477,0.027
33.868,-0.875,0.477,0.027
33.878,-0.873,0.482,0.025
33.888,-0.873,0.484,0.029
33.898,-0.871,0.490,0.027
33.908,-0.869,0.488,0.031
33.918,-0.869,0.488,0.027
33.928,-0.869,0.486,0.027
33.938,-0.865,0.486,0.029
33.947,-0.863,0.482,0.027
33.957,-0.865,0.479,0.031
33.967,-0.867,0.479,0.033
33.977,-0.867,0.479,0.027
33.987,-0.865,0.482,0.031
33.997,-0.867,0.486,0.031
34.007,-0.869,0.488,0.029
34.017,-0.867,0.488,0.027
34.027,-0.867,0.488,0.029
34.037,-0.873,0.484,0.027
34.047,-0.873,0.486,0.023
34.057,-0.869,0.484,0.025
34.067,-0.873,0.486,0.029
34.077,-0.869,0.486,0.031
34.086,-0.867,0.488,0.031
34.096,-0.867,0.486,0.029
34.106,-0.867,0.486,0.029
34.116,-0.871,0.488,0.029
34.126,-0.867,0.486,0.025
34.136,-0.867,0.486,0.027
34.146,-0.865,0.486,0.031
34.156,-0.863,0.488,0.029
34.166,-0.865,0.482,0.031
34.176,-0.867,0.486,0.029
34.186,-0.863,0.484,0.033
34.196,-0.869,0.484,0.025
34.206,-0.867,0.486,0.027
34.215,-0.867,0.488,0.027
34.225,-0.867,0.486,0.029
34.235,-0.867,0.486,0.027
34.245,-0.869,0.486,0.029
34.255,-0.871,0.486,0.029
34.265,-0.869,0.484,0.027
34.275,-0.867,0.484,0.029
34.285,-0.865,0.484,0.027
34.295,-0.865,0.482,0.029
34.305,-0.865,0.486,0.027
34.315,-0.867,0.486,0.025
34.325,-0.867,0.486,0.027
34.335,-0.867,0.480,0.027
34.345,-0.869,0.484,0.027
34.354,-0.871,0.482,0.029
34.364,-0.869,0.479,0.029
34.374,-0.869,0.482,0.031
34.384,-0.869,0.480,0.031
34.394,-0.871,0.482,0.029
34.404,-0.869,0.482,0.029
34.414,-0.875,0.484,0.031
34.424,-0.875,0.486,0.033
34.434,-0.873,0.484,0.033
34.444,-0.871,0.482,0.031
34.454,-0.871,0.484,0.031
34.464,-0.873,0.482,0.033
34.474,-0.867,0.480,0.037
34.484,-0.871,0.482,0.033
34.493,-0.867,0.479,0.035
34.503,-0.867,0.482,0.029
34.513,-0.867,0.488,0.033
34.523,-0.865,0.488,0.033
34.533,-0.865,0.484,0.033
34.543,-0.867,0.486,0.035
34.553,-0.867,0.486,0.031
34.563,-0.867,0.484,0.031
34.573,-0.867,0.482,0.031
34.583,-0.869,0.482,0.029
34.593,-0.869,0.486,0.029
34.603,-0.873,0.488,0.031
34.613,-0.871,0.486,0.029
34.623,-0.875,0.488,0.033
34.632,-0.873,0.482,0.029
34.642,-0.869,0.480,0.029
34.652,-0.867,0.477,0.031
34.662,-0.871,0.479,0.033
34.672,-0.877,0.473,0.029
34.682,-0.871,0.473,0.031
34.692,-0.873,0.475,0.031
34.702,-0.875,0.479,0.029
34.712,-0.875,0.480,0.033
34.722,-0.875,0.482,0.031
34.732,-0.875,0.484,0.031
34.742,-0.871,0.479,0.029
34.752,-0.875,0.480,0.027
34.761,-0.871,0.479,0.031
34.771,-0.871,0.479,0.031
34.781,-0.869,0.484,0.029
34.791,-0.867,0.486,0.031
34.801,-0.871,0.490,0.033
34.811,-0.867,0.492,0.029
34.821,-0.863,0.486,0.033
34.831,-0.863,0.486,0.033
34.841,-0.863,0.484,0.033
34.851,-0.863,0.486,0.039
34.861,-0.863,0.486,0.037
34.871,-0.865,0.484,0.039
34.881,-0.865,0.484,0.039
34.891,-0.867,0.486,0.039
34.900,-0.869,0.484,0.037
34.910,-0.871,0.482,0.033
34.920,-0.869,0.479,0.033
34.930,-0.871,0.480,0.033
34.940,-0.875,0.486,0.037
34.950,-0.875,0.488,0.033
34.960,-0.871,0.490,0.035
34.970,-0.873,0.490,0.035
34.980,-0.867,0.488,0.035
34.990,-0.865,0.490,0.033
35.000,-0.865,0.488,0.031
35.010,-0.867,0.488,0.033
35.020,-0.863,0.488,0.033
35.030,-0.863,0.486,0.031
35.039,-0.861,0.488,0.031
35.049,-0.859,0.490,0.035
35.059,-0.859,0.490,0.031
35.069,-0.861,0.490,0.033
35.079,-0.863,0.490,0.025
35.089,-0.861,0.488,0.027
35.099,-0.865,0.488,0.033
35.109,-0.865,0.490,0.033
35.119,-0.865,0.488,0.033
35.129,-0.867,0.490,0.033
35.139,-0.869,0.484,0.031
35.149,-0.871,0.482,0.033
35.159,-0.873,0.482,0.035
35.168,-0.875,0.480,0.033
35.178,-0.877,0.482,0.035
35.188,-0.879,0.484,0.037
35.198,-0.879,0.486,0.035
35.208,-0.879,0.486,0.037
35.218,-0.873,0.482,0.041
35.228,-0.871,0.480,0.039
35.238,-0.869,0.477,0.035
35.248,-0.873,0.482,0.037
35.258,-0.871,0.480,0.039
35.268,-0.865,0.486,0.039
35.278,-0.863,0.482,0.043
35.288,-0.863,0.484,0.041
35.298,-0.861,0.488,0.039
35.307,-0.861,0.480,0.041
35.317,-0.863,0.477,0.043
35.327,-0.865,0.477,0.041
35.337,-0.869,0.482,0.041
35.347,-0.867,0.482,0.041
35.357,-0.871,0.480,0.039
35.367,-0.869,0.484,0.039
35.377,-0.871,0.486,0.041
35.387,-0.869,0.480,0.037
35.397,-0.869,0.479,0.037
35.407,-0.875,0.477,0.039
35.417,-0.873,0.473,0.033
35.427,-0.873,0.477,0.035
35.437,-0.873,0.477,0.033
35.446,-0.875,0.482,0.039
35.456,-0.873,0.482,0.037
35.466,-0.869,0.486,0.031
35.476,-0.871,0.490,0.029
35.486,-0.871,0.490,0.029
35.496,-0.869,0.488,0.031
35.506,-0.869,0.488,0.031
35.516,-0.871,0.484,0.031
35.526,-0.867,0.488,0.031
35.536,-0.865,0.488,0.031
35.546,-0.869,0.490,0.033
35.556,-0.867,0.492,0.035
35.566,-0.863,0.490,0.037
35.575,-0.861,0.492,0.035
35.585,-0.861,0.492,0.037
35.595,-0.859,0.492,0.035
35.605,-0.863,0.492,0.037
35.615,-0.863,0.492,0.037
35.625,-0.863,0.492,0.037
35.635,-0.861,0.492,0.033
35.645,-0.863,0.494,0.037
35.655,-0.863,0.490,0.033
35.665,-0.863,0.488,0.035
35.675,-0.863,0.484,0.035
35.685,-0.865,0.488,0.037
35.695,-0.867,0.488,0.033
35.705,-0.869,0.488,0.033
35.714,-0.867,0.486,0.031
35.724,-0.869,0.488,0.035
35.734,-0.869,0.486,0.027
35.744,-0.869,0.486,0.029
35.754,-0.867,0.486,0.033
35.764,-0.869,0.486,0.035
35.774,-0.869,0.486,0.031
35.784,-0.869,0.486,0.035
35.794,-0.867,0.484,0.035
35.804,-0.867,0.484,0.037
35.814,-0.867,0.480,0.035
35.824,-0.869,0.479,0.037
35.834,-0.867,0.480,0.037
35.844,-0.869,0.480,0.033
35.853,-0.871,0.484,0.035
35.863,-0.869,0.480,0.035
35.873,-0.873,0.482,0.035
35.883,-0.873,0.480,0.033
35.893,-0.871,0.480,0.033
35.903,-0.873,0.482,0.031
35.913,-0.871,0.479,0.031
35.923,-0.875,0.482,0.033
35.933,-0.873,0.480,0.031
35.943,-0.875,0.480,0.033
35.953,-0.871,0.486,0.033
35.963,-0.869,0.484,0.037
35.973,-0.871,0.490,0.035
35.982,-0.869,0.484,0.033
35.992,-0.871,0.486,0.033
36.002,-0.871,0.488,0.033
36.012,-0.867,0.488,0.033
36.022,-0.865,0.486,0.033
36.032,-0.867,0.486,0.037
36.042,-0.863,0.486,0.033
36.052,-0.863,0.480,0.037
36.062,-0.861,0.480,0.035
36.072,-0.863,0.486,0.033
36.082,-0.867,0.490,0.035
36.092,-0.867,0.494,0.035
36.102,-0.867,0.490,0.037
36.112,-0.869,0.486,0.035
36.121,-0.867,0.486,0.035
36.131,-0.867,0.482,0.033
36.141,-0.869,0.482,0.033
36.151,-0.869,0.477,0.031
36.161,-0.869,0.479,0.033
36.171,-0.871,0.482,0.033
36.181,-0.871,0.486,0.031
36.191,-0.875,0.488,0.033
36.201,-0.871,0.492,0.031
36.211,-0.869,0.494,0.033
36.221,-0.869,0.486,0.031
36.231,-0.869,0.484,0.033
36.241,-0.863,0.482,0.033
36.251,-0.865,0.484,0.035
36.260,-0.867,0.482,0.031
36.270,-0.865,0.486,0.033
36.280,-0.863,0.486,0.029
36.290,-0.863,0.486,0.033
36.300,-0.865,0.492,0.037
36.310,-0.867,0.490,0.035
36.320,-0.863,0.490,0.035
36.330,-0.865,0.490,0.035
36.340,-0.867,0.490,0.033
36.350,-0.869,0.488,0.031
36.360,-0.869,0.484,0.037
36.370,-0.865,0.484,0.033
36.380,-0.867,0.482,0.035
36.390,-0.867,0.482,0.037
36.399,-0.871,0.482,0.037
36.409,-0.871,0.484,0.035
36.419,-0.873,0.480,0.035
36.429,-0.873,0.480,0.033
36.439,-0.873,0.482,0.031
36.449,-0.871,0.479,0.035
36.459,-0.871,0.486,0.031
36.469,-0.871,0.484,0.035
36.479,-0.871,0.482,0.029
36.489,-0.869,0.488,0.033
36.499,-0.865,0.484,0.033
36.509,-0.867,0.486,0.035
36.519,-0.869,0.486,0.033
36.528,-0.871,0.486,0.035
36.538,-0.869,0.486,0.033
36.548,-0.869,0.488,0.035
36.558,-0.865,0.486,0.035
36.568,-0.865,0.488,0.035
36.578,-0.865,0.488,0.035
36.588,-0.867,0.484,0.035
36.598,-0.869,0.486,0.035
36.608,-0.871,0.488,0.033
36.618,-0.867,0.484,0.031
36.628,-0.873,0.486,0.033
36.638,-0.869,0.484,0.037
36.648,-0.869,0.484,0.039
36.658,-0.869,0.482,0.035
36.667,-0.869,0.484,0.039
36.677,-0.869,0.482,0.039
36.687,-0.867,0.484,0.041
36.697,-0.873,0.484,0.035
36.707,-0.871,0.482,0.037
36.717,-0.871,0.482,0.039
36.727,-0.867,0.479,0.039
36.737,-0.869,0.479,0.039
36.747,-0.869,0.479,0.037
36.757,-0.871,0.477,0.037
36.767,-0.869,0.479,0.039
36.777,-0.871,0.482,0.039
36.787,-0.873,0.484,0.039
36.797,-0.871,0.482,0.041
36.806,-0.871,0.482,0.039
36.816,-0.875,0.482,0.035
36.826,-0.871,0.480,0.039
36.836,-0.873,0.479,0.041
36.846,-0.877,0.482,0.039
36.856,-0.875,0.482,0.039
36.866,-0.867,0.480,0.039
36.876,-0.871,0.480,0.037
36.886,-0.869,0.484,0.037
36.896,-0.867,0.482,0.035
36.906,-0.867,0.480,0.031
36.916,-0.867,0.480,0.035
36.926,-0.867,0.486,0.035
36.935,-0.867,0.490,0.033
36.945,-0.867,0.490,0.029
36.955,-0.867,0.488,0.029
36.965,-0.867,0.486,0.031
36.975,-0.863,0.484,0.029
36.985,-0.861,0.484,0.025
36.995,-0.867,0.482,0.027
37.005,-0.867,0.482,0.023
37.015,-0.867,0.482,0.023
37.025,-0.867,0.486,0.021
37.035,-0.871,0.488,0.023
37.045,-0.871,0.490,0.021
37.055,-0.871,0.494,0.023
37.065,-0.875,0.496,0.025
37.074,-0.871,0.494,0.021
37.084,-0.867,0.490,0.025
37.094,-0.865,0.484,0.025
37.104,-0.867,0.482,0.023
37.114,-0.869,0.479,0.023
37.124,-0.865,0.480,0.029
37.134,-0.863,0.480,0.025
37.144,-0.869,0.484,0.029
37.154,-0.865,0.484,0.027
37.164,-0.863,0.484,0.031
37.174,-0.865,0.482,0.031
37.184,-0.865,0.484,0.031
37.194,-0.867,0.482,0.033
37.204,-0.869,0.480,0.029
37.213,-0.871,0.479,0.033
37.223,-0.871,0.480,0.035
37.233,-0.871,0.482,0.033
37.243,-0.873,0.480,0.031
37.253,-0.877,0.480,0.031
37.263,-0.875,0.480,0.029
37.273,-0.875,0.475,0.033
37.283,-0.875,0.475,0.033
37.293,-0.877,0.479,0.033
37.303,-0.875,0.479,0.031
37.313,-0.873,0.479,0.033
37.323,-0.871,0.480,0.031
37.333,-0.871,0.479,0.033
37.342,-0.873,0.480,0.029
37.352,-0.871,0.482,0.031
37.362,-0.869,0.482,0.031
37.372,-0.873,0.484,0.033
37.382,-0.869,0.480,0.033
37.392,-0.873,0.480,0.031
37.402,-0.869,0.480,0.033
37.412,-0.867,0.480,0.033
37.422,-0.867,0.480,0.035
37.432,-0.867,0.479,0.029
37.442,-0.871,0.482,0.029
37.452,-0.869,0.480,0.031
37.462,-0.871,0.482,0.031
37.472,-0.871,0.480,0.031
37.481,-0.871,0.480,0.031
37.491,-0.871,0.482,0.031
37.501,-0.869,0.486,0.029
37.511,-0.875,0.484,0.029
37.521,-0.873,0.482,0.031
37.531,-0.871,0.484,0.031
37.541,-0.871,0.482,0.029
37.551,-0.875,0.480,0.029
37.561,-0.869,0.479,0.031
37.571,-0.869,0.479,0.035
37.581,-0.871,0.475,0.035
37.591,-0.871,0.482,0.033
37.601,-0.869,0.480,0.033
37.611,-0.873,0.482,0.033
37.620,-0.875,0.484,0.031
37.630,-0.873,0.482,0.035
37.640,-0.873,0.482,0.037
37.650,-0.873,0.479,0.035
37.660,-0.871,0.475,0.037
37.670,-0.875,0.475,0.037
37.680,-0.873,0.473,0.037
37.690,-0.877,0.475,0.035
37.700,-0.879,0.475,0.031
37.710,-0.879,0.473,0.037
37.720,-0.875,0.475,0.033
37.730,-0.871,0.479,0.035
37.740,-0.873,0.480,0.035
37.750,-0.867,0.482,0.033
37.759,-0.869,0.484,0.033
37.769,-0.865,0.488,0.033
37.779,-0.869,0.484,0.029
37.789,-0.865,0.480,0.033
37.799,-0.863,0.480,0.027
37.809,-0.865,0.482,0.033
37.819,-0.867,0.486,0.031
37.829,-0.871,0.482,0.029
37.839,-0.869,0.482,0.029
37.849,-0.871,0.482,0.029
37.859,-0.871,0.480,0.033
37.869,-0.873,0.479,0.027
37.879,-0.873,0.475,0.029
37.888,-0.875,0.473,0.027
37.898,-0.875,0.471,0.025
37.908,-0.879,0.473,0.025
37.918,-0.875,0.473,0.027
37.928,-0.877,0.479,0.023
37.938,-0.883,0.482,0.025
37.948,-0.879,0.484,0.023
37.958,-0.879,0.484,0.027
37.968,-0.879,0.482,0.027
37.978,-0.873,0.480,0.027
37.988,-0.873,0.480,0.027
37.998,-0.871,0.479,0.023
38.008,-0.867,0.477,0.027
38.018,-0.867,0.479,0.027
38.027,-0.869,0.482,0.027
38.037,-0.869,0.484,0.029
38.047,-0.863,0.484,0.029
38.057,-0.863,0.484,0.027
38.067,-0.867,0.482,0.031
38.077,-0.865,0.482,0.029
38.087,-0.867,0.482,0.025
38.097,-0.865,0.482,0.029
38.107,-0.871,0.482,0.027
38.117,-0.867,0.482,0.027
38.127,-0.867,0.488,0.029
38.137,-0.873,0.484,0.027
38.147,-0.871,0.482,0.027
38.157,-0.871,0.484,0.023
38.166,-0.873,0.484,0.025
38.176,-0.871,0.484,0.023
38.186,-0.871,0.480,0.025
38.196,-0.873,0.480,0.027
38.206,-0.873,0.482,0.025
38.216,-0.873,0.482,0.027
38.226,-0.871,0.479,0.025
38.236,-0.869,0.477,0.029
38.246,-0.875,0.477,0.025
38.256,-0.871,0.479,0.027
38.266,-0.869,0.479,0.027
38.276,-0.873,0.479,0.027
38.286,-0.875,0.479,0.029
38.295,-0.873,0.477,0.027
38.305,-0.871,0.480,0.029
38.315,-0.871,0.480,0.027
38.325,-0.871,0.480,0.027
38.335,-0.873,0.482,0.027
38.345,-0.871,0.477,0.025
38.355,-0.871,0.479,0.029
38.365,-0.875,0.480,0.027
38.375,-0.871,0.480,0.027
38.385,-0.875,0.480,0.027
38.395,-0.873,0.480,0.031
38.405,-0.871,0.479,0.029
38.415,-0.871,0.480,0.031
38.425,-0.873,0.479,0.031
38.434,-0.871,0.479,0.033
38.444,-0.871,0.475,0.029
38.454,-0.871,0.473,0.031
38.464,-0.871,0.477,0.033
38.474,-0.869,0.477,0.033
38.484,-0.873,0.480,0.031
38.494,-0.873,0.482,0.029
38.504,-0.875,0.480,0.033
38.514,-0.877,0.479,0.031
38.524,-0.879,0.480,0.031
38.534,-0.877,0.480,0.031
38.544,-0.875,0.479,0.031
38.554,-0.873,0.475,0.031
38.564,-0.875,0.475,0.031
38.573,-0.873,0.479,0.027
38.583,-0.871,0.479,0.029
38.593,-0.869,0.480,0.035
38.603,-0.871,0.484,0.031
38.613,-0.867,0.484,0.031
38.623,-0.871,0.482,0.027
38.633,-0.867,0.479,0.031
38.643,-0.869,0.479,0.029
38.653,-0.873,0.480,0.031
38.663,-0.873,0.482,0.029
38.673,-0.875,0.477,0.027
38.683,-0.875,0.477,0.025
38.693,-0.873,0.477,0.027
38.702,-0.873,0.482,0.031
38.712,-0.869,0.482,0.027
38.722,-0.875,0.480,0.029
38.732,-0.875,0.479,0.025
38.742,-0.873,0.477,0.029
38.752,-0.873,0.477,0.031
38.762,-0.871,0.480,0.031
38.772,-0.871,0.480,0.029
38.782,-0.871,0.482,0.029
38.792,-0.871,0.479,0.031
38.802,-0.869,0.482,0.029
38.812,-0.871,0.479,0.033
38.822,-0.869,0.479,0.033
38.832,-0.869,0.480,0.033
38.841,-0.867,0.480,0.031
38.851,-0.867,0.480,0.035
38.861,-0.869,0.480,0.031
38.871,-0.871,0.488,0.035
38.881,-0.867,0.484,0.033
38.891,-0.869,0.486,0.035
38.901,-0.867,0.484,0.035
38.911,-0.869,0.484,0.035
38.921,-0.867,0.480,0.033
38.931,-0.871,0.479,0.035
38.941,-0.869,0.479,0.033
38.951,-0.873,0.479,0.031
38.961,-0.873,0.480,0.033
38.971,-0.873,0.480,0.033
38.980,-0.873,0.479,0.027
38.990,-0.873,0.477,0.031
39.000,-0.873,0.480,0.033
39.010,-0.873,0.482,0.029
39.020,-0.875,0.482,0.031
39.030,-0.869,0.479,0.033
39.040,-0.873,0.479,0.031
39.050,-0.871,0.480,0.031
39.060,-0.873,0.480,0.031
39.070,-0.871,0.480,0.031
39.080,-0.869,0.479,0.033
39.090,-0.873,0.479,0.027
39.100,-0.873,0.480,0.031
39.109,-0.873,0.482,0.029
39.119,-0.869,0.479,0.035
39.129,-0.871,0.480,0.027
39.139,-0.873,0.477,0.033
39.149,-0.873,0.479,0.031
39.159,-0.873,0.479,0.029
39.169,-0.879,0.480,0.027
39.179,-0.873,0.480,0.031
39.189,-0.875,0.479,0.027
39.199,-0.873,0.479,0.027
39.209,-0.873,0.479,0.029
39.219,-0.873,0.480,0.029
39.229,-0.871,0.479,0.027
39.239,-0.869,0.475,0.031
39.248,-0.871,0.475,0.031
39.258,-0.869,0.479,0.029
39.268,-0.875,0.475,0.031
39.278,-0.875,0.480,0.031
39.288,-0.877,0.479,0.029
39.298,-0.879,0.480,0.029
39.308,-0.877,0.477,0.027
39.318,-0.879,0.480,0.031
39.328,-0.875,0.480,0.031
39.338,-0.877,0.473,0.029
39.348,-0.873,0.475,0.031
39.358,-0.873,0.475,0.031
39.368,-0.871,0.479,0.033
39.378,-0.871,0.479,0.031
39.387,-0.867,0.479,0.033
39.397,-0.869,0.482,0.033
39.407,-0.871,0.484,0.033
39.417,-0.871,0.484,0.033
39.427,-0.869,0.475,0.031
39.437,-0.867,0.473,0.029
39.447,-0.871,0.479,0.031
39.457,-0.871,0.482,0.031
39.467,-0.873,0.480,0.027
39.477,-0.875,0.479,0.029
39.487,-0.873,0.479,0.029
39.497,-0.871,0.477,0.025
39.507,-0.875,0.475,0.029
39.517,-0.875,0.477,0.027
39.526,-0.877,0.477,0.025
39.536,-0.875,0.471,0.029
39.546,-0.877,0.475,0.027
39.556,-0.877,0.475,0.027
39.566,-0.879,0.475,0.027
39.576,-0.877,0.480,0.029
39.586,-0.879,0.480,0.027
39.596,-0.873,0.480,0.029
39.606,-0.875,0.479,0.031
39.616,-0.873,0.479,0.029
39.626,-0.873,0.475,0.033
39.636,-0.875,0.479,0.033
39.646,-0.869,0.479,0.033
39.655,-0.869,0.479,0.033
39.665,-0.871,0.482,0.031
39.675,-0.873,0.480,0.029
39.685,-0.869,0.482,0.033
39.695,-0.867,0.479,0.031
39.705,-0.869,0.480,0.029
39.715,-0.867,0.484,0.035
39.725,-0.871,0.484,0.029
39.735,-0.869,0.482,0.025
39.745,-0.871,0.484,0.031
39.755,-0.869,0.486,0.029
39.765,-0.867,0.486,0.025
39.775,-0.867,0.482,0.029
39.785,-0.869,0.480,0.029
39.794,-0.873,0.480,0.029
39.804,-0.875,0.482,0.025
39.814,-0.871,0.484,0.029
39.824,-0.871,0.480,0.029
39.834,-0.873,0.482,0.031
39.844,-0.873,0.484,0.029
39.854,-0.869,0.482,0.029
39.864,-0.869,0.482,0.033
39.874,-0.873,0.480,0.033
39.884,-0.871,0.479,0.033
39.894,-0.873,0.480,0.031
39.904,-0.871,0.482,0.033
39.914,-0.871,0.480,0.031
39.924,-0.869,0.479,0.033
39.933,-0.867,0.480,0.031
39.943,-0.871,0.479,0.033
39.953,-0.869,0.479,0.029
39.963,-0.869,0.480,0.027
39.973,-0.873,0.482,0.031
39.983,-0.875,0.480,0.031
39.993,-0.871,0.482,0.033
40.003,-0.875,0.479,0.027
40.013,-0.877,0.480,0.029
40.023,-0.873,0.473,0.025
40.033,-0.873,0.479,0.033
40.043,-0.875,0.479,0.031
40.053,-0.881,0.477,0.029
40.062,-0.877,0.475,0.031
40.072,-0.877,0.473,0.029
40.082,-0.877,0.475,0.037
40.092,-0.881,0.479,0.033
40.102,-0.879,0.480,0.035
40.112,-0.875,0.479,0.035
40.122,-0.869,0.479,0.033
40.132,-0.869,0.480,0.037
40.142,-0.873,0.477,0.035
40.152,-0.867,0.471,0.037
40.162,-0.869,0.477,0.035
40.172,-0.869,0.477,0.037
40.182,-0.875,0.479,0.037
40.192,-0.871,0.482,0.033
40.201,-0.871,0.479,0.039
40.211,-0.871,0.479,0.035
40.221,-0.875,0.477,0.033
40.231,-0.873,0.477,0.033
40.241,-0.877,0.473,0.033
40.251,-0.875,0.475,0.033
40.261,-0.879,0.471,0.031
40.271,-0.877,0.475,0.031
40.281,-0.877,0.475,0.031
40.291,-0.875,0.480,0.029
40.301,-0.873,0.482,0.031
40.311,-0.873,0.479,0.031
40.321,-0.875,0.480,0.029
40.331,-0.871,0.480,0.025
40.340,-0.871,0.480,0.027
40.350,-0.871,0.480,0.027
40.360,-0.869,0.479,0.031
40.370,-0.867,0.484,0.031
40.380,-0.867,0.486,0.033
40.390,-0.867,0.490,0.033
40.400,-0.869,0.484,0.033
40.410,-0.863,0.484,0.029
40.420,-0.863,0.482,0.033
40.430,-0.867,0.482,0.035
40.440,-0.867,0.482,0.033
40.450,-0.869,0.480,0.033
40.460,-0.869,0.482,0.033
40.469,-0.869,0.484,0.033
40.479,-0.873,0.486,0.029
40.489,-0.873,0.482,0.035
40.499,-0.873,0.479,0.033
40.509,-0.871,0.480,0.029
40.519,-0.875,0.479,0.031
40.529,-0.873,0.479,0.033
40.539,-0.871,0.482,0.029
40.549,-0.871,0.480,0.029
40.559,-0.871,0.480,0.035
40.569,-0.869,0.484,0.029
40.579,-0.875,0.482,0.031
40.589,-0.871,0.480,0.033
40.599,-0.871,0.477,0.029
40.608,-0.869,0.479,0.029
40.618,-0.873,0.480,0.031
40.628,-0.871,0.477,0.027
40.638,-0.871,0.479,0.033
40.648,-0.873,0.477,0.029
40.658,-0.871,0.477,0.031
40.668,-0.873,0.479,0.027
40.678,-0.873,0.477,0.031
40.688,-0.875,0.479,0.029
40.698,-0.875,0.479,0.029
40.708,-0.875,0.477,0.027
40.718,-0.873,0.479,0.031
40.728,-0.875,0.479,0.031
40.738,-0.873,0.477,0.031
40.747,-0.873,0.477,0.033
40.757,-0.877,0.473,0.031
40.767,-0.873,0.477,0.029
40.777,-0.877,0.475,0.029
40.787,-0.875,0.477,0.035
40.797,-0.875,0.477,0.033
40.807,-0.875,0.479,0.033
40.817,-0.877,0.475,0.031
40.827,-0.879,0.477,0.029
40.837,-0.877,0.477,0.033
40.847,-0.879,0.477,0.031
40.857,-0.877,0.477,0.031
40.867,-0.875,0.475,0.031
40.877,-0.879,0.479,0.031
40.886,-0.875,0.479,0.029
40.896,-0.871,0.480,0.033
40.906,-0.871,0.482,0.033
40.916,-0.869,0.484,0.035
40.926,-0.867,0.480,0.033
40.936,-0.865,0.477,0.033
40.946,-0.863,0.475,0.033
40.956,-0.867,0.477,0.031
40.966,-0.867,0.484,0.029
40.976,-0.869,0.484,0.027
40.986,-0.871,0.486,0.031
40.996,-0.867,0.486,0.029
41.006,-0.869,0.484,0.029
41.015,-0.873,0.479,0.031
41.025,-0.871,0.473,0.027
41.035,-0.873,0.475,0.027
41.045,-0.877,0.475,0.027
41.055,-0.875,0.475,0.025
41.065,-0.879,0.475,0.027
41.075,-0.879,0.477,0.029
41.085,-0.877,0.479,0.031
41.095,-0.879,0.482,0.027
41.105,-0.877,0.477,0.031
41.115,-0.877,0.479,0.031
41.125,-0.875,0.477,0.031
41.135,-0.875,0.475,0.031
41.145,-0.873,0.475,0.031
41.154,-0.871,0.477,0.033
41.164,-0.871,0.480,0.031
41.174,-0.867,0.482,0.033
41.184,-0.869,0.480,0.031
41.194,-0.865,0.482,0.035
41.204,-0.867,0.479,0.031
41.214,-0.867,0.480,0.031
41.224,-0.869,0.482,0.033
41.234,-0.867,0.479,0.033
41.244,-0.873,0.484,0.031
41.254,-0.865,0.480,0.031
41.264,-0.871,0.482,0.031
41.274,-0.873,0.482,0.031
41.284,-0.869,0.479,0.035
41.293,-0.871,0.477,0.033
41.303,-0.875,0.477,0.031
41.313,-0.871,0.482,0.035
41.323,-0.875,0.479,0.029
41.333,-0.875,0.479,0.031
41.343,-0.875,0.479,0.029
41.353,-0.877,0.479,0.033
41.363,-0.873,0.479,0.031
41.373,-0.873,0.480,0.031
41.383,-0.877,0.479,0.033
41.393,-0.873,0.477,0.031
41.403,-0.871,0.477,0.027
41.413,-0.871,0.477,0.027
41.422,-0.871,0.480,0.025
41.432,-0.871,0.479,0.027
41.442,-0.871,0.484,0.029
41.452,-0.871,0.484,0.027
41.462,-0.871,0.484,0.031
41.472,-0.871,0.480,0.033
41.482,-0.871,0.477,0.029
41.492,-0.873,0.473,0.029
41.502,-0.871,0.475,0.029
41.512,-0.871,0.477,0.033
41.522,-0.873,0.475,0.035
41.532,-0.873,0.479,0.029
41.542,-0.875,0.479,0.031
41.552,-0.873,0.477,0.031
41.561,-0.871,0.477,0.031
41.571,-0.873,0.473,0.033
41.581,-0.875,0.477,0.029
41.591,-0.873,0.477,0.029
41.601,-0.873,0.475,0.029
41.611,-0.873,0.477,0.031
41.621,-0.875,0.479,0.029
41.631,-0.875,0.479,0.029
41.641,-0.877,0.480,0.029
41.651,-0.877,0.480,0.027
41.661,-0.875,0.480,0.029
41.671,-0.877,0.479,0.027
41.681,-0.875,0.484,0.025
41.691,-0.879,0.480,0.027
41.700,-0.877,0.480,0.029
41.710,-0.875,0.479,0.031
41.720,-0.873,0.482,0.029
41.730,-0.875,0.480,0.025
41.740,-0.869,0.482,0.027
41.750,-0.867,0.484,0.027
41.760,-0.869,0.484,0.027
41.770,-0.867,0.484,0.029
41.780,-0.865,0.479,0.027
41.790,-0.865,0.477,0.025
41.800,-0.865,0.484,0.031
41.810,-0.869,0.486,0.027
41.820,-0.871,0.484,0.025
41.829,-0.871,0.484,0.029
41.839,-0.869,0.480,0.027
41.849,-0.871,0.480,0.027
41.859,-0.871,0.479,0.031
41.869,-0.875,0.471,0.029
41.879,-0.877,0.471,0.027
41.889,-0.881,0.473,0.027
41.899,-0.879,0.473,0.029
41.909,-0.881,0.475,0.029
41.919,-0.879,0.477,0.031
41.929,-0.877,0.475,0.033
41.939,-0.877,0.479,0.031
41.949,-0.875,0.480,0.031
41.959,-0.875,0.477,0.033
41.968,-0.873,0.475,0.033
41.978,-0.871,0.473,0.033
41.988,-0.875,0.475,0.033
41.998,-0.867,0.479,0.035
42.008,-0.871,0.479,0.035
42.018,-0.871,0.480,0.035
42.028,-0.871,0.480,0.035
42.038,-0.869,0.479,0.037
42.048,-0.871,0.477,0.037
42.058,-0.871,0.479,0.037
42.068,-0.875,0.479,0.039
42.078,-0.873,0.479,0.039
42.088,-0.871,0.480,0.037
42.098,-0.873,0.479,0.033
42.107,-0.869,0.479,0.035
42.117,-0.873,0.479,0.035
42.127,-0.875,0.482,0.033
42.137,-0.877,0.480,0.031
42.147,-0.875,0.480,0.033
42.157,-0.871,0.484,0.033
42.167,-0.873,0.480,0.031
42.177,-0.871,0.482,0.033
42.187,-0.871,0.479,0.031
42.197,-0.869,0.479,0.033
42.207,-0.865,0.479,0.029
42.217,-0.871,0.479,0.027
42.227,-0.869,0.479,0.031
42.236,-0.871,0.482,0.027
42.246,-0.871,0.480,0.029
42.256,-0.869,0.484,0.031
42.266,-0.871,0.486,0.031
42.276,-0.873,0.480,0.029
42.286,-0.869,0.480,0.029
42.296,-0.873,0.480,0.031
42.306,-0.873,0.479,0.033
42.316,-0.871,0.479,0.029
42.326,-0.873,0.479,0.031
42.336,-0.877,0.479,0.031
42.346,-0.875,0.477,0.033
42.356,-0.871,0.477,0.031
42.366,-0.871,0.475,0.033
42.375,-0.873,0.477,0.035
42.385,-0.871,0.469,0.035
42.395,-0.871,0.477,0.031
42.405,-0.875,0.477,0.031
42.415,-0.877,0.479,0.031
42.425,-0.875,0.480,0.033
42.435,-0.879,0.480,0.031
42.445,-0.879,0.479,0.031
42.455,-0.883,0.477,0.033
42.465,-0.885,0.477,0.033
42.475,-0.885,0.473,0.035
42.485,-0.879,0.475,0.037
42.495,-0.879,0.477,0.037
42.505,-0.879,0.475,0.035
42.514,-0.875,0.465,0.033
42.524,-0.873,0.471,0.039
42.534,-0.871,0.479,0.037
42.544,-0.865,0.477,0.037
42.554,-0.867,0.479,0.035
42.564,-0.871,0.477,0.035
42.574,-0.867,0.480,0.041
42.584,-0.867,0.480,0.039
42.594,-0.867,0.477,0.035
42.604,-0.869,0.471,0.037
42.614,-0.873,0.479,0.037
42.624,-0.879,0.471,0.029
42.634,-0.881,0.475,0.033
42.644,-0.877,0.475,0.035
42.653,-0.879,0.473,0.037
42.663,-0.879,0.475,0.037
42.673,-0.879,0.475,0.037
42.683,-0.881,0.473,0.037
42.693,-0.883,0.471,0.035
42.703,-0.879,0.473,0.037
42.713,-0.879,0.471,0.031
42.723,-0.889,0.463,0.020
42.733,-0.875,0.473,0.037
42.743,-0.875,0.477,0.035
42.753,-0.877,0.479,0.039
42.763,-0.879,0.475,0.033
42.773,-0.877,0.477,0.035
42.782,-0.873,0.479,0.037
42.792,-0.871,0.479,0.037
42.802,-0.875,0.479,0.039
42.812,-0.869,0.482,0.033
42.822,-0.869,0.479,0.037
42.832,-0.873,0.484,0.043
42.842,-0.867,0.482,0.039
42.852,-0.867,0.477,0.037
42.862,-0.871,0.477,0.037
42.872,-0.871,0.477,0.035
42.882,-0.873,0.471,0.033
42.892,-0.877,0.473,0.035
42.902,-0.877,0.473,0.035
42.912,-0.873,0.475,0.041
42.921,-0.875,0.477,0.037
42.931,-0.873,0.473,0.039
42.941,-0.877,0.473,0.041
42.951,-0.875,0.473,0.039
42.961,-0.881,0.471,0.041
42.971,-0.877,0.475,0.037
42.981,-0.879,0.473,0.039
42.991,-0.877,0.475,0.037
43.001,-0.881,0.477,0.035
43.011,-0.879,0.477,0.037
43.021,-0.879,0.475,0.035
43.031,-0.877,0.469,0.035
43.041,-0.877,0.473,0.035
43.051,-0.877,0.475,0.037
43.060,-0.875,0.475,0.035
43.070,-0.877,0.475,0.033
43.080,-0.873,0.479,0.035
43.090,-0.879,0.479,0.035
43.100,-0.875,0.479,0.035
43.110,-0.873,0.480,0.033
43.120,-0.875,0.480,0.037
43.130,-0.873,0.480,0.039
43.140,-0.873,0.477,0.035
43.150,-0.869,0.477,0.035
43.160,-0.869,0.475,0.037
43.170,-0.873,0.475,0.039
43.180,-0.875,0.475,0.039
43.189,-0.875,0.473,0.037
43.199,-0.875,0.473,0.039
43.209,-0.877,0.473,0.043
43.219,-0.881,0.477,0.039
43.229,-0.881,0.477,0.039
43.239,-0.881,0.475,0.037
43.249,-0.879,0.475,0.039
43.259,-0.879,0.471,0.041
43.269,-0.879,0.473,0.041
43.279,-0.879,0.477,0.043
43.289,-0.873,0.477,0.043
43.299,-0.871,0.477,0.041
43.309,-0.869,0.477,0.041
43.319,-0.869,0.477,0.039
43.328,-0.871,0.475,0.041
43.338,-0.871,0.471,0.041
43.348,-0.873,0.473,0.041
43.358,-0.875,0.479,0.041
43.368,-0.877,0.480,0.041
43.378,-0.873,0.479,0.037
43.388,-0.873,0.480,0.039
43.398,-0.873,0.477,0.039
43.408,-0.873,0.475,0.037
43.418,-0.873,0.473,0.039
43.428,-0.879,0.469,0.041
43.438,-0.877,0.469,0.035
43.448,-0.879,0.469,0.037
43.458,-0.883,0.469,0.039
43.467,-0.879,0.475,0.037
43.477,-0.879,0.479,0.037
43.487,-0.881,0.479,0.037
43.497,-0.879,0.480,0.037
43.507,-0.873,0.477,0.037
43.517,-0.877,0.475,0.037
43.527,-0.877,0.471,0.037
43.537,-0.877,0.469,0.037
43.547,-0.873,0.479,0.043
43.557,-0.869,0.479,0.041
43.567,-0.875,0.484,0.039
43.577,-0.879,0.479,0.037
43.587,-0.871,0.479,0.043
43.596,-0.867,0.479,0.041
43.606,-0.867,0.480,0.043
43.616,-0.867,0.484,0.043
43.626,-0.865,0.482,0.041
43.636,-0.873,0.477,0.035
43.646,-0.871,0.480,0.041
43.656,-0.871,0.484,0.043
43.666,-0.871,0.482,0.043
43.676,-0.869,0.479,0.045
43.686,-0.871,0.480,0.043
43.696,-0.875,0.479,0.045
43.706,-0.875,0.479,0.041
43.716,-0.877,0.479,0.045
43.726,-0.875,0.477,0.041
43.735,-0.873,0.475,0.039
43.745,-0.871,0.477,0.041
43.755,-0.871,0.477,0.041
43.765,-0.871,0.480,0.039
43.775,-0.873,0.482,0.039
43.785,-0.873,0.482,0.039
43.795,-0.873,0.480,0.039
43.805,-0.871,0.480,0.039
43.815,-0.873,0.480,0.039
43.825,-0.871,0.477,0.041
43.835,-0.873,0.475,0.039
43.845,-0.873,0.475,0.039
43.855,-0.871,0.475,0.039
43.865,-0.871,0.475,0.037
43.874,-0.871,0.473,0.037
43.884,-0.869,0.480,0.037
43.894,-0.871,0.479,0.037
43.904,-0.873,0.477,0.035
43.914,-0.873,0.479,0.037
43.924,-0.873,0.477,0.037
43.934,-0.875,0.480,0.037
43.944,-0.873,0.477,0.037
43.954,-0.873,0.477,0.035
43.964,-0.875,0.475,0.035
43.974,-0.875,0.480,0.033
43.984,-0.875,0.479,0.031
43.994,-0.875,0.482,0.039
44.004,-0.877,0.482,0.037
44.013,-0.881,0.482,0.035
44.023,-0.877,0.482,0.039
44.033,-0.873,0.479,0.041
44.043,-0.869,0.477,0.043
44.053,-0.871,0.482,0.041
44.063,-0.867,0.480,0.037
44.073,-0.867,0.477,0.041
44.083,-0.865,0.475,0.045
44.093,-0.865,0.480,0.039
44.103,-0.871,0.482,0.041
44.113,-0.869,0.484,0.039
44.123,-0.871,0.484,0.039
44.133,-0.869,0.482,0.037
44.142,-0.869,0.480,0.039
44.152,-0.871,0.477,0.037
44.162,-0.869,0.475,0.037
44.172,-0.869,0.477,0.033
44.182,-0.875,0.475,0.031
44.192,-0.877,0.479,0.035
44.202,-0.877,0.480,0.029
44.212,-0.875,0.482,0.035
44.222,-0.877,0.484,0.031
44.232,-0.875,0.482,0.031
44.242,-0.877,0.479,0.033
44.252,-0.875,0.480,0.029
44.262,-0.875,0.482,0.033
44.272,-0.879,0.479,0.031
44.281,-0.871,0.479,0.033
44.291,-0.873,0.482,0.035
44.301,-0.871,0.479,0.039
44.311,-0.871,0.480,0.037
44.321,-0.871,0.480,0.037
44.331,-0.865,0.477,0.039
44.341,-0.871,0.477,0.041
44.351,-0.871,0.479,0.039
44.361,-0.871,0.480,0.039
44.371,-0.871,0.479,0.041
44.381,-0.873,0.479,0.037
44.391,-0.873,0.479,0.039
44.401,-0.873,0.479,0.039
44.411,-0.873,0.480,0.035
44.420,-0.871,0.479,0.035
44.430,-0.875,0.480,0.037
44.440,-0.877,0.480,0.035
44.450,-0.875,0.477,0.033
44.460,-0.873,0.480,0.035
44.470,-0.873,0.479,0.035
44.480,-0.875,0.477,0.035
44.490,-0.871,0.479,0.039
44.500,-0.873,0.479,0.035
44.510,-0.875,0.477,0.035
44.520,-0.877,0.477,0.035
44.530,-0.877,0.479,0.033
44.540,-0.875,0.477,0.031
44.549,-0.873,0.475,0.033
44.559,-0.877,0.475,0.033
44.569,-0.877,0.473,0.033
44.579,-0.877,0.479,0.029
44.589,-0.877,0.477,0.033
44.599,-0.879,0.475,0.033
44.609,-0.877,0.477,0.037
44.619,-0.879,0.479,0.035
44.629,-0.877,0.479,0.033
44.639,-0.873,0.480,0.037
44.649,-0.873,0.479,0.035
44.659,-0.873,0.479,0.037
44.669,-0.871,0.477,0.033
44.679,-0.871,0.480,0.039
44.688,-0.871,0.479,0.037
44.698,-0.865,0.477,0.037
44.708,-0.869,0.480,0.037
44.718,-0.869,0.482,0.039
44.728,-0.871,0.480,0.037
44.738,-0.867,0.480,0.041
44.748,-0.867,0.480,0.045
44.758,-0.871,0.480,0.037
44.768,-0.873,0.479,0.037
44.778,-0.871,0.477,0.041
44.788,-0.875,0.477,0.039
44.798,-0.873,0.479,0.037
44.808,-0.871,0.479,0.037
44.818,-0.877,0.479,0.039
44.827,-0.875,0.482,0.039
44.837,-0.875,0.482,0.039
44.847,-0.873,0.484,0.041
44.857,-0.873,0.482,0.043
44.867,-0.871,0.482,0.039
44.877,-0.869,0.477,0.039
44.887,-0.869,0.477,0.039
44.897,-0.873,0.475,0.037
44.907,-0.869,0.480,0.037
44.917,-0.875,0.486,0.037
44.927,-0.871,0.484,0.035
44.937,-0.875,0.484,0.037
44.947,-0.873,0.484,0.039
44.956,-0.873,0.484,0.037
44.966,-0.869,0.479,0.039
44.976,-0.873,0.475,0.039
44.986,-0.873,0.477,0.035
44.996,-0.875,0.477,0.037
45.006,-0.877,0.477,0.035
45.016,-0.879,0.479,0.037
45.026,-0.877,0.484,0.037
45.036,-0.877,0.482,0.039
45.046,-0.873,0.484,0.039
45.056,-0.873,0.484,0.039
45.066,-0.871,0.482,0.045
45.076,-0.869,0.480,0.041
45.086,-0.867,0.477,0.041
45.095,-0.867,0.477,0.043
45.105,-0.861,0.480,0.045
45.115,-0.865,0.482,0.043
45.125,-0.863,0.486,0.043
45.135,-0.861,0.484,0.043
45.145,-0.859,0.482,0.043
45.155,-0.865,0.484,0.039
45.165,-0.863,0.484,0.045
45.175,-0.871,0.480,0.041
45.185,-0.869,0.480,0.039
45.195,-0.871,0.480,0.039
45.205,-0.871,0.480,0.039
45.215,-0.875,0.482,0.041
45.225,-0.873,0.480,0.039
45.234,-0.875,0.479,0.039
45.244,-0.877,0.477,0.045
45.254,-0.879,0.477,0.039
45.264,-0.877,0.477,0.039
45.274,-0.877,0.475,0.041
45.284,-0.875,0.477,0.041
45.294,-0.877,0.475,0.037
45.304,-0.875,0.475,0.039
45.314,-0.879,0.475,0.039
45.324,-0.879,0.475,0.039
45.334,-0.877,0.475,0.045
45.344,-0.875,0.475,0.043
45.354,-0.875,0.473,0.041
45.363,-0.875,0.471,0.041
45.373,-0.875,0.475,0.041
45.383,-0.875,0.475,0.043
45.393,-0.875,0.473,0.041
45.403,-0.875,0.475,0.041
45.413,-0.877,0.477,0.039
45.423,-0.875,0.477,0.043
45.433,-0.875,0.479,0.041
45.443,-0.873,0.477,0.043
45.453,-0.877,0.480,0.043
45.463,-0.875,0.477,0.041
45.473,-0.877,0.477,0.043
45.483,-0.873,0.475,0.045
45.493,-0.873,0.473,0.045
45.502,-0.873,0.471,0.045
45.512,-0.873,0.473,0.041
45.522,-0.873,0.473,0.047
45.532,-0.877,0.475,0.041
45.542,-0.877,0.473,0.043
45.552,-0.875,0.475,0.047
45.562,-0.879,0.475,0.047
45.572,-0.879,0.479,0.047
45.582,-0.879,0.477,0.045
45.592,-0.879,0.471,0.043
45.602,-0.875,0.475,0.045
45.612,-0.875,0.477,0.043
45.622,-0.873,0.479,0.043
45.632,-0.867,0.479,0.047
45.641,-0.871,0.482,0.041
45.651,-0.871,0.482,0.045
45.661,-0.869,0.482,0.045
45.671,-0.865,0.480,0.045
45.681,-0.867,0.477,0.041
45.691,-0.869,0.482,0.043
45.701,-0.869,0.486,0.043
45.711,-0.871,0.482,0.041
45.721,-0.871,0.482,0.043
45.731,-0.871,0.484,0.043
45.741,-0.869,0.480,0.045
45.751,-0.873,0.477,0.041
45.761,-0.871,0.475,0.041
45.771,-0.873,0.475,0.039
45.780,-0.875,0.477,0.047
45.790,-0.875,0.475,0.043
45.800,-0.875,0.477,0.041
45.810,-0.873,0.480,0.039
45.820,-0.875,0.479,0.043
45.830,-0.875,0.484,0.039
45.840,-0.873,0.484,0.043
45.850,-0.871,0.482,0.043
45.860,-0.871,0.484,0.039
45.870,-0.873,0.482,0.041
45.880,-0.871,0.480,0.043
45.890,-0.869,0.482,0.043
45.900,-0.873,0.484,0.041
45.909,-0.869,0.482,0.043
45.919,-0.869,0.482,0.043
45.929,-0.869,0.482,0.043
45.939,-0.873,0.482,0.045
45.949,-0.869,0.480,0.045
45.959,-0.873,0.479,0.043
45.969,-0.871,0.479,0.045
45.979,-0.869,0.475,0.045
45.989,-0.871,0.480,0.045
45.999,-0.869,0.482,0.047
46.009,-0.873,0.479,0.045
46.019,-0.873,0.480,0.045
46.029,-0.873,0.482,0.041
46.039,-0.869,0.480,0.039
46.048,-0.869,0.482,0.043
46.058,-0.871,0.480,0.041
46.068,-0.871,0.480,0.043
46.078,-0.871,0.480,0.043
46.088,-0.871,0.482,0.043
46.098,-0.867,0.486,0.039
46.108,-0.871,0.484,0.041
46.118,-0.871,0.482,0.041
46.128,-0.869,0.480,0.039
46.138,-0.865,0.482,0.041
46.148,-0.867,0.484,0.041
46.158,-0.867,0.482,0.041
46.168,-0.869,0.486,0.043
46.178,-0.867,0.482,0.047
46.187,-0.869,0.479,0.041
46.197,-0.869,0.480,0.041
46.207,-0.871,0.482,0.041
46.217,-0.871,0.477,0.039
46.227,-0.871,0.479,0.043
46.237,-0.871,0.477,0.039
46.247,-0.873,0.482,0.043
46.257,-0.873,0.482,0.039
46.267,-0.875,0.482,0.037
46.277,-0.873,0.488,0.037
46.287,-0.875,0.486,0.037
46.297,-0.875,0.486,0.037
46.307,-0.875,0.484,0.037
46.316,-0.873,0.482,0.035
46.326,-0.871,0.482,0.039
46.336,-0.871,0.477,0.041
46.346,-0.873,0.480,0.039
46.356,-0.869,0.479,0.043
46.366,-0.871,0.479,0.043
46.376,-0.869,0.479,0.043
46.386,-0.867,0.480,0.045
46.396,-0.871,0.484,0.045
46.406,-0.869,0.475,0.045
46.416,-0.869,0.469,0.045
46.426,-0.875,0.469,0.045
46.436,-0.883,0.471,0.039
46.446,-0.883,0.477,0.045
46.455,-0.879,0.477,0.047
46.465,-0.883,0.471,0.041
46.475,-0.879,0.475,0.043
46.485,-0.883,0.477,0.045
46.495,-0.877,0.473,0.047
46.505,-0.877,0.467,0.045
46.515,-0.879,0.469,0.045
46.525,-0.877,0.471,0.041
46.535,-0.879,0.477,0.043
46.545,-0.875,0.479,0.041
46.555,-0.869,0.484,0.045
46.565,-0.867,0.484,0.041
46.575,-0.869,0.480,0.039
46.585,-0.873,0.479,0.041
46.594,-0.861,0.486,0.041
46.604,-0.867,0.484,0.041
46.614,-0.865,0.482,0.045
46.624,-0.867,0.480,0.043
46.634,-0.863,0.486,0.043
46.644,-0.865,0.488,0.045
46.654,-0.869,0.488,0.043
46.664,-0.865,0.486,0.041
46.674,-0.863,0.482,0.047
46.684,-0.867,0.484,0.041
46.694,-0.867,0.479,0.043
46.704,-0.873,0.480,0.043
46.714,-0.873,0.480,0.041
46.723,-0.871,0.482,0.037
46.733,-0.877,0.480,0.041
46.743,-0.871,0.482,0.041
46.753,-0.873,0.480,0.039
46.763,-0.873,0.477,0.039
46.773,-0.873,0.482,0.041
46.783,-0.871,0.482,0.041
46.793,-0.871,0.484,0.037
46.803,-0.869,0.484,0.041
46.813,-0.869,0.486,0.041
46.823,-0.869,0.484,0.043
46.833,-0.873,0.484,0.039
46.843,-0.869,0.482,0.037
46.853,-0.871,0.482,0.037
46.862,-0.871,0.484,0.039
46.872,-0.873,0.480,0.037
46.882,-0.871,0.479,0.039
46.892,-0.869,0.482,0.039
46.902,-0.871,0.480,0.039
46.912,-0.869,0.480,0.039
46.922,-0.869,0.482,0.037
46.932,-0.869,0.480,0.037
46.942,-0.869,0.479,0.039
46.952,-0.873,0.480,0.039
46.962,-0.871,0.477,0.037
46.972,-0.873,0.480,0.037
46.982,-0.873,0.479,0.039
46.992,-0.875,0.480,0.035
47.001,-0.873,0.480,0.037
47.011,-0.875,0.482,0.039
47.021,-0.877,0.480,0.039
47.031,-0.877,0.480,0.039
47.041,-0.875,0.475,0.037
47.051,-0.877,0.479,0.039
47.061,-0.875,0.477,0.041
47.071,-0.873,0.480,0.043
47.081,-0.871,0.480,0.041
47.091,-0.871,0.480,0.043
47.101,-0.869,0.482,0.041
47.111,-0.867,0.477,0.039
47.121,-0.867,0.477,0.039
47.130,-0.869,0.479,0.045
47.140,-0.869,0.482,0.041
47.150,-0.873,0.484,0.041
47.160,-0.873,0.482,0.039
47.170,-0.873,0.479,0.043
47.180,-0.871,0.477,0.039
47.190,-0.869,0.477,0.039
47.200,-0.873,0.479,0.039
47.210,-0.875,0.475,0.039
47.220,-0.879,0.475,0.037
47.230,-0.881,0.477,0.035
47.240,-0.879,0.477,0.037
47.250,-0.879,0.480,0.037
47.260,-0.877,0.480,0.035
47.269,-0.873,0.479,0.037
47.279,-0.875,0.480,0.037
47.289,-0.873,0.480,0.039
47.299,-0.871,0.484,0.039
47.309,-0.873,0.479,0.039
47.319,-0.869,0.480,0.037
47.329,-0.867,0.482,0.037
47.339,-0.871,0.479,0.039
47.349,-0.867,0.488,0.043
47.359,-0.865,0.486,0.039
47.369,-0.867,0.482,0.041
47.379,-0.869,0.482,0.043
47.389,-0.867,0.488,0.039
47.399,-0.869,0.486,0.039
47.408,-0.869,0.484,0.039
47.418,-0.869,0.482,0.043
47.428,-0.869,0.480,0.037
47.438,-0.871,0.482,0.039
47.448,-0.867,0.484,0.037
47.458,-0.869,0.480,0.039
47.468,-0.867,0.480,0.039
47.478,-0.867,0.479,0.037
47.488,-0.865,0.484,0.039
47.498,-0.865,0.484,0.037
47.508,-0.871,0.486,0.037
47.518,-0.869,0.484,0.041
47.528,-0.871,0.484,0.035
47.538,-0.877,0.484,0.041
47.547,-0.873,0.484,0.035
47.557,-0.873,0.479,0.041
47.567,-0.877,0.482,0.037
47.577,-0.877,0.479,0.035
47.587,-0.875,0.479,0.035
47.597,-0.877,0.479,0.039
47.607,-0.877,0.477,0.039
47.617,-0.875,0.480,0.039
47.627,-0.877,0.477,0.039
47.637,-0.875,0.479,0.039
47.647,-0.875,0.477,0.035
47.657,-0.875,0.479,0.035
47.667,-0.875,0.479,0.041
47.676,-0.875,0.475,0.039
47.686,-0.873,0.475,0.039
47.696,-0.877,0.475,0.039
47.706,-0.875,0.479,0.039
47.716,-0.877,0.475,0.039
47.726,-0.877,0.473,0.037
47.736,-0.877,0.477,0.039
47.746,-0.877,0.479,0.039
47.756,-0.879,0.477,0.037
47.766,-0.879,0.479,0.033
47.776,-0.875,0.479,0.037
47.786,-0.877,0.475,0.037
47.796,-0.877,0.479,0.039
47.806,-0.875,0.482,0.037
47.815,-0.875,0.484,0.039
47.825,-0.871,0.484,0.041
47.835,-0.869,0.484,0.039
47.845,-0.869,0.484,0.039
47.855,-0.867,0.480,0.039
47.865,-0.863,0.477,0.041
47.875,-0.867,0.473,0.041
47.885,-0.867,0.482,0.041
47.895,-0.871,0.482,0.041
47.905,-0.871,0.482,0.043
47.915,-0.871,0.480,0.041
47.925,-0.869,0.480,0.041
47.935,-0.871,0.482,0.037
47.945,-0.875,0.475,0.039
47.954,-0.873,0.475,0.039
47.964,-0.879,0.475,0.037
47.974,-0.877,0.475,0.037
47.984,-0.879,0.475,0.039
47.994,-0.879,0.479,0.039
48.004,-0.877,0.479,0.039
48.014,-0.875,0.484,0.035
48.024,-0.875,0.484,0.037
48.034,-0.873,0.480,0.037
48.044,-0.871,0.484,0.037
48.054,-0.873,0.482,0.035
48.064,-0.869,0.480,0.037
48.074,-0.867,0.482,0.041
48.083,-0.869,0.482,0.045
48.093,-0.867,0.486,0.039
48.103,-0.867,0.488,0.043
48.113,-0.863,0.486,0.039
48.123,-0.865,0.484,0.041
48.133,-0.869,0.484,0.043
48.143,-0.867,0.484,0.039
48.153,-0.867,0.488,0.045
48.163,-0.867,0.486,0.041
48.173,-0.869,0.484,0.043
48.183,-0.871,0.480,0.041
48.193,-0.871,0.482,0.041
48.203,-0.871,0.480,0.041
48.213,-0.869,0.479,0.039
48.222,-0.867,0.479,0.043
48.232,-0.873,0.479,0.043
48.242,-0.871,0.480,0.045
48.252,-0.873,0.480,0.043
48.262,-0.875,0.482,0.041
48.272,-0.873,0.482,0.041
48.282,-0.871,0.477,0.039
48.292,-0.875,0.479,0.039
48.302,-0.873,0.477,0.037
48.312,-0.873,0.479,0.039
48.322,-0.875,0.479,0.039
48.332,-0.875,0.479,0.041
48.342,-0.875,0.479,0.037
48.352,-0.871,0.479,0.039
48.361,-0.875,0.480,0.037
48.371,-0.871,0.480,0.037
48.381,-0.873,0.482,0.037
48.391,-0.873,0.477,0.037
48.401,-0.875,0.477,0.037
48.411,-0.871,0.477,0.039
48.421,-0.875,0.477,0.037
48.431,-0.873,0.479,0.037
48.441,-0.873,0.480,0.041
48.451,-0.875,0.480,0.039
48.461,-0.871,0.477,0.039
48.471,-0.871,0.479,0.039
48.481,-0.875,0.475,0.039
48.490,-0.877,0.475,0.039
48.500,-0.873,0.479,0.039
48.510,-0.875,0.479,0.037
48.520,-0.873,0.479,0.037
48.530,-0.871,0.480,0.039
48.540,-0.873,0.482,0.039
48.550,-0.871,0.480,0.037
48.560,-0.871,0.480,0.039
48.570,-0.871,0.480,0.039
48.580,-0.871,0.479,0.037
48.590,-0.875,0.480,0.031
48.600,-0.873,0.480,0.039
48.610,-0.873,0.482,0.035
48.620,-0.873,0.482,0.039
48.629,-0.873,0.479,0.041
48.639,-0.873,0.482,0.037
48.649,-0.875,0.477,0.035
48.659,-0.875,0.477,0.037
48.669,-0.873,0.479,0.037
48.679,-0.877,0.480,0.035
48.689,-0.871,0.482,0.039
48.699,-0.869,0.488,0.041
48.709,-0.871,0.488,0.039
48.719,-0.869,0.484,0.039
48.729,-0.867,0.477,0.039
48.739,-0.865,0.473,0.041
48.749,-0.865,0.477,0.037
48.759,-0.871,0.482,0.037
48.768,-0.873,0.484,0.041
48.778,-0.875,0.482,0.039
48.788,-0.873,0.482,0.037
48.798,-0.875,0.482,0.039
48.808,-0.875,0.479,0.037
48.818,-0.875,0.475,0.035
48.828,-0.875,0.473,0.039
48.838,-0.877,0.473,0.037
48.848,-0.877,0.471,0.037
48.858,-0.875,0.475,0.035
48.868,-0.877,0.479,0.037
48.878,-0.875,0.480,0.035
48.888,-0.877,0.482,0.037
48.898,-0.873,0.482,0.037
48.907,-0.873,0.479,0.041
48.917,-0.873,0.479,0.037
48.927,-0.873,0.477,0.037
48.937,-0.869,0.477,0.039
48.947,-0.869,0.479,0.039
48.957,-0.869,0.480,0.041
48.967,-0.873,0.482,0.037
48.977,-0.871,0.479,0.041
48.987,-0.867,0.480,0.039
48.997,-0.873,0.480,0.037
49.007,-0.871,0.479,0.041
49.017,-0.873,0.484,0.037
49.027,-0.875,0.484,0.039
49.036,-0.869,0.486,0.037
49.046,-0.873,0.482,0.037
49.056,-0.873,0.480,0.037
49.066,-0.873,0.482,0.039
49.076,-0.871,0.480,0.037
49.086,-0.869,0.479,0.035
49.096,-0.871,0.479,0.035
49.106,-0.871,0.480,0.037
49.116,-0.871,0.484,0.037
49.126,-0.873,0.484,0.037
49.136,-0.869,0.488,0.035
49.146,-0.869,0.484,0.035
49.156,-0.867,0.486,0.039
49.166,-0.865,0.482,0.037
49.175,-0.869,0.482,0.037
49.185,-0.867,0.477,0.039
49.195,-0.873,0.477,0.037
49.205,-0.871,0.477,0.039
49.215,-0.871,0.480,0.039
49.225,-0.871,0.480,0.039
49.235,-0.871,0.477,0.035
49.245,-0.875,0.477,0.039
49.255,-0.871,0.479,0.039
49.265,-0.873,0.477,0.037
49.275,-0.875,0.475,0.037
49.285,-0.879,0.477,0.035
49.295,-0.873,0.477,0.039
49.305,-0.875,0.475,0.037
49.314,-0.879,0.475,0.041
49.324,-0.879,0.477,0.039
49.334,-0.879,0.475,0.043
49.344,-0.879,0.473,0.037
49.354,-0.879,0.471,0.039
49.364,-0.877,0.469,0.043
49.374,-0.875,0.471,0.041
49.384,-0.875,0.471,0.039
49.394,-0.877,0.473,0.039
49.404,-0.875,0.477,0.039
49.414,-0.875,0.479,0.039
49.424,-0.875,0.477,0.037
49.434,-0.877,0.477,0.037
49.443,-0.873,0.473,0.041
49.453,-0.875,0.475,0.039
49.463,-0.877,0.479,0.035
49.473,-0.883,0.475,0.035
49.483,-0.877,0.477,0.033
49.493,-0.879,0.475,0.035
49.503,-0.875,0.479,0.037
49.513,-0.875,0.480,0.035
49.523,-0.873,0.480,0.037
49.533,-0.871,0.479,0.037
49.543,-0.871,0.484,0.039
49.553,-0.869,0.479,0.035
49.563,-0.869,0.473,0.037
49.573,-0.869,0.473,0.039
49.582,-0.871,0.479,0.041
49.592,-0.871,0.486,0.037
49.602,-0.871,0.482,0.037
49.612,-0.875,0.477,0.035
49.622,-0.873,0.479,0.037
49.632,-0.875,0.482,0.037
49.642,-0.879,0.477,0.037
49.652,-0.875,0.475,0.037
49.662,-0.877,0.471,0.033
49.672,-0.877,0.469,0.033
49.682,-0.879,0.473,0.035
49.692,-0.879,0.471,0.035
49.702,-0.879,0.477,0.039
49.712,-0.879,0.479,0.035
49.721,-0.879,0.482,0.037
49.731,-0.875,0.480,0.037
49.741,-0.875,0.482,0.041
49.751,-0.873,0.479,0.039
49.761,-0.875,0.475,0.037
49.771,-0.873,0.477,0.039
49.781,-0.869,0.477,0.041
49.791,-0.875,0.479,0.039
49.801,-0.873,0.480,0.039
49.811,-0.871,0.477,0.037
49.821,-0.871,0.479,0.037
49.831,-0.873,0.480,0.039
49.841,-0.869,0.482,0.041
49.850,-0.869,0.480,0.039
49.860,-0.871,0.479,0.041
49.870,-0.871,0.477,0.039
49.880,-0.873,0.479,0.039
49.890,-0.871,0.479,0.039
49.900,-0.869,0.475,0.039
49.910,-0.869,0.477,0.039
49.920,-0.873,0.477,0.037
49.930,-0.879,0.479,0.039
49.940,-0.873,0.479,0.037
49.950,-0.875,0.480,0.039
49.960,-0.877,0.482,0.037
49.970,-0.873,0.480,0.037
49.980,-0.877,0.479,0.041
49.989,-0.871,0.480,0.037
49.999,-0.873,0.477,0.037
50.009,-0.873,0.477,0.037
50.019,-0.873,0.479,0.041
50.029,-0.869,0.479,0.037
50.039,-0.869,0.479,0.039
50.049,-0.869,0.480,0.039
