df_hash,22ZHK4.TV3FRY
device,HZ2X61
project_hash,29R7
project_name,istanbul_aydin_university
person_hash,29R7.BYSR
person_label,V149
date_time_start,2026-06-08_17-46-39.600000_+03
date_time_start_unix,1780922799.6
date_time_end,2026-06-08_17-58-20.159000_+03
length_difference_noticed,no

time,acc_x,acc_y,acc_z
4.966,-0.336,0.969,0.154
4.975,-0.328,0.975,0.160
4.985,-0.312,0.961,0.166
4.995,-0.303,0.951,0.178
5.005,-0.289,0.938,0.184
5.015,-0.275,0.939,0.191
5.025,-0.277,0.949,0.195
5.035,-0.287,0.943,0.188
5.045,-0.297,0.941,0.186
5.055,-0.301,0.951,0.182
5.065,-0.307,0.949,0.180
5.075,-0.307,0.947,0.174
5.085,-0.314,0.949,0.174
5.095,-0.316,0.957,0.180
5.104,-0.314,0.959,0.172
5.114,-0.314,0.955,0.166
5.124,-0.318,0.953,0.168
5.134,-0.318,0.955,0.164
5.144,-0.322,0.957,0.160
5.154,-0.334,0.955,0.156
5.164,-0.332,0.955,0.148
5.174,-0.342,0.965,0.148
5.184,-0.350,0.963,0.145
5.194,-0.357,0.961,0.143
5.204,-0.363,0.965,0.145
5.214,-0.369,0.961,0.139
5.224,-0.377,0.961,0.141
5.233,-0.385,0.959,0.135
5.243,-0.402,0.965,0.131
5.253,-0.402,0.965,0.131
5.263,-0.414,0.961,0.125
5.273,-0.410,0.957,0.127
5.283,-0.400,0.951,0.137
5.293,-0.375,0.951,0.150
5.303,-0.369,0.949,0.150
5.313,-0.367,0.949,0.150
5.323,-0.361,0.943,0.156
5.333,-0.363,0.945,0.158
5.343,-0.359,0.949,0.162
5.353,-0.357,0.949,0.164
5.363,-0.350,0.939,0.172
5.372,-0.344,0.939,0.176
5.382,-0.348,0.941,0.174
5.392,-0.359,0.936,0.170
5.402,-0.363,0.930,0.170
5.412,-0.363,0.932,0.166
5.422,-0.375,0.930,0.164
5.432,-0.387,0.924,0.164
5.442,-0.393,0.932,0.164
5.452,-0.389,0.934,0.160
5.462,-0.383,0.941,0.164
5.472,-0.377,0.945,0.166
5.482,-0.363,0.951,0.168
5.492,-0.357,0.961,0.170
5.501,-0.352,0.967,0.168
5.511,-0.354,0.963,0.170
5.521,-0.354,0.961,0.166
5.531,-0.355,0.961,0.166
5.541,-0.355,0.957,0.164
5.551,-0.359,0.953,0.166
5.561,-0.361,0.955,0.168
5.571,-0.361,0.949,0.168
5.581,-0.361,0.949,0.172
5.591,-0.355,0.945,0.170
5.601,-0.352,0.947,0.170
5.611,-0.355,0.939,0.166
5.621,-0.361,0.936,0.168
5.631,-0.365,0.941,0.170
5.640,-0.367,0.945,0.170
5.650,-0.369,0.947,0.166
5.660,-0.371,0.947,0.168
5.670,-0.367,0.947,0.168
5.680,-0.357,0.945,0.166
5.690,-0.354,0.947,0.168
5.700,-0.354,0.943,0.172
5.710,-0.361,0.941,0.166
5.720,-0.361,0.943,0.162
5.730,-0.365,0.945,0.164
5.740,-0.371,0.941,0.162
5.750,-0.371,0.941,0.164
5.760,-0.377,0.945,0.164
5.769,-0.375,0.943,0.164
5.779,-0.375,0.947,0.168
5.789,-0.375,0.945,0.166
5.799,-0.373,0.943,0.162
5.809,-0.377,0.939,0.162
5.819,-0.383,0.943,0.166
5.829,-0.383,0.941,0.160
5.839,-0.385,0.945,0.160
5.849,-0.383,0.943,0.162
5.859,-0.385,0.947,0.162
5.869,-0.387,0.947,0.162
5.879,-0.391,0.943,0.162
5.889,-0.396,0.945,0.158
5.898,-0.396,0.943,0.154
5.908,-0.402,0.939,0.154
5.918,-0.404,0.941,0.156
5.928,-0.402,0.938,0.158
5.938,-0.404,0.939,0.160
5.948,-0.393,0.949,0.150
5.958,-0.387,0.943,0.164
5.968,-0.371,0.947,0.162
5.978,-0.354,0.953,0.168
5.988,-0.338,0.951,0.156
5.998,-0.340,0.959,0.166
6.008,-0.375,0.939,0.162
6.018,-0.365,0.939,0.154
6.028,-0.363,0.943,0.164
6.037,-0.379,0.941,0.164
6.047,-0.373,0.936,0.172
6.057,-0.367,0.938,0.182
6.067,-0.363,0.938,0.180
6.077,-0.355,0.939,0.182
6.087,-0.348,0.939,0.182
6.097,-0.350,0.939,0.176
6.107,-0.350,0.938,0.176
6.117,-0.354,0.938,0.174
6.127,-0.354,0.943,0.170
6.137,-0.352,0.943,0.176
6.147,-0.355,0.938,0.166
6.157,-0.363,0.941,0.166
6.166,-0.365,0.945,0.166
6.176,-0.371,0.943,0.166
6.186,-0.375,0.951,0.168
6.196,-0.373,0.953,0.170
6.206,-0.365,0.957,0.168
6.216,-0.357,0.951,0.170
6.226,-0.350,0.949,0.170
6.236,-0.344,0.939,0.160
6.246,-0.346,0.955,0.160
6.256,-0.354,0.961,0.160
6.266,-0.357,0.965,0.154
6.276,-0.365,0.961,0.150
6.286,-0.365,0.963,0.152
6.295,-0.361,0.957,0.150
6.305,-0.354,0.959,0.154
6.315,-0.346,0.969,0.158
6.325,-0.348,0.971,0.156
6.335,-0.342,0.969,0.156
6.345,-0.338,0.961,0.158
6.355,-0.334,0.959,0.158
6.365,-0.328,0.953,0.158
6.375,-0.332,0.951,0.160
6.385,-0.330,0.949,0.164
6.395,-0.340,0.947,0.162
6.405,-0.342,0.949,0.164
6.415,-0.346,0.949,0.160
6.425,-0.354,0.947,0.160
6.434,-0.355,0.949,0.162
6.444,-0.363,0.955,0.162
6.454,-0.369,0.959,0.166
6.464,-0.367,0.953,0.164
6.474,-0.369,0.953,0.164
6.484,-0.363,0.949,0.166
6.494,-0.361,0.951,0.166
6.504,-0.355,0.951,0.170
6.514,-0.355,0.949,0.166
6.524,-0.355,0.951,0.166
6.534,-0.350,0.947,0.168
6.544,-0.348,0.949,0.170
6.554,-0.350,0.945,0.166
6.563,-0.350,0.949,0.162
6.573,-0.354,0.947,0.166
6.583,-0.355,0.951,0.168
6.593,-0.363,0.949,0.166
6.603,-0.361,0.947,0.164
6.613,-0.361,0.943,0.158
6.623,-0.365,0.941,0.156
6.633,-0.367,0.947,0.158
6.643,-0.365,0.949,0.160
6.653,-0.365,0.953,0.160
6.663,-0.367,0.957,0.164
6.673,-0.367,0.955,0.164
6.683,-0.367,0.955,0.164
6.693,-0.371,0.957,0.162
6.702,-0.371,0.949,0.164
6.712,-0.363,0.949,0.164
6.722,-0.363,0.943,0.166
6.732,-0.361,0.943,0.164
6.742,-0.361,0.945,0.166
6.752,-0.361,0.947,0.164
6.762,-0.355,0.949,0.166
6.772,-0.355,0.949,0.166
6.782,-0.359,0.949,0.170
6.792,-0.357,0.951,0.172
6.802,-0.361,0.951,0.170
6.812,-0.359,0.951,0.170
6.822,-0.361,0.947,0.172
6.831,-0.357,0.953,0.170
6.841,-0.355,0.955,0.166
6.851,-0.348,0.951,0.170
6.861,-0.346,0.953,0.174
6.871,-0.344,0.957,0.170
6.881,-0.336,0.953,0.174
6.891,-0.338,0.955,0.174
6.901,-0.340,0.949,0.172
6.911,-0.340,0.947,0.172
6.921,-0.344,0.953,0.176
6.931,-0.342,0.949,0.174
6.941,-0.340,0.953,0.182
6.951,-0.334,0.957,0.182
6.960,-0.332,0.953,0.186
6.970,-0.328,0.957,0.186
6.980,-0.326,0.953,0.184
6.990,-0.326,0.953,0.188
7.000,-0.326,0.951,0.184
7.010,-0.332,0.947,0.186
7.020,-0.322,0.949,0.186
7.030,-0.326,0.951,0.184
7.040,-0.328,0.949,0.186
7.050,-0.328,0.957,0.182
7.060,-0.330,0.953,0.186
7.070,-0.338,0.957,0.186
7.080,-0.342,0.953,0.184
7.090,-0.334,0.951,0.182
7.099,-0.336,0.953,0.180
7.109,-0.342,0.949,0.178
7.119,-0.342,0.953,0.176
7.129,-0.346,0.955,0.176
7.139,-0.350,0.957,0.178
7.149,-0.348,0.959,0.174
7.159,-0.346,0.961,0.174
7.169,-0.346,0.955,0.174
7.179,-0.346,0.957,0.174
7.189,-0.348,0.957,0.176
7.199,-0.346,0.953,0.174
7.209,-0.348,0.955,0.178
7.219,-0.346,0.959,0.174
7.228,-0.346,0.957,0.176
7.238,-0.344,0.955,0.178
7.248,-0.346,0.947,0.170
7.258,-0.342,0.949,0.176
7.268,-0.342,0.949,0.174
7.278,-0.344,0.951,0.174
7.288,-0.344,0.953,0.172
7.298,-0.350,0.949,0.176
7.308,-0.344,0.953,0.174
7.318,-0.346,0.953,0.176
7.328,-0.346,0.957,0.178
7.338,-0.344,0.957,0.178
7.348,-0.346,0.959,0.174
7.358,-0.346,0.953,0.178
7.367,-0.350,0.953,0.176
7.377,-0.348,0.947,0.176
7.387,-0.350,0.947,0.174
7.397,-0.346,0.951,0.174
7.407,-0.346,0.953,0.174
7.417,-0.344,0.953,0.174
7.427,-0.342,0.953,0.174
7.437,-0.342,0.957,0.172
7.447,-0.340,0.955,0.170
7.457,-0.340,0.957,0.174
7.467,-0.340,0.957,0.172
7.477,-0.336,0.957,0.170
7.487,-0.336,0.957,0.170
7.496,-0.338,0.957,0.170
7.506,-0.336,0.959,0.172
7.516,-0.338,0.959,0.170
7.526,-0.336,0.959,0.172
7.536,-0.334,0.959,0.172
7.546,-0.334,0.957,0.172
7.556,-0.334,0.959,0.178
7.566,-0.334,0.959,0.176
7.576,-0.336,0.957,0.174
7.586,-0.334,0.961,0.176
7.596,-0.332,0.963,0.174
7.606,-0.328,0.961,0.174
7.616,-0.332,0.957,0.176
7.625,-0.330,0.957,0.174
7.635,-0.332,0.953,0.174
7.645,-0.332,0.957,0.174
7.655,-0.330,0.955,0.174
7.665,-0.334,0.957,0.172
7.675,-0.336,0.955,0.170
7.685,-0.332,0.955,0.170
7.695,-0.330,0.959,0.174
7.705,-0.336,0.959,0.174
7.715,-0.334,0.959,0.174
7.725,-0.330,0.961,0.176
7.735,-0.330,0.961,0.174
7.745,-0.332,0.961,0.176
7.755,-0.330,0.959,0.174
7.764,-0.328,0.959,0.178
7.774,-0.328,0.957,0.178
7.784,-0.326,0.955,0.176
7.794,-0.330,0.951,0.176
7.804,-0.330,0.955,0.174
7.814,-0.328,0.951,0.176
7.824,-0.330,0.957,0.178
7.834,-0.328,0.957,0.174
7.844,-0.330,0.959,0.174
7.854,-0.330,0.959,0.176
7.864,-0.330,0.961,0.172
7.874,-0.330,0.961,0.178
7.884,-0.332,0.955,0.174
7.893,-0.328,0.951,0.172
7.903,-0.326,0.949,0.170
7.913,-0.326,0.953,0.172
7.923,-0.326,0.959,0.174
7.933,-0.328,0.963,0.166
7.943,-0.330,0.965,0.166
7.953,-0.328,0.967,0.174
7.963,-0.326,0.967,0.174
7.973,-0.326,0.963,0.172
7.983,-0.326,0.959,0.172
7.993,-0.328,0.955,0.172
8.003,-0.328,0.957,0.172
8.013,-0.332,0.959,0.174
8.023,-0.332,0.959,0.170
8.032,-0.334,0.955,0.170
8.042,-0.334,0.955,0.168
8.052,-0.338,0.955,0.170
8.062,-0.334,0.955,0.168
8.072,-0.330,0.959,0.172
8.082,-0.328,0.959,0.172
8.092,-0.330,0.961,0.170
8.102,-0.330,0.959,0.170
8.112,-0.332,0.961,0.170
8.122,-0.334,0.961,0.168
8.132,-0.330,0.957,0.172
8.142,-0.328,0.953,0.170
8.152,-0.330,0.957,0.170
8.161,-0.328,0.957,0.172
8.171,-0.330,0.955,0.170
8.181,-0.324,0.957,0.172
8.191,-0.324,0.959,0.172
8.201,-0.328,0.957,0.170
8.211,-0.326,0.959,0.176
8.221,-0.328,0.959,0.172
8.231,-0.326,0.961,0.176
8.241,-0.326,0.957,0.172
8.251,-0.326,0.963,0.176
8.261,-0.324,0.957,0.174
8.271,-0.330,0.955,0.170
8.281,-0.328,0.957,0.170
8.290,-0.328,0.953,0.170
8.300,-0.330,0.955,0.172
8.310,-0.334,0.957,0.170
8.320,-0.332,0.957,0.170
8.330,-0.330,0.959,0.168
8.340,-0.330,0.959,0.168
8.350,-0.330,0.959,0.170
8.360,-0.328,0.961,0.168
8.370,-0.334,0.959,0.170
8.380,-0.332,0.959,0.170
8.390,-0.334,0.961,0.168
8.400,-0.334,0.963,0.168
8.410,-0.334,0.959,0.164
8.420,-0.330,0.959,0.166
8.429,-0.332,0.959,0.168
8.439,-0.330,0.961,0.166
8.449,-0.330,0.959,0.166
8.459,-0.328,0.959,0.168
8.469,-0.326,0.957,0.166
8.479,-0.326,0.957,0.166
8.489,-0.328,0.959,0.170
8.499,-0.328,0.959,0.172
8.509,-0.326,0.961,0.172
8.519,-0.326,0.955,0.166
8.529,-0.328,0.953,0.168
8.539,-0.326,0.955,0.170
8.549,-0.330,0.961,0.168
8.558,-0.326,0.961,0.168
8.568,-0.330,0.961,0.166
8.578,-0.332,0.963,0.168
8.588,-0.332,0.963,0.164
8.598,-0.334,0.965,0.168
8.608,-0.334,0.961,0.170
8.618,-0.330,0.961,0.170
8.628,-0.334,0.957,0.172
8.638,-0.332,0.955,0.168
8.648,-0.330,0.955,0.166
8.658,-0.334,0.951,0.168
8.668,-0.330,0.955,0.166
8.678,-0.328,0.957,0.170
8.687,-0.326,0.955,0.170
8.697,-0.330,0.959,0.174
8.707,-0.326,0.955,0.166
8.717,-0.328,0.961,0.174
8.727,-0.328,0.959,0.174
8.737,-0.330,0.959,0.170
8.747,-0.334,0.955,0.168
8.757,-0.332,0.953,0.168
8.767,-0.332,0.955,0.172
8.777,-0.330,0.957,0.168
8.787,-0.332,0.959,0.172
8.797,-0.330,0.963,0.170
8.807,-0.328,0.961,0.166
8.817,-0.326,0.961,0.168
8.826,-0.324,0.959,0.168
8.836,-0.324,0.959,0.168
8.846,-0.324,0.959,0.168
8.856,-0.322,0.963,0.170
8.866,-0.322,0.959,0.166
8.876,-0.324,0.963,0.168
8.886,-0.324,0.965,0.168
8.896,-0.326,0.957,0.168
8.906,-0.328,0.959,0.168
8.916,-0.322,0.957,0.168
8.926,-0.326,0.957,0.166
8.936,-0.324,0.957,0.166
8.946,-0.324,0.959,0.166
8.955,-0.326,0.961,0.168
8.965,-0.326,0.961,0.168
8.975,-0.328,0.959,0.164
8.985,-0.324,0.959,0.164
8.995,-0.326,0.959,0.168
9.005,-0.324,0.959,0.168
9.015,-0.326,0.959,0.168
9.025,-0.324,0.959,0.170
9.035,-0.326,0.961,0.170
9.045,-0.328,0.959,0.168
9.055,-0.324,0.959,0.168
9.065,-0.326,0.955,0.164
9.075,-0.328,0.961,0.170
9.085,-0.328,0.959,0.168
9.094,-0.326,0.959,0.166
9.104,-0.326,0.961,0.170
9.114,-0.324,0.961,0.168
9.124,-0.328,0.957,0.170
9.134,-0.324,0.957,0.168
9.144,-0.326,0.955,0.170
9.154,-0.326,0.955,0.170
9.164,-0.324,0.957,0.168
9.174,-0.324,0.961,0.168
9.184,-0.328,0.961,0.170
9.194,-0.328,0.963,0.164
9.204,-0.332,0.963,0.166
9.214,-0.330,0.961,0.168
9.223,-0.332,0.961,0.172
9.233,-0.332,0.961,0.170
9.243,-0.332,0.959,0.174
9.253,-0.332,0.957,0.172
9.263,-0.330,0.955,0.170
9.273,-0.330,0.959,0.162
9.283,-0.330,0.957,0.168
9.293,-0.326,0.959,0.166
9.303,-0.330,0.959,0.168
9.313,-0.328,0.959,0.168
9.323,-0.330,0.961,0.172
9.333,-0.332,0.961,0.168
9.343,-0.332,0.959,0.170
9.352,-0.328,0.963,0.170
9.362,-0.332,0.959,0.168
9.372,-0.334,0.959,0.166
9.382,-0.334,0.959,0.166
9.392,-0.330,0.961,0.170
9.402,-0.330,0.957,0.166
9.412,-0.326,0.959,0.170
9.422,-0.328,0.955,0.166
9.432,-0.330,0.957,0.168
9.442,-0.326,0.955,0.166
9.452,-0.328,0.963,0.166
9.462,-0.326,0.963,0.172
9.472,-0.328,0.961,0.170
9.482,-0.326,0.959,0.168
9.491,-0.328,0.965,0.168
9.501,-0.324,0.965,0.164
9.511,-0.326,0.959,0.168
9.521,-0.326,0.959,0.166
9.531,-0.324,0.961,0.168
9.541,-0.322,0.961,0.168
9.551,-0.324,0.961,0.162
9.561,-0.324,0.959,0.160
9.571,-0.326,0.961,0.166
9.581,-0.324,0.961,0.164
9.591,-0.322,0.959,0.166
9.601,-0.324,0.963,0.168
9.611,-0.324,0.959,0.168
9.620,-0.326,0.961,0.166
9.630,-0.326,0.963,0.164
9.640,-0.326,0.959,0.164
9.650,-0.328,0.959,0.166
9.660,-0.326,0.961,0.168
9.670,-0.326,0.963,0.166
9.680,-0.322,0.963,0.168
9.690,-0.322,0.959,0.168
9.700,-0.324,0.957,0.166
9.710,-0.324,0.961,0.166
9.720,-0.324,0.961,0.166
9.730,-0.328,0.959,0.170
9.740,-0.324,0.961,0.172
9.750,-0.324,0.957,0.168
9.759,-0.324,0.957,0.168
9.769,-0.324,0.955,0.166
9.779,-0.320,0.959,0.168
9.789,-0.322,0.959,0.168
9.799,-0.326,0.961,0.168
9.809,-0.324,0.967,0.168
9.819,-0.328,0.967,0.170
9.829,-0.330,0.967,0.172
9.839,-0.330,0.967,0.168
9.849,-0.330,0.963,0.170
9.859,-0.326,0.963,0.170
9.869,-0.330,0.961,0.172
9.879,-0.330,0.959,0.172
9.888,-0.328,0.955,0.170
9.898,-0.326,0.955,0.170
9.908,-0.324,0.957,0.170
9.918,-0.326,0.957,0.172
9.928,-0.328,0.955,0.170
9.938,-0.324,0.955,0.170
9.948,-0.330,0.957,0.172
9.958,-0.326,0.957,0.172
9.968,-0.328,0.961,0.176
9.978,-0.326,0.959,0.172
9.988,-0.324,0.959,0.170
9.998,-0.324,0.959,0.168
10.008,-0.326,0.961,0.172
10.017,-0.326,0.959,0.174
10.027,-0.324,0.963,0.172
10.037,-0.330,0.959,0.172
10.047,-0.326,0.957,0.170
10.057,-0.322,0.957,0.170
10.067,-0.326,0.959,0.168
10.077,-0.326,0.963,0.168
10.087,-0.324,0.961,0.172
10.097,-0.324,0.963,0.170
10.107,-0.324,0.961,0.170
10.117,-0.326,0.961,0.170
10.127,-0.328,0.963,0.172
10.137,-0.328,0.959,0.172
10.147,-0.328,0.957,0.174
10.156,-0.328,0.955,0.170
10.166,-0.326,0.957,0.168
10.176,-0.326,0.955,0.170
10.186,-0.326,0.957,0.168
10.196,-0.326,0.961,0.168
10.206,-0.322,0.959,0.172
10.216,-0.324,0.961,0.174
10.226,-0.322,0.959,0.170
10.236,-0.324,0.959,0.172
10.246,-0.326,0.959,0.170
10.256,-0.320,0.959,0.170
10.266,-0.326,0.963,0.168
10.276,-0.324,0.959,0.170
10.285,-0.322,0.963,0.170
10.295,-0.328,0.961,0.168
10.305,-0.328,0.961,0.170
10.315,-0.330,0.957,0.174
10.325,-0.332,0.957,0.172
10.335,-0.328,0.959,0.172
10.345,-0.328,0.961,0.172
10.355,-0.330,0.959,0.174
10.365,-0.330,0.955,0.172
10.375,-0.326,0.951,0.172
10.385,-0.330,0.953,0.168
10.395,-0.328,0.957,0.172
10.405,-0.326,0.959,0.172
10.415,-0.326,0.961,0.174
10.424,-0.328,0.963,0.172
10.434,-0.326,0.963,0.174
10.444,-0.328,0.967,0.170
10.454,-0.328,0.969,0.172
10.464,-0.326,0.961,0.170
10.474,-0.326,0.959,0.174
10.484,-0.324,0.961,0.174
10.494,-0.330,0.957,0.176
10.504,-0.326,0.955,0.174
10.514,-0.328,0.957,0.172
10.524,-0.326,0.953,0.170
10.534,-0.328,0.955,0.176
10.544,-0.330,0.955,0.176
10.553,-0.328,0.957,0.176
10.563,-0.326,0.959,0.174
10.573,-0.324,0.961,0.176
10.583,-0.322,0.961,0.176
10.593,-0.326,0.959,0.176
10.603,-0.322,0.961,0.174
10.613,-0.324,0.959,0.174
10.623,-0.324,0.961,0.170
10.633,-0.324,0.963,0.174
10.643,-0.324,0.961,0.172
10.653,-0.320,0.957,0.174
10.663,-0.320,0.959,0.170
10.673,-0.322,0.961,0.174
10.682,-0.322,0.961,0.170
10.692,-0.320,0.961,0.170
10.702,-0.322,0.959,0.174
10.712,-0.316,0.961,0.172
10.722,-0.320,0.963,0.170
10.732,-0.320,0.965,0.172
10.742,-0.320,0.965,0.172
10.752,-0.318,0.961,0.170
10.762,-0.322,0.963,0.170
10.772,-0.320,0.959,0.172
10.782,-0.318,0.959,0.174
10.792,-0.322,0.959,0.174
10.802,-0.320,0.959,0.172
10.812,-0.322,0.957,0.170
10.821,-0.322,0.961,0.170
10.831,-0.318,0.961,0.168
10.841,-0.320,0.961,0.170
10.851,-0.320,0.961,0.170
10.861,-0.320,0.961,0.170
10.871,-0.322,0.963,0.172
10.881,-0.322,0.963,0.168
10.891,-0.322,0.965,0.170
10.901,-0.324,0.963,0.170
10.911,-0.320,0.963,0.172
10.921,-0.322,0.957,0.172
10.931,-0.322,0.961,0.170
10.941,-0.322,0.957,0.172
10.950,-0.320,0.965,0.172
10.960,-0.322,0.963,0.172
10.970,-0.324,0.961,0.172
10.980,-0.326,0.961,0.172
10.990,-0.320,0.955,0.172
11.000,-0.320,0.955,0.170
11.010,-0.318,0.959,0.170
11.020,-0.320,0.959,0.172
11.030,-0.320,0.961,0.170
11.040,-0.320,0.963,0.168
11.050,-0.320,0.967,0.170
11.060,-0.320,0.969,0.170
11.070,-0.322,0.967,0.170
11.080,-0.322,0.967,0.172
11.089,-0.318,0.963,0.172
11.099,-0.318,0.961,0.168
11.109,-0.318,0.959,0.170
11.119,-0.316,0.961,0.172
11.129,-0.316,0.955,0.172
11.139,-0.318,0.955,0.172
11.149,-0.320,0.957,0.172
11.159,-0.318,0.959,0.172
11.169,-0.318,0.959,0.174
11.179,-0.320,0.961,0.174
11.189,-0.322,0.961,0.176
11.199,-0.320,0.963,0.170
11.209,-0.322,0.963,0.170
11.218,-0.322,0.957,0.174
11.228,-0.318,0.959,0.174
11.238,-0.320,0.961,0.176
11.248,-0.318,0.963,0.174
11.258,-0.316,0.961,0.174
11.268,-0.318,0.961,0.174
11.278,-0.316,0.961,0.172
11.288,-0.318,0.961,0.172
11.298,-0.316,0.959,0.172
11.308,-0.318,0.963,0.170
11.318,-0.318,0.963,0.172
11.328,-0.318,0.963,0.174
11.338,-0.316,0.963,0.172
11.347,-0.320,0.965,0.172
11.357,-0.322,0.963,0.174
11.367,-0.324,0.965,0.170
11.377,-0.320,0.961,0.174
11.387,-0.320,0.959,0.170
11.397,-0.320,0.961,0.174
11.407,-0.320,0.959,0.170
11.417,-0.316,0.961,0.172
11.427,-0.316,0.959,0.170
11.437,-0.316,0.961,0.172
11.447,-0.318,0.965,0.172
11.457,-0.318,0.961,0.172
11.467,-0.316,0.963,0.172
11.477,-0.320,0.963,0.172
11.486,-0.318,0.961,0.172
11.496,-0.318,0.963,0.172
11.506,-0.318,0.963,0.172
11.516,-0.318,0.961,0.170
11.526,-0.320,0.959,0.174
11.536,-0.318,0.961,0.170
11.546,-0.320,0.961,0.174
11.556,-0.322,0.963,0.170
11.566,-0.318,0.963,0.174
11.576,-0.316,0.961,0.174
11.586,-0.320,0.963,0.176
11.596,-0.320,0.959,0.170
11.606,-0.318,0.957,0.172
11.615,-0.318,0.953,0.174
11.625,-0.318,0.957,0.174
11.635,-0.316,0.961,0.176
11.645,-0.318,0.961,0.174
11.655,-0.322,0.965,0.174
11.665,-0.318,0.969,0.174
11.675,-0.320,0.967,0.176
11.685,-0.322,0.965,0.178
11.695,-0.322,0.967,0.174
11.705,-0.320,0.961,0.174
11.715,-0.314,0.961,0.174
11.725,-0.320,0.959,0.174
11.735,-0.318,0.961,0.172
11.744,-0.320,0.961,0.176
11.754,-0.316,0.957,0.174
11.764,-0.318,0.957,0.172
11.774,-0.320,0.959,0.174
11.784,-0.318,0.959,0.174
11.794,-0.316,0.965,0.176
11.804,-0.316,0.961,0.172
11.814,-0.316,0.963,0.178
11.824,-0.316,0.961,0.176
11.834,-0.316,0.959,0.174
11.844,-0.316,0.959,0.178
11.854,-0.316,0.963,0.176
11.864,-0.314,0.965,0.172
11.874,-0.314,0.965,0.172
11.883,-0.316,0.961,0.170
11.893,-0.314,0.963,0.172
11.903,-0.316,0.961,0.170
11.913,-0.318,0.961,0.172
11.923,-0.316,0.963,0.170
11.933,-0.320,0.965,0.172
11.943,-0.318,0.965,0.174
11.953,-0.316,0.963,0.176
11.963,-0.314,0.965,0.174
11.973,-0.318,0.967,0.174
11.983,-0.316,0.961,0.172
11.993,-0.320,0.963,0.174
12.003,-0.316,0.963,0.172
12.012,-0.318,0.959,0.174
12.022,-0.318,0.961,0.172
12.032,-0.316,0.963,0.174
12.042,-0.316,0.959,0.172
12.052,-0.318,0.963,0.176
12.062,-0.320,0.961,0.176
12.072,-0.320,0.963,0.172
12.082,-0.318,0.963,0.170
12.092,-0.320,0.963,0.172
12.102,-0.316,0.957,0.172
12.112,-0.316,0.961,0.174
12.122,-0.314,0.961,0.170
12.132,-0.316,0.959,0.172
12.142,-0.314,0.963,0.172
12.151,-0.318,0.963,0.172
12.161,-0.318,0.961,0.174
12.171,-0.318,0.963,0.170
12.181,-0.322,0.963,0.174
12.191,-0.318,0.965,0.172
12.201,-0.322,0.965,0.174
12.211,-0.318,0.963,0.172
12.221,-0.322,0.963,0.172
12.231,-0.320,0.961,0.174
12.241,-0.318,0.961,0.172
12.251,-0.318,0.965,0.172
12.261,-0.318,0.961,0.170
12.271,-0.318,0.963,0.172
12.280,-0.318,0.963,0.172
12.290,-0.318,0.959,0.172
12.300,-0.314,0.955,0.172
12.310,-0.312,0.959,0.172
12.320,-0.314,0.961,0.170
12.330,-0.318,0.963,0.170
12.340,-0.314,0.967,0.168
12.350,-0.320,0.973,0.168
12.360,-0.318,0.971,0.170
12.370,-0.320,0.965,0.172
12.380,-0.324,0.965,0.170
12.390,-0.322,0.961,0.172
12.400,-0.318,0.955,0.170
12.409,-0.318,0.957,0.168
12.419,-0.318,0.961,0.166
12.429,-0.322,0.959,0.166
12.439,-0.318,0.959,0.164
12.449,-0.318,0.961,0.172
12.459,-0.316,0.959,0.172
12.469,-0.316,0.963,0.172
12.479,-0.318,0.963,0.170
12.489,-0.316,0.965,0.174
12.499,-0.318,0.963,0.168
12.509,-0.314,0.963,0.166
12.519,-0.316,0.963,0.170
12.529,-0.316,0.963,0.172
12.539,-0.316,0.963,0.170
12.548,-0.318,0.963,0.170
12.558,-0.318,0.963,0.172
12.568,-0.316,0.961,0.166
12.578,-0.316,0.959,0.168
12.588,-0.316,0.963,0.168
12.598,-0.318,0.961,0.172
12.608,-0.316,0.963,0.172
12.618,-0.314,0.963,0.170
12.628,-0.316,0.965,0.170
12.638,-0.316,0.967,0.170
12.648,-0.316,0.961,0.168
12.658,-0.320,0.961,0.172
12.668,-0.316,0.961,0.172
12.677,-0.316,0.963,0.172
12.687,-0.318,0.959,0.172
12.697,-0.316,0.961,0.172
12.707,-0.320,0.963,0.168
12.717,-0.318,0.965,0.172
12.727,-0.320,0.963,0.174
12.737,-0.320,0.961,0.170
12.747,-0.322,0.965,0.172
12.757,-0.320,0.961,0.170
12.767,-0.316,0.961,0.170
12.777,-0.318,0.965,0.170
12.787,-0.318,0.963,0.170
12.797,-0.316,0.963,0.170
12.807,-0.316,0.965,0.170
12.816,-0.316,0.961,0.168
12.826,-0.312,0.961,0.170
12.836,-0.316,0.961,0.172
12.846,-0.316,0.961,0.170
12.856,-0.316,0.961,0.168
12.866,-0.316,0.965,0.172
12.876,-0.316,0.961,0.170
12.886,-0.316,0.961,0.170
12.896,-0.314,0.965,0.166
12.906,-0.320,0.961,0.172
12.916,-0.318,0.963,0.174
12.926,-0.320,0.961,0.172
12.936,-0.316,0.963,0.170
12.945,-0.320,0.961,0.172
12.955,-0.320,0.963,0.174
12.965,-0.318,0.965,0.170
12.975,-0.316,0.963,0.168
12.985,-0.314,0.957,0.174
12.995,-0.312,0.959,0.170
13.005,-0.316,0.963,0.172
13.015,-0.314,0.963,0.170
13.025,-0.316,0.963,0.170
13.035,-0.318,0.967,0.172
13.045,-0.316,0.969,0.174
13.055,-0.318,0.967,0.172
13.065,-0.318,0.969,0.172
13.074,-0.318,0.965,0.174
13.084,-0.316,0.959,0.172
13.094,-0.318,0.963,0.174
13.104,-0.316,0.961,0.172
13.114,-0.314,0.957,0.172
13.124,-0.312,0.959,0.172
13.134,-0.312,0.959,0.170
13.144,-0.314,0.957,0.170
13.154,-0.314,0.963,0.174
13.164,-0.314,0.961,0.174
13.174,-0.316,0.963,0.170
13.184,-0.314,0.965,0.174
13.194,-0.320,0.963,0.170
13.204,-0.318,0.963,0.168
13.213,-0.316,0.959,0.172
13.223,-0.314,0.963,0.168
13.233,-0.316,0.961,0.170
13.243,-0.316,0.965,0.172
13.253,-0.316,0.963,0.172
13.263,-0.314,0.961,0.170
13.273,-0.314,0.965,0.170
13.283,-0.318,0.961,0.170
13.293,-0.316,0.961,0.172
13.303,-0.309,0.965,0.170
13.313,-0.314,0.965,0.170
13.323,-0.316,0.965,0.172
13.333,-0.312,0.967,0.170
13.342,-0.312,0.967,0.170
13.352,-0.314,0.963,0.168
13.362,-0.316,0.963,0.170
13.372,-0.316,0.963,0.168
13.382,-0.312,0.965,0.168
13.392,-0.314,0.963,0.170
13.402,-0.316,0.961,0.170
13.412,-0.316,0.963,0.170
13.422,-0.312,0.965,0.168
13.432,-0.316,0.965,0.170
13.442,-0.314,0.961,0.168
13.452,-0.314,0.963,0.170
13.462,-0.314,0.961,0.172
13.472,-0.314,0.963,0.170
13.481,-0.314,0.965,0.172
13.491,-0.314,0.965,0.170
13.501,-0.312,0.965,0.170
13.511,-0.316,0.965,0.174
13.521,-0.316,0.961,0.170
13.531,-0.314,0.965,0.168
13.541,-0.318,0.963,0.170
13.551,-0.318,0.963,0.170
13.561,-0.318,0.963,0.172
13.571,-0.316,0.963,0.170
13.581,-0.322,0.963,0.172
13.591,-0.320,0.965,0.172
13.601,-0.314,0.963,0.172
13.610,-0.318,0.965,0.170
13.620,-0.316,0.961,0.174
13.630,-0.318,0.965,0.168
13.640,-0.316,0.967,0.176
13.650,-0.318,0.963,0.176
13.660,-0.314,0.959,0.174
13.670,-0.314,0.957,0.172
13.680,-0.314,0.959,0.172
13.690,-0.312,0.961,0.174
13.700,-0.312,0.963,0.172
13.710,-0.316,0.965,0.174
13.720,-0.314,0.969,0.170
13.730,-0.314,0.969,0.168
13.739,-0.314,0.971,0.174
13.749,-0.314,0.971,0.172
13.759,-0.316,0.969,0.174
13.769,-0.314,0.965,0.172
13.779,-0.312,0.963,0.174
13.789,-0.314,0.963,0.168
13.799,-0.314,0.959,0.170
13.809,-0.314,0.959,0.170
13.819,-0.312,0.957,0.174
13.829,-0.312,0.959,0.172
13.839,-0.311,0.959,0.170
13.849,-0.312,0.961,0.172
13.859,-0.312,0.963,0.174
13.869,-0.312,0.963,0.174
13.878,-0.314,0.963,0.172
13.888,-0.314,0.965,0.172
13.898,-0.316,0.965,0.172
13.908,-0.314,0.959,0.172
13.918,-0.316,0.963,0.174
13.928,-0.312,0.965,0.172
13.938,-0.311,0.963,0.168
13.948,-0.311,0.965,0.176
13.958,-0.312,0.965,0.170
13.968,-0.312,0.963,0.170
13.978,-0.314,0.963,0.168
13.988,-0.316,0.969,0.170
13.998,-0.312,0.963,0.174
14.007,-0.312,0.965,0.172
14.017,-0.312,0.961,0.170
14.027,-0.314,0.965,0.172
14.037,-0.314,0.961,0.172
14.047,-0.314,0.965,0.174
14.057,-0.316,0.963,0.168
14.067,-0.316,0.963,0.168
14.077,-0.316,0.963,0.168
14.087,-0.314,0.963,0.170
14.097,-0.314,0.965,0.170
14.107,-0.314,0.959,0.170
14.117,-0.314,0.963,0.172
14.127,-0.314,0.965,0.172
14.137,-0.316,0.965,0.172
14.146,-0.320,0.961,0.170
14.156,-0.314,0.961,0.170
14.166,-0.314,0.963,0.172
14.176,-0.312,0.963,0.168
14.186,-0.314,0.963,0.172
14.196,-0.314,0.963,0.172
14.206,-0.314,0.963,0.174
14.216,-0.316,0.959,0.170
14.226,-0.311,0.965,0.166
14.236,-0.312,0.961,0.172
14.246,-0.316,0.963,0.174
14.256,-0.316,0.961,0.174
14.266,-0.318,0.963,0.170
14.275,-0.322,0.965,0.170
14.285,-0.318,0.961,0.174
14.295,-0.320,0.963,0.170
14.305,-0.316,0.967,0.170
14.315,-0.320,0.967,0.170
14.325,-0.318,0.965,0.170
14.335,-0.316,0.963,0.168
14.345,-0.316,0.963,0.172
14.355,-0.316,0.961,0.170
14.365,-0.314,0.963,0.172
14.375,-0.314,0.965,0.170
14.385,-0.316,0.965,0.176
14.395,-0.311,0.965,0.172
14.404,-0.311,0.961,0.172
14.414,-0.311,0.957,0.170
14.424,-0.314,0.961,0.170
14.434,-0.312,0.963,0.174
14.444,-0.312,0.963,0.172
14.454,-0.312,0.965,0.170
14.464,-0.314,0.967,0.170
14.474,-0.316,0.969,0.172
14.484,-0.316,0.967,0.172
14.494,-0.316,0.971,0.172
14.504,-0.312,0.967,0.170
14.514,-0.314,0.967,0.172
14.524,-0.312,0.961,0.172
14.534,-0.314,0.963,0.170
14.543,-0.314,0.961,0.172
14.553,-0.314,0.961,0.170
14.563,-0.312,0.957,0.170
14.573,-0.314,0.959,0.174
14.583,-0.314,0.961,0.172
14.593,-0.314,0.963,0.172
14.603,-0.316,0.961,0.174
14.613,-0.314,0.965,0.174
14.623,-0.318,0.961,0.172
14.633,-0.318,0.965,0.170
14.643,-0.318,0.967,0.170
14.653,-0.316,0.965,0.170
14.663,-0.314,0.965,0.170
14.672,-0.312,0.967,0.172
14.682,-0.311,0.967,0.176
14.692,-0.311,0.963,0.174
14.702,-0.311,0.963,0.170
14.712,-0.311,0.963,0.172
14.722,-0.314,0.961,0.168
14.732,-0.312,0.963,0.170
14.742,-0.312,0.963,0.170
14.752,-0.314,0.963,0.170
14.762,-0.312,0.963,0.170
14.772,-0.311,0.969,0.174
14.782,-0.309,0.967,0.172
14.792,-0.312,0.967,0.172
14.801,-0.312,0.961,0.170
14.811,-0.314,0.961,0.172
14.821,-0.314,0.961,0.174
14.831,-0.312,0.961,0.170
14.841,-0.314,0.963,0.170
14.851,-0.312,0.963,0.172
14.861,-0.314,0.965,0.168
14.871,-0.316,0.965,0.168
14.881,-0.316,0.967,0.170
14.891,-0.314,0.965,0.172
14.901,-0.314,0.965,0.172
14.911,-0.316,0.969,0.168
14.921,-0.314,0.969,0.168
14.931,-0.312,0.965,0.168
14.940,-0.318,0.963,0.170
14.950,-0.314,0.965,0.170
14.960,-0.312,0.963,0.172
14.970,-0.316,0.965,0.176
14.980,-0.312,0.963,0.174
14.990,-0.316,0.963,0.172
15.000,-0.312,0.965,0.172
15.010,-0.314,0.963,0.172
15.020,-0.312,0.963,0.170
15.030,-0.316,0.965,0.170
15.040,-0.314,0.963,0.170
15.050,-0.314,0.963,0.174
15.060,-0.316,0.965,0.174
15.069,-0.316,0.965,0.172
15.079,-0.312,0.963,0.174
15.089,-0.314,0.965,0.172
15.099,-0.316,0.959,0.174
15.109,-0.312,0.965,0.170
15.119,-0.312,0.959,0.172
15.129,-0.311,0.965,0.168
15.139,-0.311,0.963,0.176
15.149,-0.314,0.965,0.174
15.159,-0.312,0.961,0.172
15.169,-0.312,0.957,0.172
15.179,-0.309,0.957,0.172
15.189,-0.311,0.963,0.172
15.199,-0.311,0.965,0.174
15.208,-0.311,0.967,0.170
15.218,-0.314,0.969,0.170
15.228,-0.316,0.971,0.172
15.238,-0.314,0.971,0.174
15.248,-0.312,0.971,0.170
15.258,-0.312,0.963,0.170
15.268,-0.311,0.963,0.170
15.278,-0.311,0.959,0.174
15.288,-0.311,0.961,0.176
15.298,-0.311,0.961,0.172
15.308,-0.311,0.957,0.172
15.318,-0.312,0.961,0.170
15.328,-0.312,0.961,0.170
15.337,-0.312,0.963,0.172
15.347,-0.314,0.963,0.174
15.357,-0.312,0.967,0.174
15.367,-0.312,0.963,0.172
15.377,-0.314,0.965,0.170
15.387,-0.314,0.967,0.170
15.397,-0.312,0.967,0.168
15.407,-0.312,0.959,0.174
15.417,-0.312,0.963,0.174
15.427,-0.312,0.963,0.174
15.437,-0.311,0.967,0.172
15.447,-0.312,0.963,0.168
15.457,-0.309,0.963,0.168
15.466,-0.312,0.963,0.174
15.476,-0.312,0.963,0.172
15.486,-0.309,0.967,0.174
15.496,-0.311,0.965,0.168
15.506,-0.309,0.969,0.174
15.516,-0.311,0.967,0.170
15.526,-0.311,0.965,0.172
15.536,-0.311,0.965,0.174
15.546,-0.311,0.961,0.170
15.556,-0.311,0.963,0.174
15.566,-0.311,0.961,0.166
15.576,-0.309,0.961,0.170
15.586,-0.309,0.965,0.170
15.596,-0.309,0.965,0.168
15.605,-0.314,0.965,0.170
15.615,-0.314,0.963,0.170
15.625,-0.312,0.961,0.172
15.635,-0.312,0.963,0.168
15.645,-0.312,0.965,0.170
15.655,-0.312,0.965,0.170
15.665,-0.311,0.967,0.170
15.675,-0.312,0.965,0.168
15.685,-0.312,0.961,0.174
15.695,-0.311,0.963,0.170
15.705,-0.311,0.963,0.172
15.715,-0.311,0.963,0.172
15.725,-0.311,0.961,0.170
15.734,-0.311,0.963,0.172
15.744,-0.311,0.965,0.170
15.754,-0.311,0.965,0.172
15.764,-0.311,0.967,0.172
15.774,-0.309,0.965,0.172
15.784,-0.312,0.965,0.172
15.794,-0.312,0.965,0.176
15.804,-0.312,0.965,0.172
15.814,-0.312,0.965,0.172
15.824,-0.312,0.965,0.172
15.834,-0.311,0.961,0.170
15.844,-0.314,0.963,0.172
15.854,-0.311,0.967,0.174
15.864,-0.312,0.969,0.172
15.873,-0.312,0.963,0.174
15.883,-0.307,0.959,0.170
15.893,-0.309,0.957,0.172
15.903,-0.309,0.963,0.170
15.913,-0.309,0.969,0.172
15.923,-0.312,0.967,0.168
15.933,-0.311,0.967,0.170
15.943,-0.312,0.969,0.170
15.953,-0.311,0.969,0.168
15.963,-0.312,0.969,0.170
15.973,-0.312,0.969,0.168
15.983,-0.309,0.965,0.170
15.993,-0.309,0.965,0.166
16.002,-0.311,0.961,0.170
16.012,-0.309,0.961,0.172
16.022,-0.309,0.961,0.170
16.032,-0.307,0.963,0.166
16.042,-0.309,0.963,0.166
16.052,-0.307,0.963,0.168
16.062,-0.307,0.963,0.170
16.072,-0.305,0.967,0.174
16.082,-0.307,0.967,0.172
16.092,-0.307,0.965,0.166
16.102,-0.311,0.965,0.170
16.112,-0.311,0.963,0.168
16.122,-0.309,0.965,0.168
16.131,-0.312,0.965,0.168
16.141,-0.312,0.967,0.172
16.151,-0.309,0.967,0.176
16.161,-0.312,0.965,0.172
16.171,-0.309,0.965,0.170
16.181,-0.311,0.967,0.168
16.191,-0.307,0.967,0.168
16.201,-0.309,0.965,0.168
16.211,-0.305,0.963,0.172
16.221,-0.307,0.967,0.168
16.231,-0.307,0.965,0.176
16.241,-0.307,0.967,0.172
16.251,-0.307,0.967,0.168
16.261,-0.307,0.965,0.170
16.270,-0.307,0.961,0.170
16.280,-0.309,0.961,0.170
16.290,-0.309,0.967,0.170
16.300,-0.311,0.965,0.164
16.310,-0.309,0.967,0.168
16.320,-0.311,0.967,0.170
16.330,-0.311,0.967,0.172
16.340,-0.309,0.967,0.170
16.350,-0.311,0.967,0.168
16.360,-0.309,0.963,0.168
16.370,-0.309,0.967,0.168
16.380,-0.309,0.965,0.168
16.390,-0.309,0.963,0.170
16.399,-0.311,0.965,0.168
16.409,-0.309,0.965,0.170
16.419,-0.309,0.963,0.168
16.429,-0.307,0.967,0.168
16.439,-0.309,0.969,0.170
16.449,-0.309,0.967,0.170
16.459,-0.309,0.965,0.168
16.469,-0.307,0.967,0.170
16.479,-0.309,0.965,0.166
16.489,-0.311,0.969,0.172
16.499,-0.311,0.963,0.170
16.509,-0.309,0.967,0.170
16.519,-0.311,0.965,0.170
16.529,-0.312,0.967,0.170
16.538,-0.311,0.967,0.174
16.548,-0.311,0.965,0.170
16.558,-0.309,0.965,0.170
16.568,-0.309,0.959,0.170
16.578,-0.311,0.959,0.170
16.588,-0.309,0.959,0.170
16.598,-0.309,0.965,0.170
16.608,-0.311,0.965,0.166
16.618,-0.311,0.965,0.170
16.628,-0.309,0.973,0.170
16.638,-0.307,0.971,0.168
16.648,-0.311,0.971,0.172
16.658,-0.307,0.971,0.174
16.667,-0.309,0.969,0.172
16.677,-0.305,0.969,0.172
16.687,-0.307,0.963,0.166
16.697,-0.307,0.963,0.170
16.707,-0.311,0.965,0.170
16.717,-0.307,0.961,0.168
16.727,-0.311,0.965,0.164
16.737,-0.307,0.961,0.170
16.747,-0.309,0.963,0.170
16.757,-0.309,0.965,0.170
16.767,-0.307,0.965,0.172
16.777,-0.309,0.967,0.172
16.787,-0.309,0.965,0.172
16.796,-0.311,0.967,0.170
16.806,-0.312,0.967,0.170
16.816,-0.312,0.963,0.172
16.826,-0.311,0.965,0.170
16.836,-0.311,0.965,0.174
16.846,-0.309,0.963,0.172
16.856,-0.311,0.965,0.172
16.866,-0.311,0.965,0.170
16.876,-0.311,0.965,0.166
16.886,-0.309,0.967,0.170
16.896,-0.311,0.965,0.168
16.906,-0.309,0.969,0.170
16.916,-0.309,0.967,0.168
16.926,-0.311,0.967,0.170
16.935,-0.309,0.971,0.168
16.945,-0.311,0.969,0.172
16.955,-0.312,0.971,0.170
16.965,-0.311,0.969,0.172
16.975,-0.311,0.967,0.170
16.985,-0.311,0.967,0.170
16.995,-0.309,0.965,0.170
17.005,-0.311,0.961,0.170
17.015,-0.311,0.965,0.168
17.025,-0.311,0.965,0.168
17.035,-0.312,0.967,0.170
17.045,-0.309,0.965,0.168
17.055,-0.311,0.965,0.168
17.064,-0.309,0.965,0.170
17.074,-0.309,0.967,0.170
17.084,-0.307,0.965,0.170
17.094,-0.312,0.965,0.168
17.104,-0.311,0.963,0.168
17.114,-0.311,0.967,0.166
17.124,-0.309,0.965,0.166
17.134,-0.312,0.965,0.168
17.144,-0.307,0.965,0.172
17.154,-0.307,0.965,0.164
17.164,-0.309,0.965,0.170
17.174,-0.311,0.965,0.166
17.184,-0.309,0.965,0.168
17.194,-0.311,0.969,0.166
17.203,-0.309,0.965,0.166
17.213,-0.311,0.965,0.170
17.223,-0.309,0.963,0.172
17.233,-0.309,0.965,0.172
17.243,-0.307,0.965,0.166
17.253,-0.309,0.961,0.166
17.263,-0.309,0.957,0.166
17.273,-0.307,0.963,0.170
17.283,-0.311,0.965,0.166
17.293,-0.311,0.971,0.168
17.303,-0.309,0.969,0.166
17.313,-0.312,0.973,0.168
17.323,-0.311,0.973,0.168
17.332,-0.311,0.969,0.168
17.342,-0.311,0.969,0.172
17.352,-0.311,0.967,0.170
17.362,-0.312,0.965,0.170
17.372,-0.307,0.967,0.170
17.382,-0.309,0.961,0.168
17.392,-0.309,0.961,0.162
17.402,-0.309,0.963,0.168
17.412,-0.309,0.963,0.168
17.422,-0.309,0.961,0.168
17.432,-0.305,0.965,0.172
17.442,-0.307,0.967,0.174
17.452,-0.307,0.963,0.170
17.461,-0.307,0.963,0.170
17.471,-0.309,0.963,0.168
17.481,-0.307,0.963,0.168
17.491,-0.307,0.961,0.166
17.501,-0.312,0.963,0.168
17.511,-0.309,0.965,0.170
17.521,-0.311,0.969,0.170
17.531,-0.309,0.965,0.172
17.541,-0.309,0.965,0.170
17.551,-0.305,0.963,0.172
17.561,-0.311,0.965,0.168
17.571,-0.309,0.963,0.168
17.581,-0.314,0.965,0.168
17.591,-0.311,0.967,0.172
17.600,-0.309,0.969,0.170
17.610,-0.309,0.967,0.168
17.620,-0.309,0.965,0.170
17.630,-0.309,0.965,0.168
17.640,-0.309,0.961,0.166
17.650,-0.311,0.965,0.168
17.660,-0.314,0.965,0.168
17.670,-0.311,0.967,0.164
17.680,-0.314,0.963,0.164
17.690,-0.311,0.967,0.166
17.700,-0.311,0.969,0.166
17.710,-0.311,0.967,0.166
17.720,-0.314,0.965,0.166
17.729,-0.309,0.965,0.164
17.739,-0.309,0.967,0.164
17.749,-0.311,0.967,0.164
17.759,-0.307,0.965,0.164
17.769,-0.309,0.967,0.160
17.779,-0.311,0.967,0.166
17.789,-0.309,0.969,0.164
17.799,-0.309,0.965,0.164
17.809,-0.311,0.967,0.166
17.819,-0.309,0.967,0.168
17.829,-0.307,0.965,0.164
17.839,-0.305,0.967,0.172
17.849,-0.307,0.971,0.168
17.858,-0.309,0.965,0.164
17.868,-0.309,0.967,0.166
17.878,-0.309,0.965,0.170
17.888,-0.307,0.967,0.168
17.898,-0.309,0.965,0.168
17.908,-0.309,0.957,0.170
17.918,-0.309,0.959,0.166
17.928,-0.307,0.965,0.170
17.938,-0.307,0.967,0.168
17.948,-0.305,0.967,0.166
17.958,-0.309,0.967,0.168
17.968,-0.307,0.971,0.168
17.978,-0.309,0.971,0.170
17.988,-0.311,0.969,0.168
17.997,-0.307,0.969,0.170
18.007,-0.312,0.965,0.172
18.017,-0.312,0.963,0.174
18.027,-0.309,0.963,0.170
18.037,-0.311,0.961,0.166
18.047,-0.309,0.961,0.170
18.057,-0.311,0.959,0.172
18.067,-0.314,0.961,0.168
18.077,-0.311,0.965,0.174
18.087,-0.309,0.967,0.170
18.097,-0.309,0.967,0.172
18.107,-0.311,0.967,0.172
18.117,-0.309,0.969,0.172
18.126,-0.309,0.969,0.170
18.136,-0.309,0.963,0.168
18.146,-0.307,0.963,0.168
18.156,-0.307,0.963,0.172
18.166,-0.307,0.967,0.170
18.176,-0.307,0.967,0.176
18.186,-0.307,0.969,0.170
18.196,-0.307,0.963,0.168
18.206,-0.309,0.963,0.170
18.216,-0.309,0.965,0.170
18.226,-0.305,0.969,0.170
18.236,-0.307,0.965,0.172
18.246,-0.307,0.965,0.172
18.256,-0.303,0.965,0.172
18.265,-0.305,0.967,0.170
18.275,-0.303,0.967,0.170
18.285,-0.309,0.965,0.172
18.295,-0.303,0.965,0.170
18.305,-0.305,0.967,0.172
18.315,-0.305,0.965,0.170
18.325,-0.305,0.967,0.170
18.335,-0.305,0.963,0.170
18.345,-0.305,0.967,0.170
18.355,-0.305,0.967,0.168
18.365,-0.307,0.967,0.170
18.375,-0.307,0.967,0.168
18.385,-0.309,0.967,0.170
18.394,-0.309,0.965,0.172
18.404,-0.311,0.965,0.172
18.414,-0.305,0.967,0.172
18.424,-0.303,0.967,0.172
18.434,-0.307,0.963,0.170
18.444,-0.309,0.967,0.168
18.454,-0.311,0.965,0.170
18.464,-0.307,0.963,0.172
18.474,-0.307,0.967,0.172
18.484,-0.311,0.965,0.172
18.494,-0.309,0.969,0.170
18.504,-0.307,0.967,0.172
18.514,-0.307,0.967,0.172
18.523,-0.307,0.965,0.168
18.533,-0.305,0.965,0.172
18.543,-0.307,0.961,0.170
18.553,-0.307,0.963,0.168
18.563,-0.307,0.965,0.172
18.573,-0.303,0.969,0.168
18.583,-0.307,0.965,0.172
18.593,-0.309,0.971,0.172
18.603,-0.311,0.971,0.170
18.613,-0.309,0.971,0.170
18.623,-0.309,0.969,0.168
18.633,-0.311,0.969,0.172
18.643,-0.309,0.969,0.176
18.653,-0.309,0.961,0.168
18.662,-0.309,0.965,0.172
18.672,-0.307,0.963,0.170
18.682,-0.307,0.961,0.172
18.692,-0.309,0.963,0.174
18.702,-0.309,0.963,0.172
18.712,-0.307,0.963,0.176
18.722,-0.305,0.963,0.172
18.732,-0.307,0.963,0.174
18.742,-0.307,0.965,0.172
18.752,-0.309,0.963,0.172
18.762,-0.312,0.967,0.172
18.772,-0.311,0.963,0.172
18.782,-0.311,0.967,0.168
18.791,-0.309,0.965,0.174
18.801,-0.307,0.969,0.174
18.811,-0.305,0.971,0.174
18.821,-0.305,0.967,0.176
18.831,-0.305,0.963,0.172
18.841,-0.303,0.965,0.174
18.851,-0.303,0.965,0.172
18.861,-0.307,0.963,0.172
18.871,-0.305,0.963,0.172
18.881,-0.305,0.967,0.174
18.891,-0.311,0.965,0.170
18.901,-0.307,0.969,0.172
18.911,-0.311,0.967,0.172
18.921,-0.307,0.965,0.174
18.930,-0.307,0.967,0.170
18.940,-0.309,0.967,0.170
18.950,-0.307,0.963,0.170
18.960,-0.307,0.963,0.172
18.970,-0.307,0.963,0.174
18.980,-0.309,0.967,0.170
18.990,-0.309,0.967,0.170
19.000,-0.307,0.967,0.172
19.010,-0.305,0.969,0.168
19.020,-0.307,0.965,0.170
19.030,-0.305,0.969,0.166
19.040,-0.303,0.967,0.170
19.050,-0.303,0.965,0.166
19.059,-0.305,0.967,0.168
19.069,-0.307,0.965,0.168
19.079,-0.307,0.965,0.164
19.089,-0.307,0.967,0.168
19.099,-0.307,0.967,0.170
19.109,-0.309,0.963,0.166
19.119,-0.307,0.967,0.170
19.129,-0.307,0.969,0.168
19.139,-0.307,0.967,0.172
19.149,-0.311,0.967,0.170
19.159,-0.312,0.967,0.170
19.169,-0.311,0.961,0.168
19.179,-0.309,0.961,0.166
19.188,-0.309,0.961,0.170
19.198,-0.305,0.963,0.166
19.208,-0.307,0.965,0.168
19.218,-0.309,0.967,0.170
19.228,-0.309,0.969,0.170
19.238,-0.309,0.973,0.168
19.248,-0.309,0.969,0.168
19.258,-0.309,0.971,0.168
19.268,-0.309,0.969,0.170
19.278,-0.311,0.965,0.172
19.288,-0.305,0.967,0.170
19.298,-0.309,0.963,0.172
19.308,-0.309,0.963,0.174
19.318,-0.307,0.963,0.168
19.327,-0.309,0.965,0.170
19.337,-0.305,0.961,0.166
19.347,-0.307,0.969,0.172
19.357,-0.303,0.965,0.172
19.367,-0.305,0.963,0.170
19.377,-0.307,0.963,0.174
19.387,-0.305,0.963,0.174
19.397,-0.311,0.963,0.172
19.407,-0.307,0.965,0.174
19.417,-0.307,0.965,0.168
19.427,-0.307,0.963,0.172
19.437,-0.305,0.967,0.174
19.447,-0.305,0.969,0.174
19.456,-0.303,0.963,0.174
19.466,-0.305,0.963,0.174
19.476,-0.307,0.961,0.172
19.486,-0.303,0.963,0.170
19.496,-0.307,0.965,0.166
19.506,-0.307,0.967,0.172
19.516,-0.307,0.967,0.168
19.526,-0.301,0.969,0.174
19.536,-0.303,0.973,0.170
19.546,-0.307,0.969,0.170
19.556,-0.309,0.969,0.172
19.566,-0.307,0.967,0.170
19.576,-0.311,0.967,0.168
19.586,-0.309,0.965,0.170
19.595,-0.307,0.969,0.172
19.605,-0.311,0.963,0.170
19.615,-0.307,0.967,0.172
19.625,-0.309,0.965,0.168
19.635,-0.311,0.967,0.172
19.645,-0.307,0.967,0.168
19.655,-0.309,0.965,0.170
19.665,-0.311,0.967,0.170
19.675,-0.309,0.967,0.170
19.685,-0.307,0.967,0.168
19.695,-0.305,0.965,0.170
19.705,-0.307,0.963,0.166
19.715,-0.307,0.963,0.170
19.724,-0.307,0.961,0.168
19.734,-0.311,0.967,0.172
19.744,-0.309,0.967,0.170
19.754,-0.309,0.967,0.170
19.764,-0.309,0.967,0.170
19.774,-0.311,0.967,0.168
19.784,-0.311,0.967,0.168
19.794,-0.309,0.963,0.166
19.804,-0.312,0.965,0.164
19.814,-0.309,0.965,0.170
19.824,-0.311,0.967,0.172
19.834,-0.309,0.967,0.168
19.844,-0.309,0.969,0.170
19.853,-0.305,0.967,0.172
19.863,-0.307,0.969,0.166
19.873,-0.309,0.963,0.168
19.883,-0.309,0.957,0.168
19.893,-0.303,0.959,0.166
19.903,-0.307,0.967,0.168
19.913,-0.309,0.965,0.168
19.923,-0.311,0.973,0.166
19.933,-0.311,0.977,0.164
19.943,-0.309,0.975,0.168
19.953,-0.312,0.977,0.168
19.963,-0.312,0.971,0.168
19.973,-0.309,0.969,0.170
19.983,-0.309,0.961,0.164
19.992,-0.307,0.961,0.172
20.002,-0.305,0.961,0.170
20.012,-0.305,0.963,0.168
20.022,-0.309,0.963,0.168
20.032,-0.307,0.963,0.168
20.042,-0.305,0.963,0.168
20.052,-0.309,0.963,0.172
20.062,-0.307,0.963,0.170
20.072,-0.307,0.965,0.166
20.082,-0.307,0.965,0.174
20.092,-0.311,0.963,0.166
20.102,-0.309,0.967,0.168
20.112,-0.311,0.969,0.168
20.121,-0.309,0.967,0.170
20.131,-0.307,0.967,0.168
20.141,-0.307,0.967,0.168
20.151,-0.303,0.967,0.172
20.161,-0.305,0.967,0.168
20.171,-0.303,0.963,0.166
20.181,-0.309,0.965,0.170
20.191,-0.309,0.967,0.166
20.201,-0.307,0.969,0.168
20.211,-0.312,0.967,0.170
20.221,-0.311,0.965,0.168
20.231,-0.309,0.965,0.168
20.241,-0.307,0.965,0.170
20.251,-0.311,0.971,0.168
20.260,-0.309,0.965,0.170
20.270,-0.307,0.965,0.168
20.280,-0.309,0.965,0.168
20.290,-0.309,0.961,0.172
20.300,-0.311,0.965,0.164
20.310,-0.309,0.965,0.168
20.320,-0.309,0.963,0.168
20.330,-0.307,0.971,0.168
20.340,-0.309,0.965,0.168
20.350,-0.311,0.965,0.168
20.360,-0.311,0.965,0.166
20.370,-0.307,0.967,0.168
20.380,-0.307,0.967,0.164
20.389,-0.309,0.965,0.164
20.399,-0.307,0.965,0.168
20.409,-0.309,0.965,0.166
20.419,-0.311,0.963,0.168
20.429,-0.309,0.967,0.166
20.439,-0.307,0.965,0.170
20.449,-0.309,0.967,0.164
20.459,-0.311,0.965,0.170
20.469,-0.309,0.965,0.166
20.479,-0.311,0.965,0.168
20.489,-0.311,0.967,0.168
20.499,-0.307,0.963,0.166
20.509,-0.311,0.965,0.172
20.518,-0.311,0.967,0.172
20.528,-0.312,0.967,0.172
20.538,-0.311,0.967,0.168
20.548,-0.311,0.967,0.172
20.558,-0.309,0.963,0.170
20.568,-0.309,0.965,0.174
20.578,-0.311,0.965,0.168
20.588,-0.307,0.965,0.170
20.598,-0.309,0.963,0.168
20.608,-0.309,0.965,0.170
20.618,-0.305,0.967,0.170
20.628,-0.307,0.967,0.172
20.638,-0.309,0.963,0.170
20.648,-0.309,0.963,0.170
20.657,-0.305,0.959,0.170
20.667,-0.307,0.965,0.172
20.677,-0.307,0.965,0.168
20.687,-0.307,0.969,0.168
20.697,-0.307,0.969,0.166
20.707,-0.305,0.971,0.172
20.717,-0.307,0.969,0.170
20.727,-0.309,0.969,0.174
20.737,-0.307,0.965,0.174
20.747,-0.307,0.957,0.170
20.757,-0.303,0.961,0.172
20.767,-0.305,0.963,0.172
20.777,-0.307,0.965,0.170
20.786,-0.309,0.965,0.170
20.796,-0.309,0.965,0.168
20.806,-0.311,0.967,0.170
20.816,-0.309,0.965,0.168
20.826,-0.312,0.965,0.170
20.836,-0.311,0.967,0.168
20.846,-0.305,0.967,0.168
20.856,-0.309,0.967,0.166
20.866,-0.305,0.967,0.172
20.876,-0.307,0.969,0.168
20.886,-0.307,0.965,0.166
20.896,-0.305,0.967,0.170
20.906,-0.303,0.967,0.170
20.915,-0.303,0.969,0.170
20.925,-0.303,0.967,0.168
20.935,-0.303,0.965,0.168
20.945,-0.305,0.967,0.166
20.955,-0.305,0.967,0.170
20.965,-0.307,0.969,0.168
20.975,-0.303,0.965,0.168
20.985,-0.305,0.967,0.166
20.995,-0.305,0.971,0.166
21.005,-0.307,0.971,0.166
21.015,-0.309,0.967,0.170
21.025,-0.305,0.967,0.164
21.035,-0.305,0.971,0.172
21.045,-0.303,0.965,0.166
21.054,-0.301,0.965,0.166
21.064,-0.305,0.965,0.172
21.074,-0.307,0.965,0.170
21.084,-0.307,0.965,0.166
21.094,-0.307,0.969,0.166
21.104,-0.305,0.967,0.166
21.114,-0.301,0.965,0.170
21.124,-0.301,0.965,0.168
21.134,-0.307,0.967,0.170
21.144,-0.305,0.965,0.164
21.154,-0.307,0.967,0.168
21.164,-0.305,0.967,0.164
21.174,-0.305,0.963,0.170
21.183,-0.307,0.965,0.168
21.193,-0.305,0.967,0.168
21.203,-0.305,0.969,0.166
21.213,-0.303,0.967,0.170
21.223,-0.303,0.967,0.168
21.233,-0.307,0.971,0.168
21.243,-0.305,0.969,0.170
21.253,-0.309,0.967,0.172
21.263,-0.305,0.967,0.168
21.273,-0.307,0.967,0.172
21.283,-0.309,0.967,0.168
21.293,-0.311,0.967,0.170
21.303,-0.311,0.965,0.170
21.313,-0.309,0.965,0.168
21.322,-0.309,0.967,0.172
21.332,-0.307,0.967,0.168
21.342,-0.303,0.965,0.172
21.352,-0.303,0.971,0.172
21.362,-0.303,0.967,0.174
21.372,-0.303,0.969,0.174
21.382,-0.303,0.967,0.172
21.392,-0.299,0.965,0.172
21.402,-0.301,0.961,0.170
21.412,-0.301,0.963,0.170
21.422,-0.301,0.965,0.174
21.432,-0.303,0.969,0.172
21.442,-0.303,0.969,0.176
21.451,-0.307,0.969,0.172
21.461,-0.307,0.971,0.174
21.471,-0.305,0.971,0.172
21.481,-0.305,0.969,0.172
21.491,-0.307,0.967,0.174
21.501,-0.305,0.967,0.174
21.511,-0.301,0.965,0.172
21.521,-0.307,0.963,0.172
21.531,-0.307,0.963,0.170
21.541,-0.305,0.963,0.170
21.551,-0.307,0.965,0.176
21.561,-0.303,0.965,0.172
21.571,-0.303,0.967,0.172
21.580,-0.305,0.969,0.174
21.590,-0.301,0.969,0.174
21.600,-0.305,0.969,0.174
21.610,-0.305,0.967,0.170
21.620,-0.307,0.967,0.174
21.630,-0.307,0.965,0.170
21.640,-0.309,0.963,0.172
21.650,-0.307,0.967,0.172
21.660,-0.309,0.969,0.172
21.670,-0.305,0.969,0.172
21.680,-0.301,0.967,0.168
21.690,-0.303,0.967,0.172
21.700,-0.303,0.967,0.172
21.710,-0.303,0.967,0.170
21.719,-0.305,0.967,0.168
21.729,-0.301,0.967,0.172
21.739,-0.303,0.969,0.170
21.749,-0.301,0.971,0.170
21.759,-0.303,0.967,0.170
21.769,-0.305,0.969,0.168
21.779,-0.307,0.969,0.170
21.789,-0.305,0.967,0.168
21.799,-0.309,0.965,0.168
21.809,-0.307,0.967,0.166
21.819,-0.307,0.967,0.166
21.829,-0.311,0.965,0.168
21.839,-0.307,0.967,0.170
21.848,-0.311,0.967,0.164
21.858,-0.311,0.973,0.164
21.868,-0.316,0.980,0.164
21.878,-0.322,0.977,0.160
21.888,-0.320,0.979,0.158
21.898,-0.326,0.988,0.158
21.908,-0.328,0.990,0.152
21.918,-0.334,0.996,0.156
21.928,-0.336,1.004,0.158
21.938,-0.338,1.002,0.160
21.948,-0.322,0.990,0.158
21.958,-0.314,0.977,0.150
21.968,-0.312,0.975,0.145
21.978,-0.318,0.969,0.145
21.987,-0.324,0.967,0.145
21.997,-0.326,0.967,0.148
22.007,-0.330,0.963,0.148
22.017,-0.332,0.965,0.152
22.027,-0.326,0.957,0.156
22.037,-0.322,0.949,0.160
22.047,-0.309,0.945,0.170
22.057,-0.301,0.943,0.176
22.067,-0.291,0.943,0.184
22.077,-0.289,0.938,0.186
22.087,-0.289,0.939,0.186
22.097,-0.293,0.941,0.184
22.107,-0.295,0.947,0.182
22.116,-0.297,0.959,0.188
22.126,-0.301,0.963,0.186
22.136,-0.307,0.961,0.184
22.146,-0.309,0.965,0.182
22.156,-0.314,0.957,0.178
22.166,-0.316,0.957,0.174
22.176,-0.322,0.955,0.172
22.186,-0.326,0.955,0.174
22.196,-0.330,0.955,0.168
22.206,-0.336,0.955,0.166
22.216,-0.342,0.959,0.164
22.226,-0.350,0.961,0.168
22.236,-0.355,0.965,0.164
22.245,-0.355,0.969,0.166
22.255,-0.367,0.969,0.162
22.265,-0.373,0.971,0.160
22.275,-0.369,0.963,0.164
22.285,-0.357,0.963,0.168
22.295,-0.346,0.951,0.170
22.305,-0.338,0.949,0.174
22.315,-0.330,0.953,0.180
22.325,-0.326,0.953,0.182
22.335,-0.324,0.959,0.186
22.345,-0.322,0.951,0.188
22.355,-0.322,0.953,0.189
22.365,-0.320,0.951,0.193
22.375,-0.322,0.945,0.191
22.384,-0.320,0.943,0.197
22.394,-0.320,0.945,0.199
22.404,-0.322,0.943,0.197
22.414,-0.320,0.934,0.201
22.424,-0.312,0.936,0.205
22.434,-0.311,0.938,0.201
22.444,-0.312,0.941,0.199
22.454,-0.320,0.949,0.191
22.464,-0.324,0.951,0.188
22.474,-0.324,0.959,0.178
22.484,-0.326,0.963,0.174
22.494,-0.322,0.959,0.180
22.504,-0.316,0.957,0.191
22.513,-0.293,0.951,0.201
22.523,-0.273,0.941,0.207
22.533,-0.256,0.951,0.207
22.543,-0.252,0.951,0.203
22.553,-0.248,0.949,0.203
22.563,-0.250,0.959,0.201
22.573,-0.244,0.955,0.193
22.583,-0.242,0.963,0.195
22.593,-0.250,0.969,0.197
22.603,-0.262,0.988,0.197
22.613,-0.270,0.996,0.191
22.623,-0.291,0.996,0.184
22.633,-0.303,0.994,0.178
22.643,-0.305,0.988,0.170
22.652,-0.305,0.984,0.168
22.662,-0.309,0.984,0.170
22.672,-0.312,0.977,0.170
22.682,-0.312,0.969,0.170
22.692,-0.312,0.967,0.172
22.702,-0.312,0.961,0.174
22.712,-0.311,0.959,0.172
22.722,-0.322,0.965,0.180
22.732,-0.330,0.971,0.180
22.742,-0.334,0.973,0.176
22.752,-0.340,0.977,0.180
22.762,-0.344,0.979,0.178
22.772,-0.354,0.977,0.172
22.781,-0.357,0.971,0.168
22.791,-0.357,0.965,0.168
22.801,-0.357,0.965,0.174
22.811,-0.352,0.959,0.172
22.821,-0.348,0.955,0.174
22.831,-0.348,0.951,0.180
22.841,-0.352,0.951,0.180
22.851,-0.350,0.941,0.180
22.861,-0.350,0.943,0.180
22.871,-0.352,0.941,0.180
22.881,-0.352,0.938,0.178
22.891,-0.355,0.938,0.178
22.901,-0.355,0.938,0.184
22.910,-0.363,0.939,0.188
22.920,-0.377,0.943,0.193
22.930,-0.385,0.939,0.191
22.940,-0.383,0.932,0.188
22.950,-0.381,0.930,0.189
22.960,-0.381,0.932,0.195
22.970,-0.383,0.938,0.193
22.980,-0.385,0.945,0.197
22.990,-0.377,0.939,0.193
23.000,-0.371,0.943,0.188
23.010,-0.369,0.936,0.186
23.020,-0.369,0.936,0.182
23.030,-0.371,0.936,0.180
23.040,-0.371,0.924,0.178
23.049,-0.365,0.928,0.182
23.059,-0.357,0.947,0.191
23.069,-0.365,0.949,0.189
23.079,-0.367,0.947,0.188
23.089,-0.369,0.949,0.186
23.099,-0.381,0.930,0.176
23.109,-0.389,0.926,0.174
23.119,-0.396,0.930,0.178
23.129,-0.414,0.928,0.168
23.139,-0.438,0.912,0.156
23.149,-0.457,0.920,0.156
23.159,-0.469,0.928,0.160
23.169,-0.471,0.941,0.160
23.178,-0.469,0.951,0.164
23.188,-0.457,0.953,0.168
23.198,-0.438,0.955,0.170
23.208,-0.428,0.955,0.174
23.218,-0.410,0.959,0.180
23.228,-0.398,0.957,0.188
23.238,-0.381,0.961,0.188
23.248,-0.375,0.963,0.193
23.258,-0.363,0.961,0.189
23.268,-0.350,0.955,0.193
23.278,-0.344,0.949,0.191
23.288,-0.338,0.953,0.193
23.298,-0.336,0.943,0.186
23.307,-0.336,0.941,0.186
23.317,-0.330,0.947,0.189
23.327,-0.332,0.949,0.188
23.337,-0.328,0.943,0.182
23.347,-0.326,0.949,0.182
23.357,-0.320,0.945,0.178
23.367,-0.320,0.949,0.182
23.377,-0.312,0.951,0.182
23.387,-0.309,0.959,0.182
23.397,-0.301,0.961,0.186
23.407,-0.295,0.963,0.188
23.417,-0.295,0.963,0.180
23.427,-0.297,0.967,0.184
23.437,-0.299,0.971,0.188
23.446,-0.301,0.963,0.184
23.456,-0.309,0.957,0.178
23.466,-0.316,0.957,0.176
23.476,-0.320,0.953,0.176
23.486,-0.318,0.957,0.178
23.496,-0.322,0.959,0.174
23.506,-0.324,0.959,0.174
23.516,-0.322,0.963,0.174
23.526,-0.326,0.967,0.170
23.536,-0.324,0.971,0.178
23.546,-0.324,0.971,0.172
23.556,-0.320,0.969,0.170
23.566,-0.318,0.973,0.172
23.575,-0.318,0.971,0.172
23.585,-0.307,0.969,0.174
23.595,-0.295,0.971,0.172
23.605,-0.283,0.971,0.166
23.615,-0.281,0.967,0.172
23.625,-0.279,0.965,0.168
23.635,-0.275,0.965,0.168
23.645,-0.275,0.967,0.166
23.655,-0.283,0.961,0.162
23.665,-0.289,0.967,0.162
23.675,-0.297,0.971,0.162
23.685,-0.289,0.975,0.164
23.695,-0.291,0.973,0.162
23.705,-0.289,0.975,0.160
23.714,-0.283,0.977,0.162
23.724,-0.293,0.977,0.158
23.734,-0.295,0.973,0.160
23.744,-0.293,0.977,0.160
23.754,-0.291,0.973,0.154
23.764,-0.287,0.975,0.154
23.774,-0.293,0.975,0.156
23.784,-0.301,0.979,0.154
23.794,-0.291,0.979,0.156
23.804,-0.283,0.982,0.156
23.814,-0.271,0.986,0.156
23.824,-0.268,0.992,0.158
23.834,-0.260,0.994,0.160
23.843,-0.252,0.998,0.164
23.853,-0.254,1.004,0.168
23.863,-0.252,1.002,0.170
23.873,-0.246,1.000,0.164
23.883,-0.246,0.996,0.160
23.893,-0.246,0.980,0.156
23.903,-0.246,0.977,0.158
23.913,-0.250,0.973,0.152
23.923,-0.252,0.977,0.154
23.933,-0.260,0.980,0.160
23.943,-0.266,0.980,0.160
23.953,-0.271,0.982,0.162
23.963,-0.277,0.984,0.164
23.972,-0.281,0.979,0.162
23.982,-0.295,0.977,0.162
23.992,-0.311,0.979,0.170
24.002,-0.320,0.977,0.172
24.012,-0.328,0.975,0.176
24.022,-0.332,0.973,0.182
24.032,-0.342,0.967,0.184
24.042,-0.346,0.961,0.186
24.052,-0.348,0.955,0.191
24.062,-0.340,0.945,0.193
24.072,-0.332,0.941,0.199
24.082,-0.328,0.939,0.197
24.092,-0.330,0.932,0.201
24.102,-0.326,0.934,0.209
24.111,-0.328,0.932,0.207
24.121,-0.326,0.930,0.209
24.131,-0.316,0.936,0.215
24.141,-0.322,0.943,0.215
24.151,-0.328,0.934,0.215
24.161,-0.334,0.943,0.219
24.171,-0.342,0.943,0.215
24.181,-0.344,0.941,0.219
24.191,-0.346,0.945,0.223
24.201,-0.348,0.939,0.215
24.211,-0.348,0.936,0.215
24.221,-0.350,0.941,0.213
24.231,-0.352,0.941,0.213
24.240,-0.346,0.939,0.211
24.250,-0.352,0.941,0.215
24.260,-0.355,0.943,0.215
24.270,-0.354,0.938,0.205
24.280,-0.354,0.932,0.203
24.290,-0.355,0.934,0.205
24.300,-0.352,0.939,0.203
24.310,-0.354,0.945,0.201
24.320,-0.354,0.951,0.201
24.330,-0.354,0.957,0.205
24.340,-0.354,0.957,0.203
24.350,-0.355,0.955,0.201
24.360,-0.348,0.953,0.199
24.370,-0.348,0.951,0.195
24.379,-0.346,0.955,0.197
24.389,-0.344,0.963,0.199
24.399,-0.342,0.965,0.197
24.409,-0.338,0.969,0.199
24.419,-0.334,0.969,0.201
24.429,-0.334,0.969,0.199
24.439,-0.338,0.963,0.201
24.449,-0.336,0.959,0.201
24.459,-0.336,0.955,0.197
24.469,-0.334,0.951,0.199
24.479,-0.336,0.951,0.193
24.489,-0.334,0.951,0.197
24.499,-0.332,0.949,0.197
24.508,-0.330,0.947,0.197
24.518,-0.330,0.953,0.197
24.528,-0.330,0.955,0.201
24.538,-0.330,0.959,0.195
24.548,-0.328,0.961,0.199
24.558,-0.326,0.963,0.199
24.568,-0.326,0.965,0.199
24.578,-0.326,0.967,0.193
24.588,-0.330,0.969,0.195
24.598,-0.330,0.973,0.191
24.608,-0.334,0.971,0.193
24.618,-0.328,0.967,0.195
24.628,-0.330,0.965,0.195
24.637,-0.328,0.965,0.191
24.647,-0.322,0.961,0.193
24.657,-0.320,0.955,0.189
24.667,-0.318,0.957,0.191
24.677,-0.320,0.953,0.193
24.687,-0.322,0.957,0.195
24.697,-0.326,0.957,0.197
24.707,-0.326,0.959,0.199
24.717,-0.324,0.957,0.195
24.727,-0.326,0.957,0.197
24.737,-0.322,0.961,0.197
24.747,-0.322,0.957,0.195
24.757,-0.328,0.955,0.195
24.767,-0.330,0.955,0.193
24.776,-0.330,0.959,0.197
24.786,-0.328,0.955,0.193
24.796,-0.330,0.953,0.195
24.806,-0.334,0.957,0.193
24.816,-0.338,0.957,0.193
24.826,-0.338,0.959,0.195
24.836,-0.336,0.959,0.195
24.846,-0.338,0.961,0.195
24.856,-0.336,0.957,0.199
24.866,-0.336,0.955,0.197
24.876,-0.336,0.955,0.195
24.886,-0.338,0.953,0.195
24.896,-0.338,0.955,0.195
24.905,-0.336,0.951,0.195
24.915,-0.336,0.953,0.193
24.925,-0.336,0.955,0.193
24.935,-0.338,0.953,0.193
24.945,-0.336,0.953,0.193
24.955,-0.338,0.953,0.197
24.965,-0.336,0.953,0.197
24.975,-0.334,0.955,0.197
24.985,-0.336,0.953,0.197
24.995,-0.338,0.949,0.191
25.005,-0.342,0.951,0.195
25.015,-0.340,0.951,0.199
25.025,-0.338,0.953,0.199
25.035,-0.334,0.951,0.195
25.044,-0.330,0.947,0.199
25.054,-0.332,0.949,0.193
25.064,-0.332,0.949,0.195
25.074,-0.336,0.949,0.197
25.084,-0.340,0.947,0.195
25.094,-0.348,0.953,0.193
25.104,-0.352,0.953,0.199
25.114,-0.354,0.955,0.199
25.124,-0.354,0.955,0.201
25.134,-0.352,0.955,0.201
25.144,-0.346,0.953,0.201
25.154,-0.346,0.951,0.199
25.164,-0.344,0.951,0.203
25.173,-0.340,0.951,0.201
25.183,-0.338,0.951,0.201
25.193,-0.340,0.947,0.203
25.203,-0.340,0.947,0.197
25.213,-0.340,0.951,0.203
25.223,-0.340,0.947,0.201
25.233,-0.342,0.953,0.205
25.243,-0.336,0.955,0.203
25.253,-0.328,0.961,0.203
25.263,-0.330,0.955,0.201
25.273,-0.328,0.953,0.201
25.283,-0.328,0.957,0.199
25.293,-0.322,0.951,0.201
25.302,-0.334,0.949,0.197
25.312,-0.340,0.949,0.195
25.322,-0.348,0.951,0.199
25.332,-0.355,0.947,0.197
25.342,-0.359,0.955,0.197
25.352,-0.357,0.957,0.199
25.362,-0.354,0.959,0.197
25.372,-0.348,0.963,0.197
25.382,-0.342,0.959,0.201
25.392,-0.342,0.961,0.199
25.402,-0.332,0.955,0.199
25.412,-0.334,0.953,0.197
25.422,-0.332,0.949,0.197
25.432,-0.338,0.949,0.199
25.441,-0.340,0.945,0.197
25.451,-0.340,0.949,0.199
25.461,-0.336,0.951,0.201
25.471,-0.338,0.953,0.199
25.481,-0.338,0.959,0.205
25.491,-0.336,0.957,0.203
25.501,-0.338,0.955,0.201
25.511,-0.338,0.955,0.201
25.521,-0.338,0.955,0.197
25.531,-0.332,0.955,0.197
25.541,-0.338,0.955,0.199
25.551,-0.338,0.957,0.199
25.561,-0.338,0.957,0.199
25.570,-0.340,0.955,0.199
25.580,-0.338,0.953,0.197
25.590,-0.342,0.953,0.199
25.600,-0.344,0.953,0.199
25.610,-0.344,0.953,0.197
25.620,-0.344,0.953,0.199
25.630,-0.344,0.953,0.197
25.640,-0.342,0.951,0.199
25.650,-0.342,0.953,0.199
25.660,-0.340,0.951,0.199
25.670,-0.342,0.951,0.201
25.680,-0.340,0.949,0.201
25.690,-0.342,0.947,0.199
25.700,-0.344,0.949,0.201
25.709,-0.342,0.949,0.199
25.719,-0.340,0.953,0.199
25.729,-0.344,0.953,0.201
25.739,-0.338,0.959,0.199
25.749,-0.336,0.959,0.199
25.759,-0.338,0.959,0.201
25.769,-0.342,0.957,0.201
25.779,-0.342,0.961,0.199
25.789,-0.340,0.957,0.201
25.799,-0.340,0.955,0.203
25.809,-0.340,0.951,0.201
25.819,-0.342,0.951,0.199
25.829,-0.340,0.951,0.199
25.838,-0.342,0.951,0.201
25.848,-0.338,0.951,0.199
25.858,-0.338,0.951,0.201
25.868,-0.338,0.951,0.199
25.878,-0.340,0.957,0.203
25.888,-0.338,0.953,0.201
25.898,-0.338,0.953,0.203
25.908,-0.338,0.951,0.201
25.918,-0.338,0.951,0.201
25.928,-0.336,0.953,0.203
25.938,-0.332,0.947,0.203
25.948,-0.334,0.949,0.201
25.958,-0.330,0.953,0.203
25.967,-0.332,0.953,0.205
25.977,-0.330,0.955,0.201
25.987,-0.332,0.953,0.203
25.997,-0.334,0.951,0.199
26.007,-0.334,0.949,0.201
26.017,-0.340,0.951,0.201
26.027,-0.340,0.953,0.197
26.037,-0.338,0.953,0.199
26.047,-0.338,0.955,0.203
26.057,-0.340,0.959,0.201
26.067,-0.340,0.957,0.201
26.077,-0.342,0.957,0.205
26.087,-0.338,0.957,0.199
26.097,-0.336,0.957,0.201
26.106,-0.336,0.953,0.197
26.116,-0.340,0.955,0.203
26.126,-0.334,0.953,0.201
26.136,-0.338,0.951,0.201
26.146,-0.338,0.949,0.199
26.156,-0.338,0.955,0.203
26.166,-0.336,0.955,0.203
26.176,-0.334,0.951,0.201
26.186,-0.332,0.953,0.201
26.196,-0.332,0.953,0.203
26.206,-0.336,0.953,0.199
26.216,-0.336,0.955,0.201
26.226,-0.336,0.957,0.205
26.235,-0.338,0.951,0.203
26.245,-0.338,0.955,0.197
26.255,-0.334,0.955,0.201
26.265,-0.332,0.957,0.199
26.275,-0.334,0.951,0.201
26.285,-0.336,0.951,0.199
26.295,-0.336,0.951,0.199
26.305,-0.340,0.951,0.201
26.315,-0.340,0.953,0.203
26.325,-0.342,0.955,0.201
26.335,-0.338,0.953,0.199
26.345,-0.338,0.953,0.201
26.355,-0.338,0.955,0.199
26.364,-0.332,0.949,0.199
26.374,-0.330,0.951,0.199
26.384,-0.332,0.953,0.195
26.394,-0.334,0.953,0.197
26.404,-0.334,0.957,0.199
26.414,-0.338,0.961,0.197
26.424,-0.334,0.961,0.195
26.434,-0.338,0.959,0.195
26.444,-0.338,0.959,0.195
26.454,-0.334,0.961,0.197
26.464,-0.332,0.955,0.195
26.474,-0.332,0.957,0.191
26.484,-0.336,0.955,0.197
26.494,-0.334,0.953,0.193
26.503,-0.334,0.953,0.197
26.513,-0.332,0.951,0.195
26.523,-0.330,0.955,0.193
26.533,-0.332,0.955,0.197
26.543,-0.326,0.959,0.195
26.553,-0.334,0.955,0.197
26.563,-0.330,0.957,0.195
26.573,-0.330,0.957,0.195
26.583,-0.330,0.959,0.193
26.593,-0.326,0.957,0.193
26.603,-0.320,0.957,0.195
26.613,-0.340,0.955,0.197
26.623,-0.336,0.955,0.197
26.632,-0.324,0.951,0.199
26.642,-0.320,0.957,0.197
26.652,-0.340,0.957,0.195
26.662,-0.342,0.953,0.195
26.672,-0.332,0.951,0.195
26.682,-0.332,0.953,0.193
26.692,-0.334,0.959,0.195
26.702,-0.334,0.957,0.193
26.712,-0.332,0.959,0.191
26.722,-0.332,0.959,0.193
26.732,-0.338,0.959,0.191
26.742,-0.336,0.957,0.191
26.752,-0.336,0.959,0.193
26.762,-0.342,0.957,0.195
26.771,-0.338,0.955,0.197
26.781,-0.336,0.957,0.193
26.791,-0.336,0.957,0.193
26.801,-0.336,0.955,0.189
26.811,-0.334,0.953,0.191
26.821,-0.330,0.957,0.193
26.831,-0.328,0.953,0.195
26.841,-0.330,0.957,0.195
26.851,-0.330,0.957,0.193
26.861,-0.328,0.957,0.193
26.871,-0.330,0.957,0.193
26.881,-0.334,0.957,0.195
26.891,-0.334,0.955,0.193
26.900,-0.330,0.955,0.193
26.910,-0.330,0.953,0.191
26.920,-0.330,0.953,0.189
26.930,-0.328,0.953,0.193
26.940,-0.328,0.957,0.189
26.950,-0.324,0.959,0.193
26.960,-0.330,0.959,0.191
26.970,-0.330,0.961,0.191
26.980,-0.332,0.959,0.191
26.990,-0.334,0.961,0.191
27.000,-0.336,0.961,0.191
27.010,-0.334,0.959,0.191
27.020,-0.336,0.961,0.191
27.029,-0.332,0.959,0.188
27.039,-0.338,0.957,0.189
27.049,-0.340,0.955,0.191
27.059,-0.338,0.955,0.191
27.069,-0.334,0.955,0.191
27.079,-0.336,0.951,0.191
27.089,-0.334,0.951,0.191
27.099,-0.334,0.951,0.191
27.109,-0.332,0.955,0.191
27.119,-0.332,0.961,0.193
27.129,-0.330,0.961,0.191
27.139,-0.334,0.965,0.195
27.149,-0.332,0.961,0.193
27.159,-0.336,0.959,0.193
27.168,-0.334,0.953,0.191
27.178,-0.332,0.953,0.191
27.188,-0.332,0.953,0.189
27.198,-0.334,0.951,0.195
27.208,-0.332,0.951,0.191
27.218,-0.334,0.953,0.191
27.228,-0.332,0.951,0.188
27.238,-0.334,0.955,0.191
27.248,-0.336,0.949,0.195
27.258,-0.338,0.955,0.193
27.268,-0.334,0.953,0.193
27.278,-0.336,0.955,0.193
27.288,-0.336,0.955,0.197
27.297,-0.338,0.955,0.195
27.307,-0.338,0.957,0.193
27.317,-0.334,0.955,0.195
27.327,-0.334,0.955,0.197
27.337,-0.334,0.955,0.197
27.347,-0.330,0.957,0.199
27.357,-0.332,0.957,0.195
27.367,-0.334,0.953,0.191
27.377,-0.334,0.953,0.193
27.387,-0.332,0.955,0.195
27.397,-0.332,0.955,0.195
27.407,-0.334,0.957,0.197
27.417,-0.330,0.957,0.193
27.427,-0.332,0.957,0.197
27.436,-0.332,0.959,0.197
27.446,-0.334,0.961,0.195
27.456,-0.332,0.957,0.191
27.466,-0.334,0.955,0.193
27.476,-0.332,0.955,0.193
27.486,-0.334,0.953,0.191
27.496,-0.334,0.955,0.195
27.506,-0.336,0.959,0.195
27.516,-0.336,0.957,0.195
27.526,-0.336,0.957,0.195
27.536,-0.332,0.957,0.191
27.546,-0.334,0.955,0.195
27.556,-0.334,0.957,0.193
27.565,-0.334,0.955,0.193
27.575,-0.328,0.955,0.191
27.585,-0.330,0.953,0.189
27.595,-0.330,0.955,0.191
27.605,-0.326,0.961,0.191
27.615,-0.324,0.959,0.191
27.625,-0.328,0.957,0.193
27.635,-0.326,0.959,0.195
27.645,-0.328,0.957,0.193
27.655,-0.328,0.955,0.193
27.665,-0.328,0.955,0.189
27.675,-0.332,0.955,0.191
27.685,-0.332,0.955,0.193
27.694,-0.330,0.957,0.193
27.704,-0.332,0.959,0.193
27.714,-0.334,0.957,0.193
27.724,-0.336,0.957,0.191
27.734,-0.338,0.957,0.197
27.744,-0.340,0.957,0.195
27.754,-0.336,0.957,0.195
27.764,-0.334,0.957,0.197
27.774,-0.334,0.955,0.197
27.784,-0.332,0.953,0.197
27.794,-0.330,0.953,0.195
27.804,-0.330,0.951,0.191
27.814,-0.332,0.957,0.191
27.824,-0.332,0.961,0.193
27.833,-0.332,0.963,0.193
27.843,-0.332,0.961,0.197
27.853,-0.334,0.961,0.195
27.863,-0.332,0.959,0.195
27.873,-0.336,0.955,0.195
27.883,-0.330,0.957,0.195
27.893,-0.334,0.953,0.193
27.903,-0.332,0.951,0.191
27.913,-0.332,0.953,0.195
27.923,-0.332,0.951,0.193
27.933,-0.332,0.953,0.195
27.943,-0.334,0.957,0.195
27.953,-0.332,0.955,0.191
27.962,-0.330,0.959,0.197
27.972,-0.326,0.957,0.195
27.982,-0.330,0.953,0.197
27.992,-0.332,0.957,0.193
28.002,-0.330,0.959,0.199
28.012,-0.332,0.955,0.197
28.022,-0.334,0.955,0.195
28.032,-0.332,0.955,0.197
28.042,-0.334,0.957,0.199
28.052,-0.328,0.955,0.193
28.062,-0.328,0.957,0.197
28.072,-0.332,0.953,0.193
28.082,-0.328,0.955,0.195
28.092,-0.326,0.955,0.197
28.101,-0.326,0.959,0.195
28.111,-0.330,0.957,0.195
28.121,-0.332,0.957,0.197
28.131,-0.332,0.957,0.193
28.141,-0.328,0.959,0.197
28.151,-0.332,0.957,0.197
28.161,-0.326,0.957,0.199
28.171,-0.328,0.957,0.193
28.181,-0.324,0.951,0.193
28.191,-0.330,0.953,0.199
28.201,-0.330,0.955,0.197
28.211,-0.332,0.955,0.199
28.221,-0.324,0.955,0.193
28.230,-0.332,0.957,0.191
28.240,-0.330,0.961,0.197
28.250,-0.330,0.961,0.195
28.260,-0.334,0.957,0.193
28.270,-0.340,0.959,0.197
28.280,-0.340,0.955,0.193
28.290,-0.344,0.957,0.195
28.300,-0.338,0.957,0.193
28.310,-0.340,0.955,0.193
28.320,-0.336,0.953,0.191
28.330,-0.336,0.955,0.195
28.340,-0.334,0.955,0.197
28.350,-0.330,0.959,0.195
28.359,-0.332,0.957,0.195
28.369,-0.330,0.961,0.199
28.379,-0.328,0.961,0.199
28.389,-0.328,0.959,0.193
28.399,-0.328,0.959,0.193
28.409,-0.326,0.955,0.193
28.419,-0.328,0.955,0.191
28.429,-0.328,0.953,0.193
28.439,-0.328,0.957,0.197
28.449,-0.330,0.953,0.195
28.459,-0.328,0.959,0.195
28.469,-0.328,0.959,0.195
28.479,-0.330,0.959,0.197
28.489,-0.324,0.959,0.195
28.498,-0.324,0.957,0.193
28.508,-0.320,0.957,0.191
28.518,-0.324,0.957,0.193
28.528,-0.324,0.959,0.195
28.538,-0.326,0.957,0.195
28.548,-0.330,0.959,0.195
28.558,-0.330,0.959,0.197
28.568,-0.338,0.959,0.195
28.578,-0.334,0.957,0.195
28.588,-0.332,0.957,0.197
28.598,-0.332,0.955,0.197
28.608,-0.334,0.953,0.195
28.618,-0.328,0.953,0.195
28.627,-0.332,0.957,0.191
28.637,-0.330,0.953,0.195
28.647,-0.326,0.957,0.193
28.657,-0.326,0.953,0.197
28.667,-0.328,0.957,0.195
28.677,-0.328,0.959,0.195
28.687,-0.332,0.961,0.195
28.697,-0.330,0.959,0.197
28.707,-0.330,0.959,0.197
28.717,-0.332,0.957,0.195
28.727,-0.328,0.959,0.195
28.737,-0.328,0.957,0.193
28.747,-0.330,0.955,0.193
28.757,-0.330,0.957,0.193
28.766,-0.330,0.957,0.197
28.776,-0.330,0.955,0.195
28.786,-0.328,0.955,0.193
28.796,-0.326,0.957,0.193
28.806,-0.328,0.959,0.191
28.816,-0.328,0.959,0.197
28.826,-0.326,0.963,0.195
28.836,-0.330,0.959,0.195
28.846,-0.326,0.959,0.195
28.856,-0.328,0.961,0.199
28.866,-0.330,0.959,0.197
28.876,-0.328,0.961,0.199
28.886,-0.330,0.959,0.195
28.895,-0.328,0.953,0.197
28.905,-0.328,0.957,0.195
28.915,-0.330,0.955,0.195
28.925,-0.328,0.955,0.197
28.935,-0.326,0.953,0.197
28.945,-0.324,0.953,0.197
28.955,-0.326,0.957,0.195
28.965,-0.324,0.957,0.197
28.975,-0.320,0.957,0.195
28.985,-0.324,0.961,0.199
28.995,-0.320,0.959,0.197
29.005,-0.322,0.959,0.193
29.015,-0.322,0.957,0.193
29.024,-0.324,0.959,0.193
29.034,-0.326,0.957,0.193
29.044,-0.326,0.957,0.193
29.054,-0.322,0.959,0.197
29.064,-0.326,0.961,0.195
29.074,-0.328,0.959,0.195
29.084,-0.328,0.959,0.193
29.094,-0.328,0.963,0.197
29.104,-0.328,0.959,0.199
29.114,-0.326,0.953,0.191
29.124,-0.326,0.955,0.193
29.134,-0.324,0.957,0.195
29.144,-0.322,0.955,0.195
29.154,-0.324,0.951,0.197
29.163,-0.324,0.949,0.197
29.173,-0.328,0.955,0.195
29.183,-0.330,0.949,0.195
29.193,-0.332,0.951,0.195
29.203,-0.336,0.953,0.193
29.213,-0.334,0.957,0.197
29.223,-0.336,0.961,0.193
29.233,-0.330,0.965,0.191
29.243,-0.328,0.967,0.191
29.253,-0.328,0.967,0.193
29.263,-0.326,0.965,0.191
29.273,-0.324,0.963,0.189
29.283,-0.322,0.957,0.191
29.292,-0.324,0.961,0.195
29.302,-0.322,0.957,0.193
29.312,-0.324,0.957,0.193
29.322,-0.326,0.959,0.195
29.332,-0.326,0.959,0.195
29.342,-0.328,0.955,0.191
29.352,-0.328,0.959,0.193
29.362,-0.328,0.961,0.193
29.372,-0.328,0.955,0.189
29.382,-0.330,0.961,0.193
29.392,-0.328,0.957,0.193
29.402,-0.334,0.957,0.191
29.412,-0.334,0.959,0.193
29.421,-0.336,0.957,0.188
29.431,-0.334,0.957,0.188
29.441,-0.332,0.959,0.188
29.451,-0.338,0.959,0.193
29.461,-0.328,0.957,0.191
29.471,-0.326,0.963,0.195
29.481,-0.324,0.957,0.191
29.491,-0.324,0.957,0.195
29.501,-0.320,0.959,0.189
29.511,-0.324,0.959,0.189
29.521,-0.322,0.961,0.189
29.531,-0.316,0.961,0.193
29.541,-0.312,0.965,0.197
29.551,-0.312,0.961,0.191
29.560,-0.312,0.959,0.193
29.570,-0.320,0.963,0.197
29.580,-0.320,0.961,0.197
29.590,-0.326,0.957,0.195
29.600,-0.326,0.957,0.195
29.610,-0.324,0.963,0.195
29.620,-0.326,0.957,0.193
29.630,-0.326,0.957,0.193
29.640,-0.324,0.957,0.195
29.650,-0.322,0.957,0.193
29.660,-0.320,0.963,0.197
29.670,-0.326,0.959,0.197
29.680,-0.324,0.959,0.195
29.689,-0.322,0.957,0.197
29.699,-0.322,0.957,0.197
29.709,-0.322,0.961,0.197
29.719,-0.326,0.957,0.195
29.729,-0.324,0.957,0.197
29.739,-0.324,0.959,0.197
29.749,-0.324,0.957,0.195
29.759,-0.324,0.959,0.193
29.769,-0.322,0.961,0.199
29.779,-0.322,0.961,0.193
29.789,-0.322,0.959,0.195
29.799,-0.322,0.955,0.195
29.809,-0.324,0.955,0.197
29.819,-0.324,0.959,0.197
29.828,-0.328,0.961,0.195
29.838,-0.326,0.959,0.193
29.848,-0.328,0.959,0.197
29.858,-0.324,0.961,0.195
29.868,-0.322,0.961,0.193
29.878,-0.318,0.959,0.193
29.888,-0.320,0.957,0.191
29.898,-0.320,0.959,0.191
29.908,-0.320,0.963,0.193
29.918,-0.324,0.963,0.191
29.928,-0.324,0.963,0.191
29.938,-0.324,0.965,0.191
29.948,-0.322,0.967,0.195
29.957,-0.324,0.967,0.195
29.967,-0.322,0.959,0.189
29.977,-0.318,0.957,0.193
29.987,-0.318,0.957,0.191
29.997,-0.320,0.957,0.189
30.007,-0.316,0.957,0.191
30.017,-0.316,0.957,0.193
30.027,-0.316,0.957,0.193
30.037,-0.318,0.957,0.193
30.047,-0.320,0.955,0.193
30.057,-0.320,0.959,0.191
30.067,-0.320,0.957,0.193
30.077,-0.318,0.961,0.191
30.086,-0.318,0.959,0.191
30.096,-0.322,0.959,0.188
30.106,-0.318,0.961,0.191
30.116,-0.318,0.961,0.189
30.126,-0.320,0.963,0.189
30.136,-0.320,0.965,0.193
30.146,-0.322,0.959,0.189
30.156,-0.324,0.955,0.189
30.166,-0.320,0.957,0.189
30.176,-0.320,0.961,0.191
30.186,-0.316,0.959,0.188
30.196,-0.316,0.959,0.191
30.206,-0.318,0.959,0.189
30.216,-0.316,0.959,0.193
30.225,-0.316,0.963,0.191
30.235,-0.318,0.961,0.193
30.245,-0.320,0.959,0.193
30.255,-0.322,0.959,0.191
30.265,-0.322,0.957,0.189
30.275,-0.324,0.959,0.191
30.285,-0.324,0.959,0.191
30.295,-0.322,0.959,0.188
30.305,-0.322,0.961,0.189
30.315,-0.326,0.963,0.191
30.325,-0.326,0.961,0.191
30.335,-0.322,0.961,0.191
30.345,-0.320,0.963,0.191
30.354,-0.322,0.963,0.189
30.364,-0.320,0.963,0.191
30.374,-0.322,0.961,0.195
30.384,-0.320,0.959,0.189
30.394,-0.320,0.959,0.195
30.404,-0.320,0.957,0.195
30.414,-0.318,0.959,0.191
30.424,-0.318,0.961,0.193
30.434,-0.316,0.959,0.195
30.444,-0.320,0.959,0.191
30.454,-0.316,0.961,0.189
30.464,-0.316,0.959,0.191
30.474,-0.320,0.961,0.193
30.484,-0.316,0.955,0.189
30.493,-0.320,0.955,0.191
30.503,-0.324,0.957,0.191
30.513,-0.318,0.959,0.191
30.523,-0.318,0.965,0.191
30.533,-0.322,0.963,0.188
30.543,-0.324,0.965,0.184
30.553,-0.324,0.965,0.188
30.563,-0.320,0.967,0.186
30.573,-0.324,0.969,0.191
30.583,-0.324,0.963,0.189
30.593,-0.324,0.963,0.191
30.603,-0.320,0.959,0.189
30.613,-0.320,0.959,0.191
30.622,-0.320,0.957,0.186
30.632,-0.320,0.957,0.189
30.642,-0.322,0.957,0.191
30.652,-0.320,0.957,0.188
30.662,-0.316,0.959,0.189
30.672,-0.320,0.961,0.189
30.682,-0.320,0.959,0.188
30.692,-0.316,0.961,0.191
30.702,-0.318,0.963,0.189
30.712,-0.320,0.961,0.189
30.722,-0.322,0.959,0.189
30.732,-0.320,0.959,0.188
30.742,-0.320,0.959,0.191
30.751,-0.318,0.961,0.189
30.761,-0.320,0.959,0.186
30.771,-0.322,0.959,0.188
30.781,-0.320,0.953,0.186
30.791,-0.326,0.965,0.186
30.801,-0.326,0.963,0.191
30.811,-0.326,0.965,0.188
30.821,-0.326,0.961,0.189
30.831,-0.322,0.965,0.188
30.841,-0.324,0.963,0.191
30.851,-0.322,0.961,0.189
30.861,-0.320,0.963,0.189
30.871,-0.322,0.957,0.188
30.881,-0.322,0.959,0.188
30.890,-0.320,0.959,0.189
30.900,-0.322,0.957,0.188
30.910,-0.322,0.961,0.188
30.920,-0.318,0.961,0.188
30.930,-0.322,0.965,0.189
30.940,-0.324,0.965,0.188
30.950,-0.324,0.965,0.188
30.960,-0.326,0.963,0.188
30.970,-0.320,0.959,0.184
30.980,-0.322,0.961,0.188
30.990,-0.320,0.963,0.186
31.000,-0.318,0.961,0.191
31.010,-0.316,0.963,0.188
31.019,-0.318,0.959,0.186
31.029,-0.318,0.959,0.189
31.039,-0.320,0.959,0.188
31.049,-0.320,0.961,0.188
31.059,-0.320,0.961,0.186
31.069,-0.318,0.961,0.189
31.079,-0.318,0.961,0.189
31.089,-0.307,0.961,0.182
31.099,-0.326,0.955,0.193
31.109,-0.336,0.955,0.176
31.119,-0.312,0.955,0.189
31.129,-0.320,0.965,0.186
31.139,-0.328,0.969,0.188
31.149,-0.324,0.965,0.188
31.158,-0.326,0.967,0.186
31.168,-0.328,0.969,0.189
31.178,-0.326,0.965,0.186
31.188,-0.330,0.965,0.188
31.198,-0.324,0.961,0.188
31.208,-0.324,0.957,0.184
31.218,-0.322,0.957,0.184
31.228,-0.326,0.957,0.189
31.238,-0.324,0.959,0.186
31.248,-0.322,0.957,0.188
31.258,-0.320,0.959,0.188
31.268,-0.320,0.961,0.186
31.278,-0.320,0.963,0.188
31.287,-0.318,0.959,0.188
31.297,-0.318,0.961,0.188
31.307,-0.322,0.963,0.182
31.317,-0.324,0.963,0.186
31.327,-0.322,0.959,0.186
31.337,-0.326,0.957,0.186
31.347,-0.324,0.963,0.184
31.357,-0.324,0.963,0.186
31.367,-0.324,0.963,0.184
31.377,-0.322,0.961,0.184
31.387,-0.324,0.959,0.186
31.397,-0.324,0.961,0.186
31.407,-0.324,0.961,0.186
31.416,-0.320,0.959,0.186
31.426,-0.322,0.963,0.188
31.436,-0.324,0.959,0.188
31.446,-0.328,0.959,0.188
31.456,-0.330,0.959,0.188
31.466,-0.328,0.957,0.188
31.476,-0.326,0.959,0.188
31.486,-0.334,0.957,0.186
31.496,-0.328,0.957,0.189
31.506,-0.328,0.957,0.188
31.516,-0.326,0.957,0.191
31.526,-0.324,0.959,0.191
31.536,-0.324,0.957,0.189
31.546,-0.326,0.961,0.189
31.555,-0.324,0.961,0.191
31.565,-0.322,0.957,0.188
31.575,-0.320,0.961,0.186
31.585,-0.322,0.959,0.188
31.595,-0.320,0.959,0.191
31.605,-0.324,0.957,0.188
31.615,-0.324,0.961,0.188
31.625,-0.328,0.961,0.189
31.635,-0.328,0.961,0.188
31.645,-0.324,0.963,0.189
31.655,-0.324,0.961,0.189
31.665,-0.322,0.957,0.188
31.675,-0.324,0.963,0.188
31.684,-0.322,0.961,0.188
31.694,-0.322,0.959,0.186
31.704,-0.320,0.953,0.189
31.714,-0.318,0.953,0.191
31.724,-0.314,0.955,0.193
31.734,-0.322,0.961,0.191
31.744,-0.318,0.959,0.186
31.754,-0.320,0.959,0.189
31.764,-0.322,0.969,0.189
31.774,-0.326,0.963,0.189
31.784,-0.326,0.961,0.188
31.794,-0.328,0.961,0.193
31.804,-0.330,0.959,0.193
31.814,-0.330,0.955,0.191
31.823,-0.330,0.953,0.191
31.833,-0.328,0.955,0.189
31.843,-0.326,0.957,0.186
31.853,-0.328,0.957,0.191
31.863,-0.322,0.957,0.191
31.873,-0.322,0.957,0.191
31.883,-0.316,0.961,0.191
31.893,-0.318,0.963,0.191
31.903,-0.318,0.957,0.191
31.913,-0.318,0.961,0.191
31.923,-0.320,0.963,0.191
31.933,-0.318,0.957,0.189
31.943,-0.322,0.957,0.189
31.952,-0.322,0.959,0.189
31.962,-0.322,0.961,0.191
31.972,-0.322,0.961,0.188
31.982,-0.322,0.959,0.186
31.992,-0.324,0.959,0.189
32.002,-0.322,0.959,0.186
32.012,-0.322,0.963,0.188
32.022,-0.324,0.961,0.188
32.032,-0.322,0.961,0.191
32.042,-0.324,0.963,0.188
32.052,-0.322,0.963,0.188
32.062,-0.320,0.961,0.188
32.072,-0.322,0.959,0.186
32.081,-0.324,0.961,0.186
32.091,-0.324,0.963,0.186
32.101,-0.326,0.959,0.186
32.111,-0.328,0.963,0.188
32.121,-0.328,0.961,0.188
32.131,-0.322,0.961,0.184
32.141,-0.324,0.961,0.188
32.151,-0.322,0.963,0.188
32.161,-0.322,0.961,0.184
32.171,-0.322,0.963,0.188
32.181,-0.320,0.963,0.188
32.191,-0.322,0.963,0.188
32.201,-0.322,0.963,0.189
32.211,-0.318,0.959,0.191
32.220,-0.318,0.959,0.191
32.230,-0.318,0.959,0.188
32.240,-0.316,0.957,0.189
32.250,-0.316,0.957,0.189
32.260,-0.320,0.961,0.189
32.270,-0.318,0.959,0.189
32.280,-0.322,0.961,0.191
32.290,-0.322,0.957,0.191
32.300,-0.322,0.959,0.191
32.310,-0.324,0.959,0.191
32.320,-0.326,0.957,0.188
32.330,-0.322,0.955,0.189
32.340,-0.324,0.955,0.193
32.349,-0.322,0.955,0.188
32.359,-0.320,0.959,0.191
32.369,-0.322,0.961,0.191
32.379,-0.322,0.963,0.189
32.389,-0.326,0.967,0.191
32.399,-0.324,0.965,0.189
32.409,-0.326,0.963,0.193
32.419,-0.326,0.963,0.191
32.429,-0.326,0.961,0.191
32.439,-0.324,0.959,0.193
32.449,-0.326,0.959,0.189
32.459,-0.326,0.957,0.188
32.469,-0.324,0.957,0.193
32.478,-0.322,0.957,0.191
32.488,-0.326,0.957,0.188
32.498,-0.322,0.957,0.189
32.508,-0.322,0.959,0.193
32.518,-0.322,0.957,0.191
32.528,-0.324,0.961,0.191
32.538,-0.322,0.959,0.189
32.548,-0.320,0.963,0.188
32.558,-0.322,0.963,0.188
32.568,-0.322,0.959,0.188
32.578,-0.324,0.963,0.188
32.588,-0.320,0.959,0.189
32.598,-0.318,0.963,0.189
32.608,-0.324,0.961,0.193
32.617,-0.322,0.957,0.188
32.627,-0.322,0.957,0.188
32.637,-0.324,0.959,0.191
32.647,-0.326,0.961,0.189
32.657,-0.324,0.961,0.189
32.667,-0.322,0.963,0.189
32.677,-0.324,0.957,0.188
32.687,-0.326,0.963,0.191
32.697,-0.326,0.963,0.189
32.707,-0.322,0.961,0.188
32.717,-0.322,0.957,0.189
32.727,-0.322,0.959,0.189
32.737,-0.318,0.955,0.188
32.746,-0.322,0.961,0.189
32.756,-0.322,0.959,0.189
32.766,-0.318,0.959,0.188
32.776,-0.320,0.963,0.189
32.786,-0.320,0.961,0.188
32.796,-0.314,0.959,0.186
32.806,-0.311,0.961,0.182
32.816,-0.316,0.963,0.188
32.826,-0.324,0.959,0.184
32.836,-0.322,0.963,0.188
32.846,-0.324,0.965,0.189
32.856,-0.320,0.961,0.186
32.866,-0.320,0.957,0.188
32.876,-0.322,0.959,0.186
32.885,-0.320,0.959,0.188
32.895,-0.324,0.961,0.186
32.905,-0.322,0.959,0.188
32.915,-0.320,0.957,0.184
32.925,-0.322,0.959,0.188
32.935,-0.328,0.963,0.186
32.945,-0.328,0.963,0.186
32.955,-0.328,0.963,0.188
32.965,-0.328,0.961,0.186
32.975,-0.322,0.961,0.186
32.985,-0.322,0.963,0.188
32.995,-0.320,0.961,0.188
33.005,-0.324,0.957,0.188
33.014,-0.324,0.959,0.186
33.024,-0.320,0.959,0.193
33.034,-0.320,0.955,0.189
33.044,-0.318,0.959,0.189
33.054,-0.316,0.959,0.189
33.064,-0.318,0.957,0.188
33.074,-0.318,0.959,0.186
33.084,-0.320,0.961,0.186
33.094,-0.322,0.967,0.189
33.104,-0.320,0.965,0.186
33.114,-0.322,0.963,0.188
33.124,-0.320,0.959,0.189
33.134,-0.322,0.959,0.186
33.143,-0.322,0.959,0.186
33.153,-0.322,0.955,0.188
33.163,-0.326,0.957,0.184
33.173,-0.328,0.957,0.188
33.183,-0.330,0.961,0.184
33.193,-0.328,0.957,0.186
33.203,-0.328,0.957,0.186
33.213,-0.328,0.959,0.184
33.223,-0.328,0.961,0.188
33.233,-0.326,0.961,0.186
33.243,-0.324,0.965,0.191
33.253,-0.324,0.961,0.188
33.263,-0.324,0.963,0.188
33.273,-0.322,0.959,0.186
33.282,-0.326,0.959,0.188
33.292,-0.322,0.959,0.186
33.302,-0.322,0.961,0.191
33.312,-0.320,0.965,0.186
33.322,-0.322,0.961,0.186
33.332,-0.322,0.961,0.188
33.342,-0.324,0.963,0.186
33.352,-0.324,0.961,0.186
33.362,-0.320,0.963,0.184
33.372,-0.320,0.961,0.182
33.382,-0.318,0.963,0.186
33.392,-0.318,0.963,0.188
33.402,-0.318,0.963,0.186
33.411,-0.324,0.963,0.186
33.421,-0.322,0.961,0.184
33.431,-0.322,0.959,0.186
33.441,-0.320,0.961,0.186
33.451,-0.322,0.963,0.188
33.461,-0.324,0.959,0.184
33.471,-0.324,0.961,0.188
33.481,-0.322,0.957,0.184
33.491,-0.322,0.963,0.188
33.501,-0.324,0.961,0.184
33.511,-0.324,0.955,0.186
33.521,-0.324,0.957,0.184
33.531,-0.320,0.963,0.186
33.541,-0.322,0.961,0.184
33.550,-0.320,0.961,0.188
33.560,-0.320,0.961,0.182
33.570,-0.320,0.961,0.184
33.580,-0.322,0.961,0.188
33.590,-0.322,0.961,0.188
33.600,-0.322,0.957,0.186
33.610,-0.322,0.959,0.188
33.620,-0.324,0.959,0.184
33.630,-0.326,0.961,0.186
33.640,-0.322,0.959,0.186
33.650,-0.324,0.959,0.188
33.660,-0.322,0.963,0.186
33.670,-0.324,0.957,0.184
33.679,-0.322,0.959,0.189
33.689,-0.328,0.961,0.186
33.699,-0.326,0.961,0.189
33.709,-0.324,0.963,0.188
33.719,-0.324,0.963,0.189
33.729,-0.324,0.959,0.188
33.739,-0.326,0.955,0.189
33.749,-0.324,0.955,0.188
33.759,-0.324,0.953,0.188
33.769,-0.324,0.957,0.188
33.779,-0.322,0.961,0.189
33.789,-0.324,0.965,0.186
33.799,-0.324,0.967,0.188
33.808,-0.326,0.967,0.186
33.818,-0.328,0.965,0.189
33.828,-0.326,0.961,0.188
33.838,-0.330,0.959,0.188
33.848,-0.322,0.957,0.189
33.858,-0.326,0.955,0.189
33.868,-0.324,0.955,0.188
33.878,-0.322,0.957,0.188
33.888,-0.322,0.957,0.189
33.898,-0.322,0.955,0.188
33.908,-0.322,0.959,0.186
33.918,-0.322,0.959,0.191
33.928,-0.320,0.959,0.186
33.938,-0.324,0.961,0.189
33.947,-0.324,0.957,0.189
33.957,-0.320,0.963,0.186
33.967,-0.322,0.963,0.186
33.977,-0.326,0.963,0.186
33.987,-0.326,0.957,0.188
33.997,-0.324,0.961,0.184
34.007,-0.326,0.959,0.184
34.017,-0.322,0.961,0.188
34.027,-0.328,0.959,0.186
34.037,-0.324,0.961,0.186
34.047,-0.322,0.961,0.186
34.057,-0.324,0.961,0.184
34.067,-0.324,0.959,0.186
34.076,-0.326,0.963,0.186
34.086,-0.322,0.961,0.184
34.096,-0.320,0.963,0.188
34.106,-0.320,0.959,0.188
34.116,-0.322,0.961,0.184
34.126,-0.320,0.961,0.186
34.136,-0.320,0.963,0.184
34.146,-0.322,0.961,0.182
34.156,-0.322,0.963,0.186
34.166,-0.322,0.963,0.182
34.176,-0.322,0.961,0.182
34.186,-0.320,0.961,0.184
34.196,-0.324,0.961,0.184
34.206,-0.328,0.961,0.182
34.215,-0.326,0.963,0.184
34.225,-0.328,0.959,0.180
34.235,-0.328,0.961,0.184
34.245,-0.324,0.959,0.180
34.255,-0.322,0.961,0.182
34.265,-0.320,0.957,0.184
34.275,-0.320,0.959,0.180
34.285,-0.324,0.961,0.188
34.295,-0.324,0.963,0.184
34.305,-0.324,0.961,0.186
34.315,-0.322,0.961,0.186
34.325,-0.322,0.961,0.184
34.335,-0.324,0.961,0.186
34.344,-0.324,0.957,0.182
34.354,-0.324,0.959,0.184
34.364,-0.324,0.959,0.184
34.374,-0.326,0.963,0.184
34.384,-0.324,0.957,0.182
34.394,-0.324,0.961,0.186
34.404,-0.326,0.957,0.188
34.414,-0.322,0.961,0.188
34.424,-0.328,0.963,0.186
34.434,-0.324,0.961,0.186
34.444,-0.324,0.957,0.189
34.454,-0.326,0.955,0.186
34.464,-0.324,0.957,0.188
34.473,-0.322,0.963,0.186
34.483,-0.322,0.967,0.184
34.493,-0.324,0.967,0.186
34.503,-0.324,0.963,0.184
34.513,-0.324,0.963,0.186
34.523,-0.324,0.957,0.186
34.533,-0.322,0.959,0.186
34.543,-0.324,0.955,0.188
34.553,-0.322,0.955,0.186
34.563,-0.322,0.959,0.186
34.573,-0.320,0.957,0.188
34.583,-0.324,0.959,0.188
34.593,-0.322,0.959,0.186
34.603,-0.322,0.959,0.188
34.612,-0.318,0.961,0.188
34.622,-0.318,0.963,0.188
34.632,-0.318,0.963,0.186
34.642,-0.320,0.959,0.184
34.652,-0.324,0.963,0.189
34.662,-0.324,0.961,0.186
34.672,-0.326,0.959,0.188
34.682,-0.326,0.959,0.184
34.692,-0.326,0.959,0.189
34.702,-0.322,0.961,0.186
34.712,-0.320,0.963,0.186
34.722,-0.322,0.961,0.184
34.732,-0.320,0.959,0.186
34.741,-0.326,0.961,0.180
34.751,-0.326,0.961,0.182
34.761,-0.320,0.959,0.182
34.771,-0.322,0.961,0.184
34.781,-0.322,0.961,0.186
34.791,-0.324,0.963,0.186
34.801,-0.322,0.963,0.186
34.811,-0.322,0.963,0.184
34.821,-0.324,0.961,0.184
34.831,-0.324,0.961,0.182
34.841,-0.322,0.959,0.182
34.851,-0.326,0.959,0.182
34.861,-0.322,0.957,0.184
34.871,-0.326,0.957,0.186
34.880,-0.322,0.959,0.184
34.890,-0.322,0.959,0.186
34.900,-0.320,0.963,0.186
34.910,-0.320,0.959,0.186
34.920,-0.318,0.961,0.182
34.930,-0.320,0.963,0.182
34.940,-0.320,0.963,0.186
34.950,-0.320,0.957,0.184
34.960,-0.322,0.959,0.184
34.970,-0.322,0.957,0.186
34.980,-0.320,0.957,0.184
34.990,-0.320,0.963,0.184
35.000,-0.324,0.961,0.184
35.009,-0.324,0.965,0.186
35.019,-0.322,0.961,0.184
35.029,-0.324,0.963,0.186
35.039,-0.326,0.965,0.186
35.049,-0.322,0.963,0.184
35.059,-0.322,0.963,0.184
35.069,-0.322,0.961,0.184
35.079,-0.322,0.963,0.186
35.089,-0.322,0.963,0.184
35.099,-0.322,0.961,0.184
35.109,-0.322,0.961,0.184
35.119,-0.320,0.963,0.188
35.129,-0.320,0.961,0.186
35.138,-0.320,0.957,0.184
35.148,-0.320,0.957,0.184
35.158,-0.318,0.957,0.184
35.168,-0.318,0.959,0.188
35.178,-0.322,0.965,0.184
35.188,-0.322,0.965,0.186
35.198,-0.322,0.963,0.186
35.208,-0.320,0.965,0.188
35.218,-0.324,0.967,0.186
35.228,-0.320,0.963,0.188
35.238,-0.322,0.961,0.186
35.248,-0.322,0.957,0.186
35.258,-0.324,0.955,0.184
35.268,-0.322,0.961,0.186
35.277,-0.320,0.957,0.182
35.287,-0.320,0.959,0.188
35.297,-0.320,0.961,0.182
35.307,-0.318,0.961,0.184
35.317,-0.320,0.963,0.188
35.327,-0.320,0.963,0.188
35.337,-0.322,0.961,0.188
35.347,-0.322,0.959,0.184
35.357,-0.320,0.959,0.184
35.367,-0.324,0.959,0.186
35.377,-0.324,0.961,0.184
35.387,-0.324,0.959,0.188
35.397,-0.320,0.963,0.184
35.406,-0.322,0.961,0.186
35.416,-0.322,0.963,0.188
35.426,-0.322,0.963,0.184
35.436,-0.320,0.961,0.184
35.446,-0.320,0.963,0.186
35.456,-0.320,0.959,0.184
35.466,-0.320,0.961,0.186
35.476,-0.322,0.961,0.184
35.486,-0.320,0.959,0.184
35.496,-0.320,0.963,0.184
35.506,-0.320,0.965,0.184
35.516,-0.318,0.965,0.182
35.526,-0.316,0.963,0.182
35.535,-0.318,0.965,0.178
35.545,-0.318,0.961,0.180
35.555,-0.320,0.963,0.182
35.565,-0.318,0.965,0.180
35.575,-0.320,0.961,0.184
35.585,-0.322,0.961,0.182
35.595,-0.318,0.965,0.182
35.605,-0.320,0.961,0.182
35.615,-0.318,0.963,0.184
35.625,-0.318,0.963,0.182
35.635,-0.318,0.963,0.186
35.645,-0.318,0.963,0.184
35.655,-0.322,0.963,0.182
35.665,-0.322,0.965,0.184
35.674,-0.320,0.963,0.182
35.684,-0.318,0.961,0.182
35.694,-0.320,0.963,0.184
35.704,-0.322,0.961,0.184
35.714,-0.320,0.961,0.182
35.724,-0.320,0.965,0.184
35.734,-0.320,0.963,0.186
35.744,-0.320,0.963,0.184
35.754,-0.320,0.963,0.186
35.764,-0.318,0.963,0.186
35.774,-0.314,0.961,0.184
35.784,-0.318,0.961,0.184
35.794,-0.314,0.959,0.184
35.803,-0.312,0.963,0.184
35.813,-0.316,0.961,0.186
35.823,-0.316,0.961,0.184
35.833,-0.316,0.961,0.186
35.843,-0.318,0.961,0.186
35.853,-0.320,0.957,0.184
35.863,-0.320,0.959,0.182
35.873,-0.318,0.959,0.182
35.883,-0.324,0.961,0.180
35.893,-0.320,0.963,0.182
35.903,-0.322,0.967,0.184
35.913,-0.324,0.967,0.186
35.923,-0.320,0.967,0.184
35.933,-0.318,0.965,0.186
35.942,-0.316,0.965,0.184
35.952,-0.314,0.965,0.182
35.962,-0.318,0.963,0.184
35.972,-0.316,0.959,0.184
35.982,-0.316,0.957,0.184
35.992,-0.316,0.955,0.180
36.002,-0.316,0.957,0.184
36.012,-0.314,0.957,0.182
36.022,-0.318,0.961,0.184
36.032,-0.318,0.963,0.184
36.042,-0.316,0.965,0.184
36.052,-0.318,0.963,0.184
36.062,-0.320,0.963,0.180
36.071,-0.316,0.967,0.182
36.081,-0.318,0.965,0.182
36.091,-0.316,0.965,0.180
36.101,-0.318,0.963,0.180
36.111,-0.316,0.961,0.182
36.121,-0.314,0.965,0.182
36.131,-0.318,0.965,0.186
36.141,-0.316,0.961,0.180
36.151,-0.318,0.965,0.184
36.161,-0.320,0.963,0.184
36.171,-0.316,0.961,0.182
36.181,-0.320,0.961,0.182
36.191,-0.320,0.961,0.182
36.200,-0.316,0.961,0.180
36.210,-0.318,0.963,0.184
36.220,-0.314,0.965,0.184
36.230,-0.316,0.963,0.182
36.240,-0.318,0.965,0.182
36.250,-0.314,0.963,0.184
36.260,-0.316,0.963,0.184
36.270,-0.320,0.959,0.184
36.280,-0.318,0.959,0.184
36.290,-0.318,0.961,0.182
36.300,-0.320,0.963,0.176
36.310,-0.322,0.961,0.184
36.320,-0.322,0.963,0.182
36.330,-0.320,0.961,0.184
36.339,-0.320,0.965,0.178
36.349,-0.322,0.965,0.178
36.359,-0.320,0.963,0.182
36.369,-0.320,0.963,0.184
36.379,-0.318,0.963,0.180
36.389,-0.318,0.963,0.180
36.399,-0.320,0.963,0.182
36.409,-0.318,0.961,0.186
36.419,-0.318,0.961,0.180
36.429,-0.318,0.961,0.182
36.439,-0.318,0.965,0.182
36.449,-0.318,0.959,0.184
36.459,-0.322,0.959,0.184
36.468,-0.324,0.961,0.184
36.478,-0.318,0.963,0.182
36.488,-0.322,0.961,0.184
36.498,-0.320,0.963,0.186
36.508,-0.320,0.959,0.180
36.518,-0.320,0.957,0.180
36.528,-0.320,0.965,0.184
36.538,-0.318,0.961,0.182
36.548,-0.318,0.963,0.184
36.558,-0.322,0.963,0.182
36.568,-0.320,0.963,0.182
36.578,-0.318,0.959,0.180
36.588,-0.318,0.959,0.180
36.598,-0.318,0.957,0.180
36.607,-0.316,0.959,0.178
36.617,-0.318,0.965,0.182
36.627,-0.318,0.969,0.178
36.637,-0.322,0.973,0.184
36.647,-0.320,0.969,0.182
36.657,-0.322,0.969,0.184
36.667,-0.320,0.963,0.182
36.677,-0.320,0.963,0.184
36.687,-0.320,0.961,0.186
36.697,-0.320,0.961,0.182
36.707,-0.320,0.959,0.182
36.717,-0.322,0.957,0.180
36.727,-0.320,0.959,0.182
36.736,-0.320,0.957,0.180
36.746,-0.320,0.957,0.182
36.756,-0.318,0.957,0.178
36.766,-0.318,0.961,0.184
36.776,-0.320,0.961,0.182
36.786,-0.320,0.963,0.186
36.796,-0.318,0.965,0.182
36.806,-0.318,0.965,0.180
36.816,-0.322,0.965,0.180
36.826,-0.324,0.963,0.180
36.836,-0.322,0.959,0.180
36.846,-0.320,0.959,0.184
36.856,-0.324,0.961,0.180
36.865,-0.320,0.961,0.180
36.875,-0.322,0.961,0.180
36.885,-0.322,0.961,0.184
36.895,-0.324,0.963,0.182
36.905,-0.322,0.963,0.182
36.915,-0.320,0.963,0.188
36.925,-0.320,0.961,0.184
36.935,-0.316,0.965,0.180
36.945,-0.318,0.965,0.184
36.955,-0.320,0.961,0.184
36.965,-0.318,0.959,0.180
36.975,-0.318,0.959,0.184
36.985,-0.322,0.959,0.180
36.995,-0.322,0.959,0.180
37.004,-0.322,0.961,0.182
37.014,-0.320,0.961,0.182
37.024,-0.322,0.961,0.184
37.034,-0.320,0.963,0.184
37.044,-0.322,0.961,0.184
37.054,-0.318,0.961,0.182
37.064,-0.320,0.963,0.182
37.074,-0.314,0.963,0.184
37.084,-0.316,0.963,0.182
37.094,-0.314,0.961,0.180
37.104,-0.320,0.961,0.184
37.114,-0.320,0.961,0.182
37.124,-0.322,0.959,0.180
37.133,-0.322,0.961,0.182
37.143,-0.322,0.961,0.178
37.153,-0.324,0.965,0.180
37.163,-0.322,0.961,0.184
37.173,-0.322,0.963,0.182
37.183,-0.324,0.963,0.182
37.193,-0.324,0.963,0.180
37.203,-0.324,0.963,0.182
37.213,-0.322,0.963,0.182
37.223,-0.318,0.963,0.182
37.233,-0.320,0.965,0.178
37.243,-0.316,0.963,0.180
37.253,-0.322,0.961,0.184
37.263,-0.318,0.963,0.186
37.272,-0.322,0.963,0.180
37.282,-0.320,0.959,0.186
37.292,-0.316,0.955,0.180
37.302,-0.318,0.959,0.182
37.312,-0.318,0.961,0.184
37.322,-0.316,0.965,0.178
37.332,-0.316,0.965,0.182
37.342,-0.318,0.969,0.178
37.352,-0.320,0.969,0.180
37.362,-0.316,0.965,0.182
37.372,-0.320,0.967,0.178
37.382,-0.320,0.961,0.180
37.392,-0.318,0.959,0.182
37.401,-0.320,0.957,0.184
37.411,-0.320,0.959,0.184
37.421,-0.320,0.961,0.182
37.431,-0.320,0.961,0.182
37.441,-0.318,0.959,0.180
37.451,-0.320,0.963,0.180
37.461,-0.320,0.963,0.186
37.471,-0.320,0.965,0.180
37.481,-0.318,0.961,0.180
37.491,-0.318,0.961,0.180
37.501,-0.318,0.965,0.180
37.511,-0.320,0.963,0.182
37.521,-0.322,0.963,0.178
37.530,-0.322,0.959,0.182
37.540,-0.318,0.961,0.182
37.550,-0.320,0.963,0.184
37.560,-0.316,0.967,0.182
37.570,-0.316,0.967,0.182
37.580,-0.318,0.965,0.180
37.590,-0.320,0.961,0.180
37.600,-0.318,0.961,0.182
37.610,-0.316,0.961,0.182
37.620,-0.316,0.963,0.180
37.630,-0.316,0.963,0.184
37.640,-0.314,0.965,0.184
37.650,-0.314,0.965,0.188
37.660,-0.316,0.965,0.182
37.669,-0.314,0.961,0.182
37.679,-0.316,0.963,0.182
37.689,-0.316,0.961,0.182
37.699,-0.314,0.961,0.184
37.709,-0.318,0.961,0.182
37.719,-0.316,0.959,0.182
37.729,-0.318,0.963,0.186
37.739,-0.318,0.965,0.184
37.749,-0.320,0.961,0.182
37.759,-0.320,0.963,0.184
37.769,-0.316,0.963,0.182
37.779,-0.318,0.967,0.184
37.789,-0.318,0.963,0.182
37.798,-0.318,0.965,0.182
37.808,-0.318,0.963,0.184
37.818,-0.318,0.963,0.182
37.828,-0.316,0.961,0.182
37.838,-0.322,0.959,0.184
37.848,-0.318,0.967,0.180
37.858,-0.318,0.965,0.182
37.868,-0.320,0.963,0.180
37.878,-0.320,0.961,0.182
37.888,-0.322,0.963,0.178
37.898,-0.320,0.963,0.182
37.908,-0.318,0.961,0.182
37.918,-0.320,0.959,0.178
37.927,-0.316,0.963,0.182
37.937,-0.318,0.965,0.180
37.947,-0.318,0.963,0.182
37.957,-0.314,0.969,0.184
37.967,-0.318,0.967,0.180
37.977,-0.318,0.963,0.184
37.987,-0.314,0.959,0.182
37.997,-0.316,0.959,0.182
38.007,-0.314,0.959,0.184
38.017,-0.312,0.959,0.182
38.027,-0.312,0.965,0.184
38.037,-0.318,0.963,0.182
38.047,-0.316,0.967,0.182
38.057,-0.318,0.967,0.182
38.066,-0.318,0.967,0.180
38.076,-0.316,0.963,0.186
38.086,-0.318,0.965,0.184
38.096,-0.318,0.963,0.182
38.106,-0.318,0.959,0.180
38.116,-0.322,0.959,0.180
38.126,-0.320,0.959,0.178
38.136,-0.320,0.963,0.180
38.146,-0.320,0.961,0.180
38.156,-0.316,0.961,0.180
38.166,-0.316,0.963,0.182
38.176,-0.314,0.963,0.184
38.186,-0.316,0.965,0.182
38.195,-0.316,0.965,0.184
38.205,-0.318,0.963,0.182
38.215,-0.316,0.963,0.182
38.225,-0.316,0.963,0.180
38.235,-0.314,0.961,0.180
38.245,-0.316,0.963,0.180
38.255,-0.318,0.963,0.186
38.265,-0.316,0.967,0.182
38.275,-0.318,0.965,0.176
38.285,-0.316,0.963,0.180
38.295,-0.320,0.965,0.180
38.305,-0.316,0.961,0.182
38.315,-0.316,0.963,0.184
38.325,-0.314,0.963,0.184
38.334,-0.312,0.965,0.178
38.344,-0.314,0.963,0.182
38.354,-0.314,0.967,0.182
38.364,-0.318,0.965,0.184
38.374,-0.316,0.965,0.178
38.384,-0.318,0.965,0.182
38.394,-0.318,0.965,0.182
38.404,-0.320,0.963,0.180
38.414,-0.318,0.967,0.180
38.424,-0.318,0.967,0.180
38.434,-0.320,0.965,0.182
38.444,-0.318,0.965,0.180
38.454,-0.318,0.965,0.182
38.463,-0.318,0.965,0.180
38.473,-0.318,0.963,0.178
38.483,-0.314,0.965,0.180
38.493,-0.318,0.965,0.184
38.503,-0.314,0.963,0.182
38.513,-0.314,0.963,0.178
38.523,-0.312,0.965,0.180
38.533,-0.312,0.963,0.180
38.543,-0.311,0.965,0.180
38.553,-0.312,0.959,0.180
38.563,-0.316,0.965,0.182
38.573,-0.314,0.963,0.180
38.583,-0.316,0.963,0.180
38.592,-0.318,0.965,0.182
38.602,-0.318,0.967,0.182
38.612,-0.318,0.965,0.180
38.622,-0.320,0.963,0.182
38.632,-0.318,0.959,0.182
38.642,-0.318,0.961,0.184
38.652,-0.316,0.961,0.184
38.662,-0.318,0.965,0.180
38.672,-0.316,0.961,0.182
38.682,-0.316,0.963,0.184
38.692,-0.314,0.963,0.184
38.702,-0.314,0.961,0.180
38.712,-0.312,0.959,0.182
38.722,-0.312,0.959,0.184
38.731,-0.314,0.963,0.178
38.741,-0.311,0.965,0.182
38.751,-0.312,0.971,0.182
38.761,-0.318,0.969,0.180
38.771,-0.316,0.967,0.180
38.781,-0.318,0.969,0.178
38.791,-0.316,0.971,0.184
38.801,-0.318,0.967,0.180
38.811,-0.316,0.965,0.180
38.821,-0.314,0.959,0.182
38.831,-0.316,0.959,0.178
38.841,-0.312,0.957,0.178
38.851,-0.316,0.961,0.182
38.860,-0.316,0.961,0.180
38.870,-0.316,0.963,0.182
38.880,-0.316,0.963,0.184
38.890,-0.314,0.961,0.182
38.900,-0.316,0.963,0.184
38.910,-0.316,0.963,0.180
38.920,-0.316,0.965,0.182
38.930,-0.318,0.969,0.182
38.940,-0.318,0.963,0.178
38.950,-0.320,0.965,0.180
38.960,-0.318,0.963,0.180
38.970,-0.316,0.965,0.180
38.980,-0.318,0.967,0.178
38.990,-0.320,0.967,0.182
38.999,-0.318,0.965,0.180
39.009,-0.316,0.965,0.176
39.019,-0.318,0.961,0.178
39.029,-0.316,0.967,0.182
39.039,-0.316,0.963,0.182
39.049,-0.316,0.967,0.182
39.059,-0.314,0.963,0.180
39.069,-0.312,0.957,0.182
39.079,-0.316,0.965,0.188
39.089,-0.314,0.963,0.178
39.099,-0.316,0.961,0.186
39.109,-0.320,0.963,0.178
39.119,-0.316,0.963,0.182
39.128,-0.316,0.963,0.186
39.138,-0.316,0.965,0.182
39.148,-0.318,0.967,0.182
39.158,-0.316,0.961,0.182
39.168,-0.316,0.961,0.182
39.178,-0.312,0.961,0.184
39.188,-0.314,0.965,0.184
39.198,-0.314,0.963,0.182
39.208,-0.314,0.963,0.182
39.218,-0.312,0.963,0.184
39.228,-0.312,0.965,0.182
39.238,-0.314,0.963,0.182
39.248,-0.314,0.963,0.182
39.257,-0.311,0.963,0.184
39.267,-0.312,0.965,0.186
39.277,-0.314,0.965,0.184
39.287,-0.316,0.963,0.184
39.297,-0.314,0.963,0.178
39.307,-0.312,0.963,0.182
39.317,-0.314,0.967,0.184
39.327,-0.314,0.963,0.186
39.337,-0.316,0.961,0.188
39.347,-0.314,0.965,0.180
39.357,-0.316,0.963,0.186
39.367,-0.316,0.967,0.184
39.377,-0.316,0.959,0.186
39.387,-0.314,0.959,0.191
39.396,-0.314,0.961,0.188
39.406,-0.316,0.957,0.189
39.416,-0.314,0.955,0.188
39.426,-0.314,0.961,0.188
39.436,-0.314,0.963,0.186
39.446,-0.312,0.965,0.184
39.456,-0.314,0.969,0.186
39.466,-0.318,0.971,0.189
39.476,-0.320,0.967,0.188
39.486,-0.318,0.961,0.188
39.496,-0.316,0.963,0.186
39.506,-0.316,0.959,0.193
39.516,-0.314,0.957,0.191
39.525,-0.314,0.955,0.186
39.535,-0.314,0.957,0.188
39.545,-0.320,0.959,0.189
39.555,-0.320,0.961,0.189
39.565,-0.318,0.961,0.193
39.575,-0.316,0.959,0.191
39.585,-0.316,0.963,0.191
39.595,-0.316,0.961,0.191
39.605,-0.316,0.963,0.189
39.615,-0.314,0.963,0.186
39.625,-0.316,0.965,0.189
39.635,-0.320,0.963,0.188
39.645,-0.322,0.961,0.191
39.655,-0.318,0.961,0.191
39.664,-0.322,0.961,0.193
39.674,-0.318,0.959,0.191
39.684,-0.320,0.959,0.186
39.694,-0.320,0.955,0.186
39.704,-0.320,0.959,0.186
39.714,-0.316,0.963,0.186
39.724,-0.312,0.961,0.188
39.734,-0.312,0.965,0.191
39.744,-0.312,0.967,0.189
39.754,-0.311,0.967,0.189
39.764,-0.314,0.971,0.189
39.774,-0.318,0.965,0.188
39.784,-0.318,0.961,0.184
39.793,-0.320,0.961,0.186
39.803,-0.318,0.965,0.186
39.813,-0.320,0.961,0.186
39.823,-0.316,0.965,0.186
39.833,-0.320,0.963,0.184
39.843,-0.324,0.963,0.184
39.853,-0.316,0.963,0.184
39.863,-0.316,0.963,0.186
39.873,-0.314,0.967,0.188
39.883,-0.314,0.967,0.186
39.893,-0.314,0.967,0.188
39.903,-0.312,0.961,0.188
39.913,-0.311,0.965,0.184
39.922,-0.311,0.965,0.184
39.932,-0.312,0.967,0.182
39.942,-0.314,0.973,0.184
39.952,-0.314,0.971,0.184
39.962,-0.316,0.969,0.186
39.972,-0.316,0.969,0.182
39.982,-0.314,0.969,0.186
39.992,-0.318,0.967,0.182
40.002,-0.316,0.961,0.178
40.012,-0.318,0.967,0.182
40.022,-0.320,0.965,0.178
40.032,-0.318,0.965,0.178
40.042,-0.320,0.969,0.184
40.052,-0.318,0.969,0.182
40.061,-0.320,0.973,0.186
40.071,-0.314,0.971,0.182
40.081,-0.318,0.969,0.182
40.091,-0.318,0.969,0.186
40.101,-0.311,0.971,0.186
40.111,-0.311,0.967,0.186
40.121,-0.311,0.967,0.188
40.131,-0.316,0.969,0.184
40.141,-0.318,0.971,0.189
40.151,-0.318,0.967,0.186
40.161,-0.312,0.965,0.191
40.171,-0.309,0.965,0.191
40.181,-0.303,0.959,0.191
40.190,-0.307,0.955,0.189
40.200,-0.303,0.959,0.180
40.210,-0.303,0.957,0.186
40.220,-0.307,0.955,0.182
40.230,-0.301,0.951,0.180
40.240,-0.305,0.953,0.180
40.250,-0.303,0.953,0.176
40.260,-0.303,0.965,0.176
40.270,-0.303,0.963,0.174
40.280,-0.305,0.969,0.172
40.290,-0.307,0.969,0.174
40.300,-0.307,0.967,0.170
40.310,-0.301,0.967,0.164
40.320,-0.320,0.965,0.168
40.329,-0.322,0.963,0.166
40.339,-0.320,0.967,0.170
40.349,-0.328,0.969,0.168
40.359,-0.322,0.957,0.164
40.369,-0.320,0.957,0.164
40.379,-0.322,0.963,0.170
40.389,-0.324,0.965,0.172
40.399,-0.328,0.957,0.172
40.409,-0.324,0.961,0.170
40.419,-0.326,0.959,0.170
40.429,-0.330,0.957,0.170
40.439,-0.322,0.957,0.170
40.449,-0.316,0.961,0.170
40.458,-0.324,0.957,0.170
40.468,-0.320,0.963,0.174
40.478,-0.322,0.961,0.172
40.488,-0.324,0.961,0.172
40.498,-0.318,0.965,0.174
40.508,-0.322,0.965,0.172
40.518,-0.326,0.965,0.170
40.528,-0.332,0.967,0.174
40.538,-0.332,0.959,0.168
40.548,-0.332,0.967,0.174
40.558,-0.330,0.965,0.174
40.568,-0.334,0.961,0.170
40.578,-0.334,0.965,0.168
40.587,-0.328,0.969,0.172
40.597,-0.328,0.963,0.174
40.607,-0.326,0.963,0.184
40.617,-0.320,0.963,0.182
40.627,-0.320,0.955,0.180
40.637,-0.324,0.953,0.182
40.647,-0.322,0.955,0.184
40.657,-0.326,0.957,0.188
40.667,-0.328,0.957,0.186
40.677,-0.332,0.955,0.186
40.687,-0.334,0.959,0.188
40.697,-0.332,0.957,0.191
40.707,-0.336,0.961,0.189
40.717,-0.336,0.961,0.191
40.726,-0.336,0.953,0.186
40.736,-0.332,0.951,0.180
40.746,-0.330,0.951,0.182
40.756,-0.336,0.949,0.184
40.766,-0.338,0.955,0.189
40.776,-0.334,0.957,0.189
40.786,-0.336,0.953,0.189
40.796,-0.326,0.959,0.188
40.806,-0.324,0.957,0.189
40.816,-0.326,0.963,0.191
40.826,-0.328,0.963,0.189
40.836,-0.330,0.965,0.195
40.846,-0.332,0.967,0.195
40.855,-0.328,0.957,0.197
40.865,-0.330,0.955,0.199
40.875,-0.326,0.957,0.195
40.885,-0.328,0.953,0.203
40.895,-0.322,0.955,0.203
40.905,-0.320,0.951,0.201
40.915,-0.318,0.955,0.205
40.925,-0.326,0.955,0.203
40.935,-0.336,0.957,0.205
40.945,-0.330,0.957,0.205
40.955,-0.332,0.955,0.205
40.965,-0.332,0.961,0.205
40.975,-0.332,0.953,0.207
40.984,-0.332,0.953,0.205
40.994,-0.330,0.949,0.207
41.004,-0.330,0.947,0.203
41.014,-0.330,0.955,0.205
41.024,-0.332,0.947,0.203
41.034,-0.338,0.941,0.199
41.044,-0.338,0.941,0.203
41.054,-0.340,0.939,0.201
41.064,-0.340,0.939,0.199
41.074,-0.338,0.945,0.199
41.084,-0.342,0.947,0.201
41.094,-0.344,0.945,0.199
41.104,-0.346,0.943,0.193
41.114,-0.344,0.941,0.191
41.123,-0.348,0.947,0.189
41.133,-0.344,0.955,0.193
41.143,-0.348,0.945,0.193
41.153,-0.355,0.943,0.186
41.163,-0.350,0.947,0.188
41.173,-0.355,0.951,0.186
41.183,-0.352,0.957,0.189
41.193,-0.350,0.955,0.188
41.203,-0.350,0.959,0.186
41.213,-0.350,0.959,0.184
41.223,-0.348,0.961,0.186
41.233,-0.346,0.965,0.184
41.243,-0.355,0.961,0.184
41.252,-0.355,0.961,0.182
41.262,-0.355,0.959,0.188
41.272,-0.357,0.957,0.189
41.282,-0.354,0.947,0.188
41.292,-0.350,0.947,0.188
41.302,-0.340,0.945,0.182
41.312,-0.334,0.945,0.182
41.322,-0.326,0.951,0.178
41.332,-0.326,0.951,0.180
41.342,-0.326,0.957,0.176
41.352,-0.322,0.959,0.174
41.362,-0.326,0.965,0.178
41.372,-0.332,0.967,0.176
41.382,-0.336,0.965,0.174
41.391,-0.334,0.969,0.170
41.401,-0.332,0.953,0.164
41.411,-0.322,0.955,0.166
41.421,-0.318,0.959,0.162
41.431,-0.326,0.957,0.160
41.441,-0.328,0.965,0.170
41.451,-0.330,0.971,0.170
41.461,-0.332,0.971,0.162
41.471,-0.330,0.975,0.166
41.481,-0.330,0.973,0.166
41.491,-0.330,0.973,0.174
41.501,-0.328,0.971,0.170
41.511,-0.338,0.969,0.168
41.520,-0.336,0.969,0.168
41.530,-0.334,0.967,0.168
41.540,-0.336,0.959,0.166
41.550,-0.332,0.961,0.168
41.560,-0.332,0.961,0.170
41.570,-0.334,0.959,0.170
41.580,-0.334,0.961,0.176
41.590,-0.332,0.963,0.174
41.600,-0.336,0.957,0.172
41.610,-0.332,0.959,0.172
41.620,-0.330,0.963,0.178
41.630,-0.324,0.967,0.176
41.640,-0.324,0.967,0.178
41.649,-0.322,0.961,0.178
41.659,-0.318,0.971,0.182
41.669,-0.318,0.965,0.180
41.679,-0.318,0.959,0.178
41.689,-0.318,0.957,0.178
41.699,-0.316,0.953,0.176
41.709,-0.320,0.955,0.178
41.719,-0.326,0.953,0.180
41.729,-0.320,0.957,0.178
41.739,-0.322,0.957,0.172
41.749,-0.324,0.957,0.180
41.759,-0.322,0.957,0.180
41.769,-0.320,0.963,0.180
41.779,-0.318,0.961,0.182
41.788,-0.318,0.963,0.184
41.798,-0.318,0.961,0.184
41.808,-0.320,0.965,0.178
41.818,-0.320,0.967,0.178
41.828,-0.318,0.961,0.178
41.838,-0.320,0.961,0.178
41.848,-0.326,0.957,0.174
41.858,-0.326,0.965,0.174
41.868,-0.328,0.967,0.176
41.878,-0.328,0.965,0.172
41.888,-0.330,0.963,0.174
41.898,-0.328,0.959,0.174
41.908,-0.332,0.963,0.176
41.917,-0.330,0.959,0.174
41.927,-0.328,0.967,0.174
41.937,-0.328,0.967,0.176
41.947,-0.336,0.965,0.178
41.957,-0.328,0.965,0.176
41.967,-0.330,0.961,0.174
41.977,-0.326,0.967,0.180
41.987,-0.326,0.963,0.176
41.997,-0.324,0.959,0.172
42.007,-0.326,0.957,0.174
42.017,-0.324,0.963,0.180
42.027,-0.324,0.963,0.176
42.037,-0.322,0.959,0.176
42.047,-0.324,0.959,0.174
42.056,-0.328,0.959,0.174
42.066,-0.330,0.963,0.174
42.076,-0.332,0.965,0.172
42.086,-0.328,0.967,0.170
42.096,-0.326,0.963,0.170
42.106,-0.326,0.965,0.170
42.116,-0.322,0.969,0.168
42.126,-0.324,0.971,0.170
42.136,-0.326,0.969,0.166
42.146,-0.326,0.969,0.172
42.156,-0.326,0.965,0.164
42.166,-0.332,0.961,0.166
42.176,-0.330,0.963,0.166
42.185,-0.330,0.963,0.172
42.195,-0.330,0.959,0.168
42.205,-0.334,0.963,0.166
42.215,-0.336,0.965,0.166
42.225,-0.332,0.965,0.168
42.235,-0.334,0.963,0.168
42.245,-0.336,0.961,0.164
42.255,-0.332,0.963,0.166
42.265,-0.336,0.959,0.164
42.275,-0.334,0.961,0.164
42.285,-0.336,0.959,0.168
42.295,-0.336,0.959,0.168
42.305,-0.328,0.963,0.172
42.314,-0.326,0.963,0.170
42.324,-0.326,0.959,0.166
42.334,-0.332,0.957,0.164
42.344,-0.330,0.957,0.168
42.354,-0.332,0.957,0.166
42.364,-0.332,0.957,0.166
42.374,-0.332,0.953,0.170
42.384,-0.336,0.957,0.166
42.394,-0.336,0.963,0.170
42.404,-0.332,0.957,0.166
42.414,-0.328,0.961,0.166
42.424,-0.326,0.959,0.168
42.434,-0.326,0.963,0.168
42.444,-0.324,0.959,0.166
42.453,-0.320,0.959,0.170
42.463,-0.324,0.969,0.172
42.473,-0.322,0.967,0.172
42.483,-0.322,0.965,0.174
42.493,-0.324,0.963,0.172
42.503,-0.324,0.963,0.168
42.513,-0.322,0.963,0.170
42.523,-0.328,0.965,0.170
42.533,-0.330,0.967,0.168
42.543,-0.332,0.969,0.170
42.553,-0.332,0.963,0.168
42.563,-0.326,0.959,0.164
42.573,-0.326,0.959,0.164
42.582,-0.326,0.957,0.166
42.592,-0.318,0.963,0.162
42.602,-0.320,0.963,0.162
42.612,-0.326,0.969,0.166
42.622,-0.340,0.977,0.174
42.632,-0.342,0.971,0.168
42.642,-0.334,0.965,0.168
42.652,-0.328,0.957,0.166
42.662,-0.320,0.957,0.166
42.672,-0.316,0.961,0.170
42.682,-0.312,0.965,0.172
42.692,-0.305,0.969,0.172
42.702,-0.299,0.971,0.172
42.712,-0.303,0.971,0.176
42.721,-0.305,0.973,0.178
42.731,-0.301,0.969,0.180
42.741,-0.307,0.965,0.176
42.751,-0.305,0.967,0.182
42.761,-0.301,0.967,0.178
42.771,-0.295,0.961,0.178
42.781,-0.291,0.963,0.178
42.791,-0.287,0.959,0.172
42.801,-0.291,0.959,0.166
42.811,-0.293,0.963,0.170
42.821,-0.289,0.969,0.168
42.831,-0.287,0.969,0.164
42.841,-0.291,0.971,0.164
42.850,-0.289,0.973,0.164
42.860,-0.299,0.971,0.162
42.870,-0.309,0.969,0.156
42.880,-0.309,0.969,0.156
42.890,-0.309,0.967,0.156
42.900,-0.311,0.967,0.154
42.910,-0.309,0.969,0.152
42.920,-0.312,0.967,0.154
42.930,-0.307,0.969,0.152
42.940,-0.305,0.969,0.154
42.950,-0.311,0.967,0.146
42.960,-0.316,0.967,0.148
42.970,-0.309,0.977,0.148
42.979,-0.303,0.979,0.146
42.989,-0.297,0.971,0.139
42.999,-0.311,0.967,0.143
43.009,-0.318,0.965,0.131
43.019,-0.320,0.963,0.131
43.029,-0.328,0.969,0.131
43.039,-0.326,0.971,0.127
43.049,-0.328,0.973,0.123
43.059,-0.338,0.973,0.123
43.069,-0.344,0.969,0.121
43.079,-0.350,0.967,0.125
43.089,-0.357,0.961,0.123
43.099,-0.357,0.961,0.125
43.109,-0.361,0.961,0.125
43.118,-0.369,0.951,0.125
43.128,-0.377,0.953,0.127
43.138,-0.381,0.955,0.131
43.148,-0.385,0.953,0.137
43.158,-0.383,0.949,0.139
43.168,-0.383,0.957,0.145
43.178,-0.389,0.957,0.143
43.188,-0.389,0.957,0.146
43.198,-0.396,0.953,0.150
43.208,-0.398,0.951,0.146
43.218,-0.404,0.945,0.152
43.228,-0.408,0.951,0.148
43.238,-0.408,0.949,0.156
43.247,-0.408,0.951,0.156
43.257,-0.398,0.959,0.166
43.267,-0.385,0.971,0.170
43.277,-0.379,0.965,0.168
43.287,-0.367,0.965,0.168
43.297,-0.352,0.967,0.172
43.307,-0.336,0.967,0.174
43.317,-0.326,0.967,0.174
43.327,-0.316,0.969,0.172
43.337,-0.305,0.965,0.168
43.347,-0.303,0.967,0.172
43.357,-0.297,0.963,0.164
43.367,-0.293,0.967,0.168
43.377,-0.277,0.969,0.178
43.386,-0.271,0.967,0.176
43.396,-0.268,0.967,0.172
43.406,-0.268,0.959,0.176
43.416,-0.277,0.961,0.176
43.426,-0.275,0.955,0.174
43.436,-0.281,0.953,0.174
43.446,-0.275,0.953,0.176
43.456,-0.271,0.957,0.178
43.466,-0.273,0.953,0.188
43.476,-0.273,0.957,0.182
43.486,-0.268,0.961,0.189
43.496,-0.275,0.967,0.193
43.506,-0.279,0.969,0.193
43.515,-0.275,0.967,0.195
43.525,-0.266,0.977,0.199
43.535,-0.262,0.984,0.201
43.545,-0.266,0.980,0.199
43.555,-0.266,0.980,0.199
43.565,-0.266,0.973,0.193
43.575,-0.270,0.971,0.193
43.585,-0.273,0.971,0.195
43.595,-0.273,0.967,0.193
43.605,-0.268,0.973,0.197
43.615,-0.260,0.980,0.205
43.625,-0.256,0.977,0.199
43.635,-0.252,0.975,0.201
43.644,-0.258,0.971,0.197
43.654,-0.266,0.969,0.201
43.664,-0.277,0.971,0.201
43.674,-0.283,0.973,0.199
43.684,-0.283,0.973,0.201
43.694,-0.285,0.975,0.203
43.704,-0.291,0.975,0.197
43.714,-0.301,0.973,0.195
43.724,-0.309,0.967,0.191
43.734,-0.328,0.955,0.184
43.744,-0.344,0.957,0.184
43.754,-0.332,0.979,0.197
43.764,-0.314,0.975,0.199
43.774,-0.299,0.982,0.209
43.783,-0.291,0.980,0.205
43.793,-0.293,0.963,0.193
43.803,-0.289,0.965,0.197
43.813,-0.285,0.965,0.197
43.823,-0.283,0.961,0.203
43.833,-0.277,0.967,0.209
43.843,-0.277,0.975,0.201
43.853,-0.285,0.945,0.189
43.863,-0.285,0.951,0.188
43.873,-0.287,0.965,0.197
43.883,-0.285,0.980,0.201
43.893,-0.281,0.990,0.209
43.903,-0.285,0.973,0.199
43.912,-0.293,0.959,0.189
43.922,-0.297,0.945,0.182
43.932,-0.309,0.943,0.180
43.942,-0.311,0.951,0.186
43.952,-0.301,0.969,0.193
43.962,-0.291,0.982,0.205
43.972,-0.273,0.994,0.207
43.982,-0.281,1.016,0.248
43.992,-0.203,1.021,0.232
44.002,-0.191,1.016,0.221
44.012,-0.182,1.004,0.207
44.022,-0.160,0.998,0.215
44.032,-0.146,0.996,0.215
44.041,-0.129,0.994,0.211
44.051,-0.119,1.002,0.223
44.061,-0.105,1.004,0.229
44.071,-0.102,0.998,0.227
44.081,-0.094,0.994,0.221
44.091,-0.090,0.982,0.217
44.101,-0.088,0.982,0.217
44.111,-0.094,0.988,0.223
44.121,-0.100,0.982,0.215
44.131,-0.107,0.975,0.219
44.141,-0.111,0.982,0.219
44.151,-0.121,0.992,0.225
44.161,-0.123,1.006,0.227
44.171,-0.127,1.006,0.229
44.180,-0.127,1.006,0.229
44.190,-0.119,1.008,0.229
44.200,-0.113,1.000,0.230
44.210,-0.113,0.998,0.225
44.220,-0.111,0.996,0.219
44.230,-0.115,0.984,0.215
44.240,-0.115,0.979,0.215
44.250,-0.117,0.979,0.215
44.260,-0.123,0.980,0.217
44.270,-0.131,0.986,0.219
44.280,-0.135,0.990,0.227
44.290,-0.135,0.996,0.227
44.300,-0.135,0.998,0.223
44.309,-0.135,1.000,0.225
44.319,-0.137,0.996,0.225
44.329,-0.139,0.992,0.223
44.339,-0.137,0.986,0.223
44.349,-0.135,0.988,0.219
44.359,-0.141,0.986,0.219
44.369,-0.145,0.986,0.225
44.379,-0.150,0.984,0.221
44.389,-0.152,0.990,0.225
44.399,-0.154,0.990,0.225
44.409,-0.156,0.988,0.221
44.419,-0.158,0.979,0.219
44.429,-0.160,0.980,0.221
44.439,-0.162,0.982,0.223
44.448,-0.170,0.984,0.221
44.458,-0.170,0.994,0.219
44.468,-0.172,0.996,0.221
44.478,-0.174,0.996,0.225
44.488,-0.172,0.996,0.225
44.498,-0.168,0.988,0.223
44.508,-0.170,0.986,0.230
44.518,-0.168,0.986,0.230
44.528,-0.170,0.986,0.229
44.538,-0.170,0.984,0.230
44.548,-0.172,0.984,0.229
44.558,-0.170,0.982,0.227
44.568,-0.170,0.982,0.227
44.577,-0.166,0.982,0.229
44.587,-0.168,0.984,0.229
44.597,-0.166,0.986,0.232
44.607,-0.166,0.984,0.230
44.617,-0.162,0.984,0.229
44.627,-0.164,0.986,0.229
44.637,-0.160,0.984,0.230
44.647,-0.162,0.984,0.229
44.657,-0.160,0.980,0.232
44.667,-0.160,0.982,0.229
44.677,-0.160,0.984,0.227
44.687,-0.160,0.984,0.225
44.697,-0.164,0.980,0.221
44.706,-0.166,0.980,0.221
44.716,-0.168,0.984,0.219
44.726,-0.166,0.979,0.221
44.736,-0.170,0.984,0.215
44.746,-0.170,0.988,0.219
44.756,-0.174,0.992,0.221
44.766,-0.174,0.994,0.217
44.776,-0.176,0.994,0.219
44.786,-0.176,0.996,0.221
44.796,-0.174,0.990,0.217
44.806,-0.176,0.994,0.215
44.816,-0.184,0.992,0.211
44.826,-0.178,0.990,0.215
44.836,-0.178,0.990,0.211
44.845,-0.178,0.988,0.215
44.855,-0.176,0.990,0.215
44.865,-0.178,0.992,0.209
44.875,-0.176,0.990,0.211
44.885,-0.172,0.988,0.211
44.895,-0.170,0.996,0.211
44.905,-0.168,0.994,0.213
44.915,-0.164,0.990,0.213
44.925,-0.164,0.992,0.213
44.935,-0.162,0.990,0.211
44.945,-0.162,0.992,0.213
44.955,-0.160,0.988,0.213
44.965,-0.156,0.986,0.211
44.974,-0.158,0.988,0.213
44.984,-0.156,0.984,0.213
44.994,-0.156,0.984,0.213
45.004,-0.156,0.982,0.219
45.014,-0.160,0.986,0.217
45.024,-0.164,0.990,0.219
45.034,-0.160,0.988,0.217
45.044,-0.162,0.982,0.219
45.054,-0.158,0.982,0.211
45.064,-0.162,0.986,0.217
45.074,-0.166,0.990,0.217
45.084,-0.168,0.990,0.215
45.094,-0.172,0.996,0.215
45.104,-0.172,0.992,0.207
45.113,-0.172,0.992,0.213
45.123,-0.180,0.992,0.213
45.133,-0.182,0.990,0.211
45.143,-0.184,0.992,0.213
45.153,-0.191,0.992,0.217
45.163,-0.188,0.990,0.217
45.173,-0.193,0.988,0.213
45.183,-0.189,0.984,0.211
45.193,-0.191,0.984,0.207
45.203,-0.191,0.984,0.209
45.213,-0.195,0.986,0.211
45.223,-0.193,0.986,0.211
45.233,-0.195,0.986,0.213
45.242,-0.193,0.986,0.211
45.252,-0.189,0.990,0.209
45.262,-0.189,0.986,0.211
45.272,-0.186,0.986,0.211
45.282,-0.184,0.988,0.211
45.292,-0.178,0.988,0.213
45.302,-0.178,0.994,0.215
45.312,-0.176,0.986,0.217
45.322,-0.174,0.982,0.217
45.332,-0.174,0.984,0.217
45.342,-0.172,0.988,0.213
45.352,-0.176,0.984,0.215
45.362,-0.176,0.986,0.211
45.371,-0.174,0.986,0.217
45.381,-0.176,0.988,0.213
45.391,-0.176,0.988,0.211
45.401,-0.178,0.988,0.211
45.411,-0.178,0.988,0.215
45.421,-0.180,0.988,0.211
45.431,-0.186,0.986,0.213
45.441,-0.184,0.986,0.211
45.451,-0.186,0.990,0.207
45.461,-0.186,0.990,0.209
45.471,-0.186,0.988,0.203
45.481,-0.184,0.988,0.207
45.491,-0.186,0.990,0.207
45.501,-0.180,0.988,0.209
45.510,-0.180,0.988,0.207
45.520,-0.182,0.990,0.205
45.530,-0.184,0.988,0.207
45.540,-0.180,0.990,0.209
45.550,-0.182,0.988,0.209
45.560,-0.178,0.990,0.207
45.570,-0.176,0.992,0.207
45.580,-0.176,0.992,0.207
45.590,-0.180,0.988,0.207
45.600,-0.176,0.992,0.211
45.610,-0.180,0.988,0.211
45.620,-0.180,0.986,0.209
45.630,-0.180,0.984,0.207
45.639,-0.176,0.986,0.213
45.649,-0.178,0.986,0.213
45.659,-0.184,0.984,0.213
45.669,-0.182,0.984,0.209
45.679,-0.180,0.980,0.211
45.689,-0.180,0.984,0.209
45.699,-0.186,0.986,0.211
45.709,-0.184,0.988,0.209
45.719,-0.184,0.990,0.209
45.729,-0.182,0.992,0.211
45.739,-0.182,0.992,0.207
45.749,-0.184,0.996,0.209
45.759,-0.184,0.992,0.211
45.769,-0.184,0.990,0.209
45.778,-0.186,0.988,0.211
45.788,-0.184,0.988,0.211
45.798,-0.180,0.990,0.211
45.808,-0.178,0.986,0.209
45.818,-0.180,0.986,0.209
45.828,-0.182,0.986,0.211
45.838,-0.184,0.986,0.207
45.848,-0.178,0.988,0.211
45.858,-0.170,0.984,0.207
45.868,-0.170,0.992,0.209
45.878,-0.168,0.988,0.207
45.888,-0.166,0.988,0.213
45.898,-0.162,0.992,0.213
45.907,-0.139,1.006,0.223
45.917,-0.109,1.012,0.227
45.927,-0.084,1.008,0.229
45.937,-0.074,0.996,0.225
45.947,-0.070,0.992,0.221
45.957,-0.068,0.992,0.221
45.967,-0.068,0.992,0.213
45.977,-0.066,0.996,0.207
45.987,-0.051,1.002,0.211
45.997,-0.043,1.002,0.207
46.007,-0.043,0.998,0.197
46.017,-0.059,0.988,0.180
46.027,-0.084,0.986,0.168
46.036,-0.100,0.979,0.154
46.046,-0.127,0.975,0.139
46.056,-0.150,0.979,0.133
46.066,-0.164,0.980,0.131
46.076,-0.184,0.988,0.137
46.086,-0.203,0.990,0.129
46.096,-0.229,0.980,0.125
46.106,-0.240,0.994,0.127
46.116,-0.258,0.996,0.125
46.126,-0.275,0.994,0.119
46.136,-0.295,0.994,0.123
46.146,-0.309,0.990,0.119
46.156,-0.324,0.988,0.121
46.166,-0.334,0.988,0.129
46.175,-0.332,0.986,0.125
46.185,-0.340,0.984,0.123
46.195,-0.346,0.975,0.121
46.205,-0.342,0.979,0.123
46.215,-0.340,0.977,0.127
46.225,-0.344,0.979,0.129
46.235,-0.340,0.980,0.131
46.245,-0.334,0.988,0.141
46.255,-0.322,0.992,0.148
46.265,-0.311,0.994,0.150
46.275,-0.303,0.992,0.150
46.285,-0.291,0.992,0.152
46.295,-0.281,0.980,0.150
46.304,-0.268,0.982,0.152
46.314,-0.250,0.982,0.156
46.324,-0.242,0.979,0.160
46.334,-0.242,0.977,0.156
46.344,-0.240,0.980,0.156
46.354,-0.242,0.982,0.158
46.364,-0.244,0.980,0.156
46.374,-0.240,0.977,0.156
46.384,-0.242,0.977,0.158
46.394,-0.242,0.977,0.158
46.404,-0.238,0.979,0.162
46.414,-0.234,0.986,0.166
46.424,-0.230,0.992,0.168
46.434,-0.229,0.992,0.164
46.443,-0.234,0.992,0.160
46.453,-0.234,0.984,0.156
46.463,-0.240,0.984,0.156
46.473,-0.242,0.986,0.156
46.483,-0.242,0.986,0.158
46.493,-0.236,0.982,0.162
46.503,-0.236,0.984,0.158
46.513,-0.240,0.982,0.154
46.523,-0.242,0.982,0.154
46.533,-0.244,0.982,0.152
46.543,-0.252,0.979,0.152
46.553,-0.256,0.980,0.152
46.563,-0.260,0.975,0.150
46.572,-0.262,0.977,0.154
46.582,-0.262,0.977,0.154
46.592,-0.260,0.977,0.158
46.602,-0.262,0.980,0.156
46.612,-0.262,0.980,0.158
46.622,-0.256,0.979,0.162
46.632,-0.256,0.977,0.162
46.642,-0.256,0.980,0.166
46.652,-0.252,0.982,0.164
46.662,-0.250,0.975,0.162
46.672,-0.248,0.975,0.164
46.682,-0.250,0.977,0.166
46.692,-0.252,0.977,0.166
46.701,-0.254,0.979,0.164
46.711,-0.254,0.982,0.162
46.721,-0.252,0.980,0.162
46.731,-0.258,0.982,0.160
46.741,-0.256,0.984,0.158
46.751,-0.252,0.986,0.156
46.761,-0.248,0.986,0.160
46.771,-0.248,0.980,0.156
46.781,-0.254,0.982,0.156
46.791,-0.250,0.982,0.154
46.801,-0.252,0.982,0.156
46.811,-0.254,0.979,0.154
46.821,-0.254,0.982,0.154
46.831,-0.252,0.982,0.152
46.840,-0.258,0.979,0.154
46.850,-0.260,0.982,0.154
46.860,-0.258,0.980,0.152
46.870,-0.256,0.984,0.152
46.880,-0.250,0.980,0.154
46.890,-0.252,0.982,0.156
46.900,-0.248,0.982,0.152
46.910,-0.246,0.982,0.156
46.920,-0.246,0.980,0.154
46.930,-0.242,0.979,0.154
46.940,-0.244,0.980,0.156
46.950,-0.246,0.980,0.156
46.960,-0.244,0.980,0.154
46.969,-0.246,0.980,0.154
46.979,-0.250,0.982,0.148
46.989,-0.258,0.979,0.152
46.999,-0.254,0.980,0.154
47.009,-0.260,0.982,0.152
47.019,-0.260,0.984,0.154
47.029,-0.264,0.984,0.152
47.039,-0.262,0.984,0.152
47.049,-0.264,0.984,0.154
47.059,-0.266,0.982,0.154
47.069,-0.264,0.984,0.150
47.079,-0.262,0.980,0.150
47.089,-0.264,0.977,0.152
47.098,-0.264,0.979,0.152
47.108,-0.266,0.982,0.152
47.118,-0.268,0.980,0.148
47.128,-0.271,0.982,0.150
47.138,-0.271,0.984,0.148
47.148,-0.271,0.982,0.148
47.158,-0.271,0.982,0.152
47.168,-0.266,0.982,0.150
47.178,-0.266,0.979,0.150
47.188,-0.262,0.979,0.154
47.198,-0.264,0.971,0.152
47.208,-0.264,0.979,0.154
47.218,-0.262,0.979,0.156
47.228,-0.254,0.979,0.150
47.237,-0.264,0.977,0.158
47.247,-0.264,0.979,0.154
47.257,-0.250,0.975,0.152
47.267,-0.254,0.982,0.156
47.277,-0.279,0.979,0.158
47.287,-0.270,0.977,0.156
47.297,-0.264,0.979,0.160
47.307,-0.268,0.979,0.156
47.317,-0.264,0.977,0.156
47.327,-0.266,0.977,0.158
47.337,-0.266,0.977,0.160
47.347,-0.258,0.979,0.160
47.357,-0.262,0.979,0.160
47.366,-0.264,0.982,0.160
47.376,-0.260,0.979,0.158
47.386,-0.254,0.980,0.160
47.396,-0.254,0.977,0.158
47.406,-0.260,0.975,0.154
47.416,-0.258,0.977,0.158
47.426,-0.258,0.979,0.154
47.436,-0.266,0.979,0.154
47.446,-0.264,0.982,0.150
47.456,-0.275,0.980,0.154
47.466,-0.275,0.979,0.152
47.476,-0.279,0.979,0.148
47.486,-0.279,0.982,0.148
47.496,-0.273,0.980,0.150
47.505,-0.273,0.980,0.150
47.515,-0.271,0.982,0.150
47.525,-0.273,0.982,0.152
47.535,-0.268,0.984,0.150
47.545,-0.260,0.980,0.150
47.555,-0.264,0.980,0.150
47.565,-0.260,0.979,0.152
47.575,-0.260,0.979,0.146
47.585,-0.264,0.977,0.150
47.595,-0.262,0.977,0.148
47.605,-0.260,0.980,0.148
47.615,-0.262,0.980,0.148
47.625,-0.266,0.979,0.150
47.634,-0.262,0.982,0.150
47.644,-0.270,0.979,0.146
47.654,-0.271,0.982,0.146
47.664,-0.271,0.980,0.143
47.674,-0.275,0.982,0.146
47.684,-0.279,0.982,0.143
47.694,-0.275,0.984,0.148
47.704,-0.279,0.982,0.141
47.714,-0.277,0.979,0.145
47.724,-0.277,0.980,0.145
47.734,-0.277,0.979,0.143
47.744,-0.275,0.979,0.146
47.754,-0.273,0.979,0.146
47.763,-0.273,0.980,0.148
47.773,-0.271,0.977,0.148
47.783,-0.273,0.977,0.145
47.793,-0.273,0.975,0.148
47.803,-0.268,0.977,0.145
47.813,-0.268,0.977,0.148
47.823,-0.264,0.979,0.145
47.833,-0.268,0.980,0.146
47.843,-0.271,0.984,0.145
47.853,-0.271,0.982,0.146
47.863,-0.270,0.980,0.146
47.873,-0.273,0.980,0.141
47.883,-0.268,0.980,0.143
47.893,-0.271,0.979,0.145
47.902,-0.271,0.979,0.146
47.912,-0.266,0.979,0.145
47.922,-0.270,0.977,0.145
47.932,-0.268,0.977,0.146
47.942,-0.268,0.975,0.148
47.952,-0.268,0.979,0.148
47.962,-0.268,0.975,0.148
47.972,-0.270,0.975,0.148
47.982,-0.268,0.979,0.148
47.992,-0.270,0.979,0.150
48.002,-0.270,0.979,0.150
48.012,-0.270,0.982,0.150
48.022,-0.270,0.979,0.148
48.031,-0.270,0.977,0.148
48.041,-0.271,0.975,0.148
48.051,-0.271,0.979,0.152
48.061,-0.273,0.979,0.152
48.071,-0.273,0.979,0.152
48.081,-0.270,0.977,0.154
48.091,-0.273,0.975,0.148
48.101,-0.273,0.977,0.150
48.111,-0.275,0.973,0.150
48.121,-0.277,0.977,0.148
48.131,-0.281,0.973,0.148
48.141,-0.281,0.973,0.150
48.151,-0.281,0.971,0.150
48.161,-0.279,0.977,0.150
48.170,-0.283,0.979,0.150
48.180,-0.289,0.979,0.146
48.190,-0.293,0.975,0.146
48.200,-0.295,0.977,0.145
48.210,-0.293,0.977,0.145
48.220,-0.291,0.979,0.146
48.230,-0.291,0.975,0.143
48.240,-0.287,0.975,0.143
48.250,-0.281,0.977,0.146
48.260,-0.279,0.975,0.145
48.270,-0.279,0.977,0.148
48.280,-0.277,0.977,0.148
48.290,-0.273,0.982,0.146
48.299,-0.271,0.977,0.148
48.309,-0.271,0.979,0.148
48.319,-0.266,0.979,0.148
48.329,-0.268,0.979,0.145
48.339,-0.268,0.979,0.145
48.349,-0.275,0.977,0.145
48.359,-0.283,0.979,0.141
48.369,-0.287,0.982,0.143
48.379,-0.287,0.980,0.141
48.389,-0.283,0.980,0.143
48.399,-0.285,0.980,0.145
48.409,-0.289,0.977,0.145
48.419,-0.289,0.969,0.141
48.428,-0.283,0.969,0.146
48.438,-0.281,0.973,0.148
48.448,-0.283,0.977,0.150
48.458,-0.285,0.973,0.150
48.468,-0.281,0.975,0.152
48.478,-0.285,0.973,0.150
48.488,-0.287,0.965,0.152
48.498,-0.287,0.965,0.150
48.508,-0.285,0.961,0.152
48.518,-0.291,0.967,0.148
48.528,-0.291,0.977,0.150
48.538,-0.293,0.977,0.146
48.548,-0.297,0.977,0.148
48.558,-0.303,0.977,0.145
48.567,-0.301,0.979,0.150
48.577,-0.303,0.973,0.148
48.587,-0.305,0.971,0.148
48.597,-0.305,0.971,0.148
48.607,-0.305,0.971,0.146
48.617,-0.307,0.969,0.145
48.627,-0.309,0.969,0.148
48.637,-0.311,0.963,0.145
48.647,-0.312,0.959,0.145
48.657,-0.314,0.959,0.145
48.667,-0.316,0.965,0.148
48.677,-0.318,0.967,0.145
48.687,-0.322,0.969,0.145
48.696,-0.324,0.967,0.143
48.706,-0.320,0.967,0.141
48.716,-0.320,0.969,0.141
48.726,-0.320,0.969,0.141
48.736,-0.316,0.971,0.143
48.746,-0.316,0.969,0.143
48.756,-0.316,0.971,0.145
48.766,-0.314,0.971,0.145
48.776,-0.316,0.971,0.143
48.786,-0.316,0.969,0.141
48.796,-0.322,0.971,0.141
48.806,-0.324,0.969,0.146
48.816,-0.322,0.969,0.143
48.826,-0.324,0.967,0.141
48.835,-0.322,0.971,0.141
48.845,-0.322,0.965,0.141
48.855,-0.320,0.967,0.139
48.865,-0.322,0.965,0.141
48.875,-0.320,0.967,0.139
48.885,-0.320,0.965,0.141
48.895,-0.322,0.963,0.141
48.905,-0.320,0.967,0.139
48.915,-0.322,0.969,0.137
48.925,-0.318,0.969,0.135
48.935,-0.322,0.965,0.135
48.945,-0.320,0.969,0.141
48.955,-0.316,0.971,0.141
48.964,-0.318,0.971,0.139
48.974,-0.316,0.967,0.137
48.984,-0.320,0.967,0.141
48.994,-0.320,0.967,0.137
49.004,-0.318,0.965,0.133
49.014,-0.322,0.967,0.137
49.024,-0.320,0.971,0.135
49.034,-0.318,0.967,0.141
49.044,-0.320,0.967,0.141
49.054,-0.322,0.965,0.137
49.064,-0.318,0.965,0.139
49.074,-0.320,0.967,0.135
49.084,-0.322,0.965,0.141
49.093,-0.322,0.963,0.139
49.103,-0.322,0.967,0.139
49.113,-0.320,0.963,0.143
49.123,-0.324,0.965,0.143
49.133,-0.322,0.965,0.143
49.143,-0.324,0.967,0.145
49.153,-0.322,0.967,0.143
49.163,-0.324,0.965,0.143
49.173,-0.324,0.961,0.143
49.183,-0.324,0.963,0.143
49.193,-0.326,0.965,0.145
49.203,-0.326,0.967,0.146
49.213,-0.328,0.969,0.143
49.223,-0.330,0.973,0.143
49.232,-0.328,0.973,0.145
49.242,-0.326,0.969,0.143
49.252,-0.322,0.969,0.143
49.262,-0.324,0.963,0.145
49.272,-0.322,0.967,0.146
49.282,-0.326,0.961,0.146
49.292,-0.324,0.963,0.143
49.302,-0.324,0.963,0.145
49.312,-0.324,0.963,0.146
49.322,-0.328,0.959,0.143
49.332,-0.324,0.963,0.146
49.342,-0.322,0.963,0.145
49.352,-0.326,0.965,0.148
49.361,-0.326,0.967,0.145
49.371,-0.324,0.969,0.145
49.381,-0.328,0.967,0.145
49.391,-0.328,0.965,0.143
49.401,-0.326,0.961,0.143
49.411,-0.324,0.963,0.145
49.421,-0.324,0.965,0.146
49.431,-0.322,0.967,0.150
49.441,-0.318,0.967,0.146
49.451,-0.318,0.965,0.145
49.461,-0.324,0.967,0.145
49.471,-0.324,0.967,0.145
49.481,-0.324,0.967,0.146
49.491,-0.322,0.969,0.143
49.500,-0.322,0.967,0.143
49.510,-0.324,0.967,0.146
49.520,-0.320,0.967,0.143
49.530,-0.322,0.969,0.146
49.540,-0.320,0.967,0.145
49.550,-0.322,0.963,0.145
49.560,-0.322,0.965,0.145
49.570,-0.324,0.963,0.145
49.580,-0.328,0.963,0.146
49.590,-0.328,0.963,0.145
49.600,-0.328,0.963,0.145
49.610,-0.326,0.963,0.145
49.620,-0.328,0.965,0.143
49.629,-0.326,0.963,0.145
49.639,-0.328,0.963,0.146
49.649,-0.326,0.963,0.143
49.659,-0.322,0.967,0.146
49.669,-0.322,0.965,0.145
49.679,-0.322,0.965,0.145
49.689,-0.322,0.965,0.145
49.699,-0.322,0.967,0.146
49.709,-0.326,0.963,0.145
49.719,-0.326,0.965,0.139
49.729,-0.322,0.965,0.145
49.739,-0.326,0.963,0.139
49.749,-0.324,0.967,0.143
49.758,-0.328,0.969,0.145
49.768,-0.328,0.969,0.143
49.778,-0.328,0.963,0.141
49.788,-0.330,0.967,0.143
49.798,-0.330,0.967,0.146
49.808,-0.328,0.959,0.145
49.818,-0.328,0.959,0.145
49.828,-0.326,0.961,0.141
49.838,-0.328,0.967,0.145
49.848,-0.326,0.967,0.143
49.858,-0.324,0.967,0.143
49.868,-0.328,0.973,0.141
49.878,-0.326,0.971,0.139
49.888,-0.324,0.969,0.143
49.897,-0.326,0.965,0.143
49.907,-0.324,0.963,0.143
49.917,-0.326,0.963,0.141
49.927,-0.322,0.961,0.143
49.937,-0.324,0.961,0.141
49.947,-0.322,0.963,0.145
49.957,-0.328,0.963,0.143
49.967,-0.326,0.963,0.141
49.977,-0.326,0.963,0.143
49.987,-0.326,0.965,0.143
49.997,-0.328,0.965,0.141
50.007,-0.328,0.965,0.139
50.017,-0.328,0.963,0.143
50.026,-0.328,0.965,0.141
50.036,-0.330,0.967,0.141
50.046,-0.324,0.965,0.141
50.056,-0.326,0.963,0.143
50.066,-0.326,0.965,0.143
50.076,-0.326,0.967,0.145
50.086,-0.328,0.965,0.146
50.096,-0.326,0.967,0.145
50.106,-0.326,0.963,0.145
50.116,-0.326,0.963,0.146
50.126,-0.328,0.963,0.143
50.136,-0.326,0.965,0.145
50.146,-0.328,0.965,0.145
50.155,-0.326,0.965,0.145
50.165,-0.328,0.967,0.146
50.175,-0.328,0.965,0.145
50.185,-0.328,0.965,0.146
50.195,-0.330,0.965,0.148
50.205,-0.330,0.963,0.143
50.215,-0.330,0.961,0.146
50.225,-0.330,0.963,0.145
50.235,-0.328,0.961,0.145
50.245,-0.328,0.963,0.146
50.255,-0.334,0.963,0.145
50.265,-0.328,0.961,0.145
50.275,-0.328,0.963,0.146
50.285,-0.326,0.967,0.145
50.294,-0.326,0.965,0.145
50.304,-0.326,0.965,0.145
50.314,-0.326,0.967,0.148
50.324,-0.326,0.965,0.143
50.334,-0.326,0.963,0.143
50.344,-0.326,0.963,0.143
50.354,-0.330,0.965,0.145
50.364,-0.328,0.965,0.145
50.374,-0.328,0.963,0.143
50.384,-0.328,0.963,0.141
50.394,-0.328,0.965,0.145
50.404,-0.330,0.963,0.143
50.414,-0.330,0.967,0.146
50.423,-0.328,0.965,0.145
50.433,-0.328,0.963,0.143
50.443,-0.328,0.961,0.143
50.453,-0.326,0.959,0.143
50.463,-0.330,0.963,0.145
50.473,-0.332,0.961,0.145
50.483,-0.332,0.963,0.145
50.493,-0.330,0.969,0.145
50.503,-0.334,0.969,0.143
50.513,-0.336,0.971,0.145
50.523,-0.332,0.967,0.143
50.533,-0.334,0.967,0.145
50.543,-0.330,0.967,0.146
50.553,-0.332,0.967,0.145
50.562,-0.332,0.961,0.146
50.572,-0.330,0.963,0.146
50.582,-0.330,0.959,0.143
50.592,-0.330,0.959,0.141
50.602,-0.326,0.963,0.143
50.612,-0.328,0.961,0.146
50.622,-0.328,0.961,0.146
50.632,-0.326,0.959,0.148
50.642,-0.328,0.963,0.145
50.652,-0.328,0.961,0.150
50.662,-0.330,0.965,0.146
50.672,-0.332,0.963,0.145
50.682,-0.334,0.959,0.146
50.691,-0.334,0.961,0.148
50.701,-0.338,0.961,0.148
50.711,-0.338,0.963,0.145
50.721,-0.338,0.963,0.150
50.731,-0.336,0.963,0.146
50.741,-0.336,0.965,0.148
50.751,-0.334,0.963,0.146
50.761,-0.334,0.963,0.148
50.771,-0.330,0.961,0.146
50.781,-0.330,0.965,0.148
50.791,-0.330,0.963,0.148
50.801,-0.328,0.963,0.146
50.811,-0.324,0.963,0.145
50.820,-0.326,0.965,0.148
50.830,-0.328,0.963,0.146
