df_hash,22ZHK4.YPQ43H
device,HZ2X61
project_hash,29R7
project_name,istanbul_aydin_university
person_hash,29R7.8438
person_label,V24
date_time_start,2025-08-05_11-36-03.957000_+03
date_time_start_unix,1754375763.957
date_time_end,2025-08-05_11-44-20.112000_+03
length_difference_noticed,no

time,acc_x,acc_y,acc_z
4.322,0.094,-0.984,-0.180
4.332,0.090,-0.986,-0.186
4.342,0.084,-0.984,-0.186
4.352,0.074,-0.992,-0.184
4.362,0.074,-0.998,-0.191
4.372,0.066,-0.979,-0.186
4.382,0.070,-0.977,-0.170
4.392,0.072,-0.975,-0.184
4.402,0.072,-0.965,-0.186
4.412,0.068,-0.967,-0.180
4.422,0.066,-0.967,-0.186
4.431,0.070,-0.963,-0.186
4.441,0.066,-0.971,-0.188
4.451,0.057,-0.975,-0.195
4.461,0.049,-0.979,-0.201
4.471,0.041,-0.979,-0.199
4.481,0.041,-0.980,-0.197
4.491,0.039,-0.980,-0.203
4.501,0.039,-0.982,-0.209
4.511,0.035,-0.986,-0.201
4.521,0.035,-0.982,-0.201
4.531,0.027,-0.984,-0.199
4.541,0.016,-0.986,-0.201
4.551,0.014,-0.982,-0.199
4.560,0.004,-0.984,-0.201
4.570,0.004,-0.982,-0.207
4.580,0.000,-0.984,-0.209
4.590,-0.002,-0.982,-0.205
4.600,-0.006,-0.977,-0.211
4.610,-0.006,-0.977,-0.211
4.620,-0.012,-0.980,-0.201
4.630,-0.010,-0.975,-0.197
4.640,-0.010,-0.973,-0.203
4.650,-0.012,-0.977,-0.205
4.660,-0.010,-0.975,-0.205
4.670,-0.010,-0.977,-0.209
4.680,-0.016,-0.977,-0.207
4.689,-0.021,-0.975,-0.213
4.699,-0.025,-0.979,-0.205
4.709,-0.029,-0.973,-0.211
4.719,-0.023,-0.980,-0.211
4.729,-0.018,-0.980,-0.215
4.739,-0.016,-0.971,-0.207
4.749,-0.016,-0.975,-0.209
4.759,-0.023,-0.971,-0.207
4.769,-0.031,-0.975,-0.203
4.779,-0.023,-0.969,-0.201
4.789,-0.018,-0.965,-0.199
4.799,-0.014,-0.975,-0.201
4.809,-0.018,-0.980,-0.207
4.819,-0.027,-0.982,-0.213
4.828,-0.029,-0.994,-0.209
4.838,-0.029,-0.984,-0.215
4.848,-0.025,-0.980,-0.213
4.858,-0.025,-0.979,-0.203
4.868,-0.031,-0.984,-0.203
4.878,-0.031,-0.984,-0.211
4.888,-0.029,-0.988,-0.205
4.898,-0.020,-0.986,-0.199
4.908,-0.025,-0.977,-0.211
4.918,-0.045,-0.984,-0.199
4.928,-0.045,-0.998,-0.199
4.938,-0.033,-0.992,-0.213
4.948,-0.033,-0.986,-0.213
4.957,-0.045,-0.990,-0.207
4.967,-0.049,-0.992,-0.201
4.977,-0.035,-0.992,-0.209
4.987,-0.031,-0.990,-0.211
4.997,-0.039,-0.992,-0.207
5.007,-0.041,-0.988,-0.197
5.017,-0.039,-0.992,-0.203
5.027,-0.043,-0.990,-0.207
5.037,-0.039,-0.986,-0.201
5.047,-0.047,-0.992,-0.205
5.057,-0.039,-0.990,-0.205
5.067,-0.039,-0.984,-0.211
5.077,-0.043,-0.988,-0.203
5.087,-0.049,-0.992,-0.205
5.096,-0.047,-0.986,-0.201
5.106,-0.045,-0.982,-0.201
5.116,-0.053,-0.980,-0.199
5.126,-0.059,-0.984,-0.205
5.136,-0.062,-0.990,-0.211
5.146,-0.064,-0.982,-0.211
5.156,-0.066,-0.980,-0.205
5.166,-0.068,-0.982,-0.203
5.176,-0.061,-0.979,-0.205
5.186,-0.061,-0.975,-0.207
5.196,-0.059,-0.977,-0.201
5.206,-0.059,-0.982,-0.207
5.216,-0.055,-0.988,-0.215
5.225,-0.057,-0.986,-0.217
5.235,-0.059,-0.984,-0.207
5.245,-0.062,-0.980,-0.203
5.255,-0.066,-0.977,-0.203
5.265,-0.066,-0.979,-0.205
5.275,-0.064,-0.977,-0.201
5.285,-0.062,-0.982,-0.203
5.295,-0.062,-0.988,-0.209
5.305,-0.061,-0.988,-0.213
5.315,-0.064,-0.986,-0.207
5.325,-0.070,-0.990,-0.203
5.335,-0.072,-0.992,-0.207
5.345,-0.072,-0.992,-0.211
5.354,-0.068,-0.988,-0.213
5.364,-0.066,-0.982,-0.207
5.374,-0.072,-0.982,-0.211
5.384,-0.068,-0.982,-0.213
5.394,-0.072,-0.979,-0.207
5.404,-0.070,-0.982,-0.207
5.414,-0.064,-0.982,-0.215
5.424,-0.068,-0.982,-0.213
5.434,-0.072,-0.986,-0.213
5.444,-0.072,-0.986,-0.213
5.454,-0.074,-0.984,-0.219
5.464,-0.080,-0.979,-0.209
5.474,-0.086,-0.973,-0.201
5.484,-0.086,-0.977,-0.203
5.493,-0.088,-0.975,-0.207
5.503,-0.090,-0.979,-0.203
5.513,-0.086,-0.979,-0.207
5.523,-0.084,-0.982,-0.213
5.533,-0.080,-0.982,-0.213
5.543,-0.076,-0.980,-0.211
5.553,-0.076,-0.980,-0.209
5.563,-0.076,-0.980,-0.211
5.573,-0.078,-0.984,-0.211
5.583,-0.076,-0.977,-0.205
5.593,-0.076,-0.977,-0.203
5.603,-0.070,-0.980,-0.209
5.613,-0.070,-0.986,-0.211
5.622,-0.072,-0.982,-0.209
5.632,-0.074,-0.984,-0.207
5.642,-0.076,-0.986,-0.207
5.652,-0.082,-0.990,-0.209
5.662,-0.084,-0.990,-0.211
5.672,-0.082,-0.986,-0.213
5.682,-0.082,-0.986,-0.213
5.692,-0.080,-0.986,-0.211
5.702,-0.082,-0.984,-0.211
5.712,-0.076,-0.982,-0.207
5.722,-0.074,-0.986,-0.205
5.732,-0.070,-0.984,-0.209
5.742,-0.074,-0.988,-0.207
5.752,-0.070,-0.988,-0.207
5.761,-0.068,-0.986,-0.211
5.771,-0.066,-0.986,-0.215
5.781,-0.064,-0.982,-0.207
5.791,-0.068,-0.980,-0.203
5.801,-0.068,-0.982,-0.211
5.811,-0.064,-0.979,-0.207
5.821,-0.062,-0.982,-0.209
5.831,-0.066,-0.980,-0.211
5.841,-0.066,-0.979,-0.209
5.851,-0.070,-0.977,-0.207
5.861,-0.066,-0.979,-0.209
5.871,-0.070,-0.984,-0.209
5.881,-0.074,-0.984,-0.213
5.890,-0.072,-0.982,-0.213
5.900,-0.072,-0.990,-0.215
5.910,-0.070,-0.986,-0.219
5.920,-0.070,-0.984,-0.215
5.930,-0.072,-0.986,-0.209
5.940,-0.072,-0.980,-0.207
5.950,-0.072,-0.977,-0.207
5.960,-0.066,-0.982,-0.207
5.970,-0.064,-0.984,-0.209
5.980,-0.062,-0.984,-0.213
5.990,-0.062,-0.986,-0.207
6.000,-0.066,-0.986,-0.207
6.010,-0.062,-0.990,-0.209
6.019,-0.064,-0.984,-0.213
6.029,-0.064,-0.980,-0.207
6.039,-0.064,-0.984,-0.203
6.049,-0.061,-0.986,-0.207
6.059,-0.062,-0.982,-0.211
6.069,-0.064,-0.979,-0.209
6.079,-0.068,-0.982,-0.205
6.089,-0.066,-0.986,-0.211
6.099,-0.068,-0.984,-0.217
6.109,-0.070,-0.988,-0.215
6.119,-0.066,-0.984,-0.217
6.129,-0.066,-0.984,-0.213
6.139,-0.064,-0.980,-0.211
6.149,-0.064,-0.979,-0.209
6.158,-0.062,-0.979,-0.209
6.168,-0.066,-0.975,-0.211
6.178,-0.070,-0.980,-0.209
6.188,-0.074,-0.980,-0.211
6.198,-0.080,-0.982,-0.211
6.208,-0.078,-0.984,-0.213
6.218,-0.076,-0.986,-0.215
6.228,-0.074,-0.988,-0.217
6.238,-0.072,-0.986,-0.211
6.248,-0.070,-0.986,-0.209
6.258,-0.072,-0.984,-0.211
6.268,-0.074,-0.986,-0.207
6.278,-0.074,-0.984,-0.205
6.287,-0.076,-0.988,-0.207
6.297,-0.068,-0.986,-0.215
6.307,-0.064,-0.990,-0.213
6.317,-0.068,-0.988,-0.213
6.327,-0.066,-0.984,-0.209
6.337,-0.070,-0.980,-0.209
6.347,-0.070,-0.980,-0.209
6.357,-0.070,-0.982,-0.211
6.367,-0.064,-0.980,-0.209
6.377,-0.066,-0.980,-0.211
6.387,-0.068,-0.975,-0.207
6.397,-0.074,-0.975,-0.205
6.407,-0.072,-0.977,-0.205
6.416,-0.076,-0.982,-0.209
6.426,-0.078,-0.986,-0.211
6.436,-0.074,-0.984,-0.213
6.446,-0.078,-0.984,-0.211
6.456,-0.072,-0.984,-0.209
6.466,-0.070,-0.988,-0.211
6.476,-0.070,-0.986,-0.209
6.486,-0.068,-0.980,-0.205
6.496,-0.068,-0.980,-0.209
6.506,-0.068,-0.979,-0.207
6.516,-0.066,-0.980,-0.207
6.526,-0.064,-0.984,-0.207
6.536,-0.064,-0.988,-0.209
6.546,-0.064,-0.990,-0.209
6.555,-0.064,-0.986,-0.213
6.565,-0.066,-0.986,-0.213
6.575,-0.068,-0.982,-0.211
6.585,-0.068,-0.980,-0.203
6.595,-0.068,-0.982,-0.203
6.605,-0.068,-0.986,-0.205
6.615,-0.066,-0.982,-0.211
6.625,-0.068,-0.988,-0.209
6.635,-0.070,-0.986,-0.209
6.645,-0.072,-0.982,-0.211
6.655,-0.070,-0.984,-0.213
6.665,-0.072,-0.984,-0.211
6.675,-0.070,-0.980,-0.215
6.684,-0.066,-0.980,-0.213
6.694,-0.064,-0.977,-0.217
6.704,-0.066,-0.979,-0.211
6.714,-0.066,-0.977,-0.211
6.724,-0.068,-0.977,-0.211
6.734,-0.072,-0.982,-0.209
6.744,-0.080,-0.980,-0.209
6.754,-0.080,-0.984,-0.211
6.764,-0.076,-0.990,-0.213
6.774,-0.070,-0.988,-0.213
6.784,-0.074,-0.988,-0.213
6.794,-0.072,-0.986,-0.209
6.804,-0.070,-0.986,-0.207
6.814,-0.072,-0.988,-0.205
6.823,-0.076,-0.984,-0.205
6.833,-0.070,-0.986,-0.207
6.843,-0.066,-0.992,-0.217
6.853,-0.068,-0.988,-0.217
6.863,-0.064,-0.984,-0.211
6.873,-0.066,-0.984,-0.207
6.883,-0.064,-0.982,-0.207
6.893,-0.068,-0.979,-0.209
6.903,-0.066,-0.984,-0.207
6.913,-0.066,-0.979,-0.209
6.923,-0.064,-0.982,-0.209
6.933,-0.064,-0.979,-0.217
6.943,-0.068,-0.979,-0.209
6.952,-0.070,-0.980,-0.207
6.962,-0.070,-0.980,-0.209
6.972,-0.072,-0.984,-0.215
6.982,-0.074,-0.988,-0.211
6.992,-0.074,-0.986,-0.213
7.002,-0.066,-0.986,-0.209
7.012,-0.070,-0.982,-0.213
7.022,-0.070,-0.980,-0.209
7.032,-0.070,-0.980,-0.209
7.042,-0.066,-0.982,-0.215
7.052,-0.064,-0.984,-0.211
7.062,-0.066,-0.979,-0.211
7.072,-0.068,-0.982,-0.207
7.081,-0.066,-0.980,-0.213
7.091,-0.068,-0.979,-0.209
7.101,-0.066,-0.982,-0.211
7.111,-0.062,-0.982,-0.213
7.121,-0.066,-0.984,-0.213
7.131,-0.074,-0.984,-0.207
7.141,-0.072,-0.984,-0.211
7.151,-0.068,-0.986,-0.211
7.161,-0.068,-0.984,-0.213
7.171,-0.070,-0.984,-0.205
7.181,-0.072,-0.990,-0.203
7.191,-0.064,-0.988,-0.213
7.201,-0.068,-0.990,-0.215
7.211,-0.070,-0.982,-0.211
7.220,-0.068,-0.984,-0.209
7.230,-0.064,-0.984,-0.215
7.240,-0.064,-0.980,-0.213
7.250,-0.062,-0.977,-0.207
7.260,-0.064,-0.979,-0.213
7.270,-0.068,-0.977,-0.213
7.280,-0.064,-0.980,-0.213
7.290,-0.064,-0.980,-0.211
7.300,-0.066,-0.977,-0.207
7.310,-0.074,-0.980,-0.209
7.320,-0.084,-0.986,-0.215
7.330,-0.074,-0.986,-0.217
7.340,-0.074,-0.980,-0.211
7.349,-0.074,-0.984,-0.209
7.359,-0.070,-0.982,-0.211
7.369,-0.072,-0.984,-0.211
7.379,-0.068,-0.982,-0.213
7.389,-0.068,-0.986,-0.205
7.399,-0.066,-0.984,-0.213
7.409,-0.064,-0.984,-0.209
7.419,-0.064,-0.988,-0.211
7.429,-0.061,-0.984,-0.209
7.439,-0.055,-0.984,-0.213
7.449,-0.053,-0.982,-0.217
7.459,-0.055,-0.980,-0.207
7.469,-0.059,-0.984,-0.207
7.479,-0.059,-0.980,-0.215
7.488,-0.055,-0.980,-0.211
7.498,-0.055,-0.982,-0.211
7.508,-0.055,-0.984,-0.215
7.518,-0.061,-0.982,-0.209
7.528,-0.064,-0.984,-0.209
7.538,-0.062,-0.982,-0.211
7.548,-0.064,-0.990,-0.213
7.558,-0.068,-0.992,-0.211
7.568,-0.064,-0.990,-0.211
7.578,-0.064,-0.984,-0.211
7.588,-0.064,-0.986,-0.217
7.598,-0.062,-0.984,-0.209
7.608,-0.059,-0.984,-0.209
7.617,-0.062,-0.984,-0.213
7.627,-0.064,-0.982,-0.213
7.637,-0.062,-0.982,-0.211
7.647,-0.062,-0.979,-0.209
7.657,-0.059,-0.980,-0.209
7.667,-0.059,-0.980,-0.207
7.677,-0.057,-0.982,-0.211
7.687,-0.055,-0.986,-0.213
7.697,-0.059,-0.986,-0.211
7.707,-0.062,-0.986,-0.211
7.717,-0.062,-0.986,-0.213
7.727,-0.062,-0.986,-0.213
7.737,-0.066,-0.984,-0.213
7.746,-0.066,-0.986,-0.213
7.756,-0.064,-0.986,-0.215
7.766,-0.068,-0.984,-0.215
7.776,-0.068,-0.986,-0.213
7.786,-0.066,-0.984,-0.217
7.796,-0.068,-0.984,-0.215
7.806,-0.068,-0.984,-0.213
7.816,-0.066,-0.982,-0.219
7.826,-0.066,-0.977,-0.211
7.836,-0.062,-0.975,-0.211
7.846,-0.064,-0.977,-0.215
7.856,-0.066,-0.973,-0.213
7.866,-0.066,-0.977,-0.207
7.876,-0.066,-0.977,-0.205
7.885,-0.070,-0.980,-0.213
7.895,-0.074,-0.986,-0.211
7.905,-0.080,-0.988,-0.215
7.915,-0.076,-0.990,-0.217
7.925,-0.074,-0.990,-0.217
7.935,-0.074,-0.986,-0.215
7.945,-0.070,-0.986,-0.213
7.955,-0.070,-0.982,-0.217
7.965,-0.068,-0.984,-0.209
7.975,-0.070,-0.982,-0.211
7.985,-0.076,-0.980,-0.207
7.995,-0.074,-0.980,-0.207
8.005,-0.072,-0.979,-0.213
8.014,-0.072,-0.979,-0.209
8.024,-0.068,-0.982,-0.211
8.034,-0.068,-0.982,-0.209
8.044,-0.070,-0.982,-0.215
8.054,-0.070,-0.980,-0.215
8.064,-0.072,-0.980,-0.209
8.074,-0.066,-0.986,-0.215
8.084,-0.066,-0.984,-0.217
8.094,-0.070,-0.982,-0.213
8.104,-0.074,-0.979,-0.209
8.114,-0.072,-0.982,-0.207
8.124,-0.072,-0.986,-0.213
8.134,-0.074,-0.986,-0.215
8.143,-0.074,-0.988,-0.213
8.153,-0.074,-0.984,-0.213
8.163,-0.074,-0.982,-0.209
8.173,-0.074,-0.980,-0.209
8.183,-0.074,-0.982,-0.209
8.193,-0.074,-0.980,-0.209
8.203,-0.074,-0.982,-0.211
8.213,-0.072,-0.980,-0.211
8.223,-0.072,-0.980,-0.213
8.233,-0.066,-0.982,-0.217
8.243,-0.074,-0.979,-0.215
8.253,-0.072,-0.984,-0.209
8.263,-0.070,-0.984,-0.217
8.273,-0.074,-0.984,-0.215
8.282,-0.070,-0.982,-0.213
8.292,-0.072,-0.982,-0.213
8.302,-0.070,-0.984,-0.217
8.312,-0.072,-0.982,-0.215
8.322,-0.074,-0.986,-0.213
8.332,-0.078,-0.986,-0.219
8.342,-0.076,-0.986,-0.215
8.352,-0.072,-0.986,-0.213
8.362,-0.072,-0.986,-0.213
8.372,-0.074,-0.984,-0.215
8.382,-0.080,-0.982,-0.215
8.392,-0.078,-0.979,-0.207
8.402,-0.074,-0.973,-0.213
8.411,-0.074,-0.973,-0.213
8.421,-0.074,-0.975,-0.211
8.431,-0.074,-0.979,-0.211
8.441,-0.072,-0.977,-0.215
8.451,-0.078,-0.977,-0.213
8.461,-0.082,-0.980,-0.211
8.471,-0.082,-0.984,-0.215
8.481,-0.082,-0.986,-0.219
8.491,-0.082,-0.984,-0.215
8.501,-0.078,-0.984,-0.213
8.511,-0.080,-0.986,-0.213
8.521,-0.076,-0.982,-0.213
8.531,-0.076,-0.980,-0.209
8.541,-0.082,-0.986,-0.211
8.550,-0.082,-0.982,-0.215
8.560,-0.080,-0.982,-0.213
8.570,-0.078,-0.984,-0.215
8.580,-0.072,-0.986,-0.219
8.590,-0.070,-0.980,-0.219
8.600,-0.070,-0.979,-0.213
8.610,-0.074,-0.977,-0.211
8.620,-0.076,-0.984,-0.217
8.630,-0.070,-0.977,-0.213
8.640,-0.070,-0.977,-0.207
8.650,-0.070,-0.979,-0.215
8.660,-0.070,-0.980,-0.215
8.670,-0.074,-0.979,-0.211
8.679,-0.078,-0.982,-0.213
8.689,-0.076,-0.982,-0.213
8.699,-0.072,-0.988,-0.217
8.709,-0.080,-0.988,-0.217
8.719,-0.078,-0.984,-0.213
8.729,-0.078,-0.984,-0.211
8.739,-0.072,-0.984,-0.221
8.749,-0.070,-0.980,-0.211
8.759,-0.074,-0.980,-0.207
8.769,-0.074,-0.980,-0.207
8.779,-0.070,-0.982,-0.211
8.789,-0.074,-0.984,-0.213
8.799,-0.068,-0.982,-0.215
8.808,-0.068,-0.977,-0.219
8.818,-0.070,-0.977,-0.213
8.828,-0.072,-0.980,-0.213
8.838,-0.068,-0.980,-0.215
8.848,-0.074,-0.982,-0.215
8.858,-0.072,-0.984,-0.215
8.868,-0.076,-0.984,-0.213
8.878,-0.072,-0.988,-0.211
8.888,-0.076,-0.984,-0.213
8.898,-0.076,-0.986,-0.213
8.908,-0.076,-0.986,-0.215
8.918,-0.074,-0.984,-0.217
8.928,-0.074,-0.984,-0.215
8.938,-0.074,-0.984,-0.215
8.947,-0.068,-0.986,-0.217
8.957,-0.074,-0.982,-0.217
8.967,-0.080,-0.977,-0.209
8.977,-0.076,-0.971,-0.211
8.987,-0.070,-0.975,-0.215
8.997,-0.070,-0.979,-0.215
9.007,-0.068,-0.975,-0.217
9.017,-0.072,-0.975,-0.213
9.027,-0.078,-0.979,-0.211
9.037,-0.084,-0.982,-0.215
9.047,-0.082,-0.982,-0.215
9.057,-0.082,-0.984,-0.215
9.067,-0.076,-0.984,-0.217
9.076,-0.078,-0.982,-0.213
9.086,-0.078,-0.984,-0.215
9.096,-0.078,-0.984,-0.211
9.106,-0.078,-0.982,-0.215
9.116,-0.072,-0.982,-0.213
9.126,-0.076,-0.984,-0.213
9.136,-0.072,-0.982,-0.215
9.146,-0.072,-0.986,-0.217
9.156,-0.070,-0.980,-0.215
9.166,-0.072,-0.980,-0.213
9.176,-0.074,-0.980,-0.215
9.186,-0.072,-0.979,-0.213
9.196,-0.072,-0.979,-0.211
9.206,-0.076,-0.982,-0.219
9.215,-0.072,-0.982,-0.217
9.225,-0.074,-0.982,-0.215
9.235,-0.074,-0.982,-0.217
9.245,-0.072,-0.980,-0.211
9.255,-0.076,-0.979,-0.209
9.265,-0.078,-0.984,-0.211
9.275,-0.080,-0.986,-0.213
9.285,-0.078,-0.982,-0.213
9.295,-0.082,-0.986,-0.207
9.305,-0.076,-0.986,-0.215
9.315,-0.074,-0.986,-0.215
9.325,-0.072,-0.986,-0.213
9.335,-0.076,-0.986,-0.211
9.344,-0.074,-0.982,-0.209
9.354,-0.072,-0.982,-0.211
9.364,-0.074,-0.982,-0.213
9.374,-0.072,-0.984,-0.215
9.384,-0.072,-0.982,-0.213
9.394,-0.072,-0.980,-0.217
9.404,-0.074,-0.980,-0.215
9.414,-0.074,-0.979,-0.217
9.424,-0.074,-0.982,-0.215
9.434,-0.076,-0.979,-0.213
9.444,-0.074,-0.982,-0.213
9.454,-0.074,-0.980,-0.211
9.464,-0.072,-0.984,-0.215
9.473,-0.076,-0.982,-0.211
9.483,-0.078,-0.982,-0.213
9.493,-0.074,-0.984,-0.219
9.503,-0.072,-0.982,-0.219
9.513,-0.074,-0.984,-0.219
9.523,-0.074,-0.979,-0.217
9.533,-0.076,-0.980,-0.217
9.543,-0.074,-0.979,-0.217
9.553,-0.072,-0.975,-0.217
9.563,-0.072,-0.979,-0.221
9.573,-0.074,-0.975,-0.219
9.583,-0.078,-0.975,-0.219
9.593,-0.072,-0.977,-0.215
9.603,-0.070,-0.973,-0.215
9.612,-0.078,-0.975,-0.213
9.622,-0.084,-0.979,-0.215
9.632,-0.086,-0.979,-0.219
9.642,-0.084,-0.982,-0.219
9.652,-0.080,-0.982,-0.219
9.662,-0.078,-0.982,-0.217
9.672,-0.082,-0.982,-0.215
9.682,-0.082,-0.979,-0.211
9.692,-0.078,-0.980,-0.213
9.702,-0.084,-0.984,-0.211
9.712,-0.082,-0.982,-0.215
9.722,-0.076,-0.984,-0.219
9.732,-0.074,-0.984,-0.221
9.741,-0.070,-0.986,-0.221
9.751,-0.068,-0.984,-0.221
9.761,-0.066,-0.982,-0.215
9.771,-0.068,-0.980,-0.215
9.781,-0.070,-0.977,-0.215
9.791,-0.072,-0.980,-0.217
9.801,-0.072,-0.982,-0.217
9.811,-0.066,-0.982,-0.219
9.821,-0.070,-0.984,-0.225
9.831,-0.072,-0.982,-0.219
9.841,-0.076,-0.982,-0.215
9.851,-0.074,-0.982,-0.213
9.861,-0.076,-0.984,-0.215
9.870,-0.076,-0.980,-0.217
9.880,-0.074,-0.982,-0.221
9.890,-0.072,-0.986,-0.219
9.900,-0.072,-0.986,-0.221
9.910,-0.072,-0.980,-0.213
9.920,-0.072,-0.980,-0.215
9.930,-0.072,-0.980,-0.215
9.940,-0.072,-0.977,-0.219
9.950,-0.072,-0.979,-0.215
9.960,-0.068,-0.979,-0.215
9.970,-0.068,-0.979,-0.221
9.980,-0.068,-0.980,-0.215
9.990,-0.064,-0.980,-0.215
10.000,-0.066,-0.982,-0.219
10.009,-0.070,-0.984,-0.215
10.019,-0.072,-0.984,-0.215
10.029,-0.078,-0.984,-0.217
10.039,-0.078,-0.982,-0.215
10.049,-0.076,-0.984,-0.215
10.059,-0.072,-0.982,-0.215
10.069,-0.074,-0.980,-0.215
10.079,-0.074,-0.984,-0.217
10.089,-0.074,-0.984,-0.217
10.099,-0.076,-0.982,-0.215
10.109,-0.074,-0.980,-0.221
10.119,-0.072,-0.979,-0.217
10.129,-0.074,-0.979,-0.219
10.138,-0.072,-0.977,-0.215
10.148,-0.076,-0.977,-0.219
10.158,-0.072,-0.975,-0.217
10.168,-0.068,-0.975,-0.215
10.178,-0.072,-0.971,-0.217
10.188,-0.074,-0.975,-0.213
10.198,-0.082,-0.977,-0.215
10.208,-0.078,-0.979,-0.215
10.218,-0.080,-0.982,-0.219
10.228,-0.080,-0.986,-0.223
10.238,-0.078,-0.988,-0.223
10.248,-0.078,-0.984,-0.219
10.258,-0.074,-0.982,-0.217
10.268,-0.072,-0.979,-0.217
10.277,-0.072,-0.982,-0.215
10.287,-0.076,-0.984,-0.213
10.297,-0.074,-0.984,-0.215
10.307,-0.068,-0.982,-0.215
10.317,-0.068,-0.982,-0.215
10.327,-0.066,-0.980,-0.215
10.337,-0.066,-0.980,-0.213
10.347,-0.068,-0.977,-0.215
10.357,-0.074,-0.977,-0.211
10.367,-0.074,-0.975,-0.213
10.377,-0.070,-0.979,-0.213
10.387,-0.068,-0.984,-0.217
10.397,-0.070,-0.980,-0.217
10.406,-0.068,-0.982,-0.215
10.416,-0.074,-0.979,-0.211
10.426,-0.074,-0.982,-0.211
10.436,-0.070,-0.982,-0.217
10.446,-0.068,-0.980,-0.217
10.456,-0.070,-0.984,-0.213
10.466,-0.068,-0.988,-0.217
10.476,-0.066,-0.984,-0.219
10.486,-0.066,-0.988,-0.219
10.496,-0.070,-0.990,-0.219
10.506,-0.070,-0.986,-0.217
10.516,-0.070,-0.982,-0.211
10.526,-0.064,-0.979,-0.215
10.535,-0.062,-0.979,-0.219
10.545,-0.068,-0.977,-0.215
10.555,-0.064,-0.975,-0.215
10.565,-0.066,-0.979,-0.215
10.575,-0.070,-0.980,-0.217
10.585,-0.070,-0.980,-0.217
10.595,-0.072,-0.979,-0.219
10.605,-0.074,-0.982,-0.219
10.615,-0.074,-0.986,-0.219
10.625,-0.070,-0.986,-0.217
10.635,-0.066,-0.984,-0.217
10.645,-0.068,-0.992,-0.225
10.655,-0.068,-0.986,-0.221
10.665,-0.066,-0.982,-0.217
10.674,-0.064,-0.980,-0.213
10.684,-0.064,-0.986,-0.221
10.694,-0.064,-0.986,-0.225
10.704,-0.057,-0.984,-0.219
10.714,-0.061,-0.980,-0.223
10.724,-0.061,-0.977,-0.223
10.734,-0.061,-0.973,-0.217
10.744,-0.059,-0.977,-0.213
10.754,-0.059,-0.979,-0.225
10.764,-0.061,-0.979,-0.217
10.774,-0.068,-0.977,-0.219
10.784,-0.074,-0.979,-0.223
10.794,-0.076,-0.982,-0.223
10.803,-0.070,-0.984,-0.227
10.813,-0.068,-0.986,-0.229
10.823,-0.062,-0.980,-0.229
10.833,-0.064,-0.977,-0.221
10.843,-0.062,-0.979,-0.225
10.853,-0.062,-0.982,-0.229
10.863,-0.066,-0.977,-0.227
10.873,-0.066,-0.975,-0.219
10.883,-0.068,-0.977,-0.215
10.893,-0.068,-0.979,-0.229
10.903,-0.066,-0.977,-0.225
10.913,-0.070,-0.979,-0.221
10.923,-0.076,-0.979,-0.223
10.933,-0.074,-0.979,-0.230
10.942,-0.076,-0.980,-0.238
10.952,-0.074,-0.975,-0.232
10.962,-0.070,-0.977,-0.223
10.972,-0.059,-0.984,-0.229
10.982,-0.059,-0.982,-0.232
10.992,-0.064,-0.977,-0.223
11.002,-0.070,-0.979,-0.219
11.012,-0.068,-0.979,-0.229
11.022,-0.064,-0.982,-0.229
11.032,-0.074,-0.975,-0.230
11.042,-0.074,-0.975,-0.223
11.052,-0.082,-0.982,-0.229
11.062,-0.082,-0.975,-0.229
11.071,-0.080,-0.973,-0.217
11.081,-0.072,-0.979,-0.219
11.091,-0.061,-0.979,-0.227
11.101,-0.057,-0.973,-0.221
11.111,-0.059,-0.963,-0.223
11.121,-0.062,-0.959,-0.219
11.131,-0.057,-0.967,-0.213
11.141,-0.043,-0.973,-0.221
11.151,-0.053,-0.982,-0.234
11.161,-0.055,-0.980,-0.225
11.171,-0.059,-0.979,-0.221
11.181,-0.062,-0.982,-0.221
11.191,-0.057,-0.986,-0.229
11.200,-0.053,-0.988,-0.229
11.210,-0.053,-0.990,-0.223
11.220,-0.055,-0.990,-0.223
11.230,-0.053,-0.990,-0.223
11.240,-0.047,-0.988,-0.229
11.250,-0.047,-0.982,-0.223
11.260,-0.043,-0.984,-0.219
11.270,-0.039,-0.975,-0.223
11.280,-0.043,-0.971,-0.221
11.290,-0.043,-0.977,-0.215
11.300,-0.041,-0.980,-0.225
11.310,-0.043,-0.979,-0.225
11.320,-0.053,-0.977,-0.211
11.330,-0.061,-0.975,-0.209
11.339,-0.064,-0.973,-0.211
11.349,-0.059,-0.982,-0.215
11.359,-0.057,-0.992,-0.225
11.369,-0.055,-0.992,-0.229
11.379,-0.039,-0.998,-0.223
11.389,-0.033,-0.998,-0.223
11.399,-0.027,-0.994,-0.221
11.409,-0.025,-0.992,-0.215
11.419,-0.020,-0.990,-0.211
11.429,-0.023,-0.990,-0.221
11.439,-0.025,-0.988,-0.221
11.449,-0.031,-0.988,-0.219
11.459,-0.033,-0.988,-0.219
11.468,-0.035,-0.984,-0.217
11.478,-0.043,-0.986,-0.225
11.488,-0.045,-0.990,-0.227
11.498,-0.039,-0.992,-0.227
11.508,-0.041,-0.988,-0.230
11.518,-0.039,-0.982,-0.229
11.528,-0.045,-0.973,-0.219
11.538,-0.057,-0.969,-0.215
11.548,-0.062,-0.971,-0.215
11.558,-0.064,-0.977,-0.221
11.568,-0.066,-0.975,-0.227
11.578,-0.070,-0.973,-0.221
11.588,-0.070,-0.975,-0.219
11.597,-0.064,-0.975,-0.232
11.607,-0.068,-0.977,-0.234
11.617,-0.072,-0.977,-0.229
11.627,-0.066,-0.975,-0.230
11.637,-0.061,-0.973,-0.232
11.647,-0.061,-0.971,-0.229
11.657,-0.070,-0.971,-0.230
11.667,-0.072,-0.971,-0.232
11.677,-0.070,-0.971,-0.230
11.687,-0.070,-0.967,-0.229
11.697,-0.072,-0.967,-0.229
11.707,-0.072,-0.969,-0.229
11.717,-0.072,-0.971,-0.227
11.727,-0.072,-0.971,-0.230
11.736,-0.066,-0.975,-0.232
11.746,-0.068,-0.980,-0.236
11.756,-0.066,-0.979,-0.230
11.766,-0.066,-0.980,-0.230
11.776,-0.062,-0.980,-0.232
11.786,-0.066,-0.984,-0.232
11.796,-0.068,-0.984,-0.229
11.806,-0.068,-0.982,-0.234
11.816,-0.074,-0.980,-0.227
11.826,-0.072,-0.984,-0.227
11.836,-0.070,-0.984,-0.236
11.846,-0.072,-0.980,-0.230
11.856,-0.080,-0.979,-0.227
11.865,-0.092,-0.977,-0.230
11.875,-0.094,-0.973,-0.230
11.885,-0.094,-0.973,-0.232
11.895,-0.090,-0.971,-0.234
11.905,-0.086,-0.969,-0.234
11.915,-0.088,-0.969,-0.234
11.925,-0.090,-0.971,-0.230
11.935,-0.088,-0.969,-0.234
11.945,-0.088,-0.969,-0.227
11.955,-0.082,-0.975,-0.230
11.965,-0.076,-0.975,-0.238
11.975,-0.074,-0.973,-0.238
11.985,-0.072,-0.973,-0.230
11.995,-0.072,-0.975,-0.232
12.004,-0.068,-0.977,-0.230
12.014,-0.070,-0.977,-0.234
12.024,-0.070,-0.975,-0.236
12.034,-0.070,-0.979,-0.232
12.044,-0.064,-0.980,-0.230
12.054,-0.068,-0.977,-0.230
12.064,-0.070,-0.977,-0.229
12.074,-0.072,-0.977,-0.229
12.084,-0.078,-0.979,-0.234
12.094,-0.066,-0.967,-0.229
12.104,-0.072,-0.973,-0.223
12.114,-0.059,-0.973,-0.230
12.124,-0.066,-0.982,-0.238
12.133,-0.070,-0.982,-0.230
12.143,-0.066,-0.971,-0.223
12.153,-0.064,-0.979,-0.225
12.163,-0.066,-0.975,-0.232
12.173,-0.074,-0.979,-0.230
12.183,-0.070,-0.977,-0.227
12.193,-0.070,-0.977,-0.229
12.203,-0.070,-0.984,-0.230
12.213,-0.064,-0.984,-0.229
12.223,-0.066,-0.979,-0.229
12.233,-0.068,-0.982,-0.230
12.243,-0.068,-0.982,-0.230
12.253,-0.070,-0.984,-0.230
12.262,-0.074,-0.982,-0.230
12.272,-0.072,-0.980,-0.229
12.282,-0.074,-0.979,-0.227
12.292,-0.072,-0.979,-0.229
12.302,-0.072,-0.977,-0.227
12.312,-0.070,-0.975,-0.227
12.322,-0.068,-0.971,-0.227
12.332,-0.066,-0.973,-0.232
12.342,-0.068,-0.975,-0.227
12.352,-0.068,-0.971,-0.227
12.362,-0.072,-0.971,-0.225
12.372,-0.076,-0.973,-0.219
12.382,-0.076,-0.975,-0.229
12.392,-0.080,-0.979,-0.230
12.401,-0.080,-0.980,-0.227
12.411,-0.082,-0.984,-0.234
12.421,-0.076,-0.986,-0.229
12.431,-0.072,-0.984,-0.229
12.441,-0.072,-0.986,-0.229
12.451,-0.072,-0.988,-0.227
12.461,-0.074,-0.980,-0.229
12.471,-0.074,-0.984,-0.230
12.481,-0.076,-0.979,-0.227
12.491,-0.072,-0.979,-0.230
12.501,-0.072,-0.977,-0.229
12.511,-0.070,-0.977,-0.223
12.521,-0.074,-0.973,-0.225
12.530,-0.072,-0.973,-0.223
12.540,-0.072,-0.977,-0.229
12.550,-0.074,-0.977,-0.227
12.560,-0.074,-0.977,-0.229
12.570,-0.074,-0.973,-0.227
12.580,-0.080,-0.975,-0.223
12.590,-0.082,-0.975,-0.221
12.600,-0.082,-0.979,-0.225
12.610,-0.082,-0.980,-0.229
12.620,-0.086,-0.980,-0.230
12.630,-0.082,-0.980,-0.227
12.640,-0.078,-0.979,-0.225
12.650,-0.078,-0.979,-0.225
12.660,-0.078,-0.977,-0.227
12.669,-0.078,-0.979,-0.223
12.679,-0.078,-0.979,-0.223
12.689,-0.074,-0.979,-0.227
12.699,-0.078,-0.982,-0.227
12.709,-0.080,-0.982,-0.225
12.719,-0.078,-0.980,-0.225
12.729,-0.076,-0.980,-0.225
12.739,-0.074,-0.986,-0.227
12.749,-0.072,-0.980,-0.229
12.759,-0.074,-0.984,-0.225
12.769,-0.072,-0.982,-0.229
12.779,-0.078,-0.982,-0.227
12.789,-0.078,-0.982,-0.229
12.798,-0.076,-0.980,-0.229
12.808,-0.078,-0.980,-0.227
12.818,-0.076,-0.975,-0.225
12.828,-0.078,-0.971,-0.227
12.838,-0.078,-0.973,-0.227
12.848,-0.076,-0.973,-0.230
12.858,-0.076,-0.971,-0.225
12.868,-0.074,-0.971,-0.223
12.878,-0.080,-0.975,-0.221
12.888,-0.084,-0.975,-0.223
12.898,-0.088,-0.979,-0.227
12.908,-0.090,-0.979,-0.232
12.918,-0.090,-0.975,-0.230
12.927,-0.084,-0.984,-0.232
12.937,-0.084,-0.979,-0.232
12.947,-0.084,-0.980,-0.229
12.957,-0.084,-0.977,-0.227
12.967,-0.082,-0.979,-0.223
12.977,-0.084,-0.977,-0.227
12.987,-0.088,-0.975,-0.225
12.997,-0.086,-0.979,-0.225
13.007,-0.080,-0.975,-0.229
13.017,-0.080,-0.973,-0.227
13.027,-0.082,-0.975,-0.225
13.037,-0.078,-0.977,-0.225
13.047,-0.076,-0.979,-0.229
13.057,-0.076,-0.980,-0.229
13.066,-0.072,-0.979,-0.229
13.076,-0.074,-0.977,-0.229
13.086,-0.072,-0.975,-0.219
13.096,-0.078,-0.973,-0.221
13.106,-0.074,-0.977,-0.223
13.116,-0.074,-0.980,-0.227
13.126,-0.076,-0.984,-0.225
13.136,-0.074,-0.984,-0.227
13.146,-0.076,-0.984,-0.229
13.156,-0.074,-0.982,-0.229
13.166,-0.074,-0.984,-0.225
13.176,-0.074,-0.979,-0.221
13.186,-0.076,-0.979,-0.225
13.195,-0.072,-0.984,-0.225
13.205,-0.074,-0.980,-0.225
13.215,-0.070,-0.980,-0.225
13.225,-0.076,-0.979,-0.225
13.235,-0.078,-0.979,-0.221
13.245,-0.074,-0.977,-0.227
13.255,-0.070,-0.980,-0.229
13.265,-0.072,-0.977,-0.227
13.275,-0.078,-0.977,-0.221
13.285,-0.076,-0.979,-0.223
13.295,-0.068,-0.982,-0.229
13.305,-0.074,-0.979,-0.229
13.315,-0.076,-0.979,-0.221
13.324,-0.076,-0.977,-0.225
13.334,-0.076,-0.980,-0.229
13.344,-0.076,-0.980,-0.227
13.354,-0.078,-0.977,-0.225
13.364,-0.076,-0.977,-0.227
13.374,-0.072,-0.977,-0.229
13.384,-0.062,-0.973,-0.227
13.394,-0.064,-0.975,-0.223
13.404,-0.074,-0.977,-0.225
13.414,-0.080,-0.975,-0.221
13.424,-0.082,-0.979,-0.227
13.434,-0.080,-0.979,-0.229
13.444,-0.080,-0.982,-0.227
13.454,-0.080,-0.980,-0.227
13.463,-0.080,-0.982,-0.227
13.473,-0.076,-0.979,-0.223
13.483,-0.078,-0.982,-0.225
13.493,-0.080,-0.979,-0.221
13.503,-0.078,-0.979,-0.221
13.513,-0.082,-0.982,-0.225
13.523,-0.076,-0.982,-0.225
13.533,-0.074,-0.982,-0.225
13.543,-0.072,-0.979,-0.225
13.553,-0.074,-0.979,-0.221
13.563,-0.076,-0.979,-0.219
13.573,-0.074,-0.975,-0.229
13.583,-0.078,-0.977,-0.223
13.592,-0.078,-0.977,-0.223
13.602,-0.076,-0.979,-0.229
13.612,-0.074,-0.979,-0.225
13.622,-0.076,-0.973,-0.217
13.632,-0.076,-0.977,-0.217
13.642,-0.078,-0.977,-0.223
13.652,-0.080,-0.980,-0.225
13.662,-0.082,-0.980,-0.225
13.672,-0.078,-0.980,-0.223
13.682,-0.080,-0.979,-0.227
13.692,-0.078,-0.980,-0.227
13.702,-0.074,-0.979,-0.223
13.712,-0.080,-0.977,-0.223
13.722,-0.080,-0.979,-0.219
13.731,-0.076,-0.979,-0.223
13.741,-0.076,-0.977,-0.225
13.751,-0.076,-0.977,-0.221
13.761,-0.074,-0.980,-0.225
13.771,-0.074,-0.979,-0.225
13.781,-0.076,-0.980,-0.223
13.791,-0.076,-0.982,-0.227
13.801,-0.072,-0.980,-0.225
13.811,-0.076,-0.979,-0.221
13.821,-0.078,-0.979,-0.223
13.831,-0.078,-0.980,-0.223
13.841,-0.078,-0.980,-0.225
13.851,-0.076,-0.984,-0.225
13.860,-0.078,-0.982,-0.227
13.870,-0.078,-0.984,-0.221
13.880,-0.082,-0.980,-0.223
13.890,-0.080,-0.979,-0.225
13.900,-0.074,-0.975,-0.227
13.910,-0.072,-0.971,-0.227
13.920,-0.068,-0.973,-0.223
13.930,-0.068,-0.973,-0.229
13.940,-0.074,-0.971,-0.221
13.950,-0.084,-0.975,-0.221
13.960,-0.088,-0.979,-0.221
13.970,-0.086,-0.979,-0.230
13.980,-0.088,-0.982,-0.225
13.989,-0.086,-0.980,-0.223
13.999,-0.084,-0.982,-0.223
14.009,-0.084,-0.979,-0.223
14.019,-0.082,-0.982,-0.223
14.029,-0.084,-0.984,-0.221
14.039,-0.082,-0.980,-0.221
14.049,-0.078,-0.982,-0.225
14.059,-0.076,-0.980,-0.223
14.069,-0.072,-0.980,-0.221
14.079,-0.074,-0.979,-0.223
14.089,-0.070,-0.979,-0.221
14.099,-0.074,-0.977,-0.229
14.109,-0.074,-0.979,-0.223
14.119,-0.072,-0.977,-0.223
14.128,-0.070,-0.977,-0.221
14.138,-0.070,-0.977,-0.225
14.148,-0.072,-0.975,-0.217
14.158,-0.074,-0.979,-0.215
14.168,-0.074,-0.980,-0.223
14.178,-0.074,-0.982,-0.229
14.188,-0.078,-0.980,-0.223
14.198,-0.080,-0.984,-0.221
14.208,-0.078,-0.984,-0.223
14.218,-0.072,-0.980,-0.225
14.228,-0.076,-0.979,-0.217
14.238,-0.074,-0.982,-0.223
14.248,-0.074,-0.980,-0.223
14.257,-0.074,-0.979,-0.219
14.267,-0.072,-0.979,-0.219
14.277,-0.074,-0.979,-0.221
14.287,-0.068,-0.975,-0.221
14.297,-0.070,-0.975,-0.221
14.307,-0.072,-0.977,-0.223
14.317,-0.074,-0.982,-0.229
14.327,-0.074,-0.984,-0.227
14.337,-0.078,-0.982,-0.225
14.347,-0.074,-0.980,-0.221
14.357,-0.076,-0.979,-0.223
14.367,-0.076,-0.975,-0.223
14.377,-0.080,-0.979,-0.223
14.387,-0.074,-0.982,-0.221
14.396,-0.076,-0.980,-0.225
14.406,-0.076,-0.979,-0.223
14.416,-0.076,-0.982,-0.227
14.426,-0.080,-0.979,-0.223
14.436,-0.078,-0.980,-0.227
14.446,-0.074,-0.977,-0.225
14.456,-0.074,-0.971,-0.223
14.466,-0.068,-0.975,-0.221
14.476,-0.070,-0.977,-0.221
14.486,-0.070,-0.973,-0.223
14.496,-0.080,-0.979,-0.221
14.506,-0.084,-0.980,-0.225
14.516,-0.088,-0.982,-0.225
14.525,-0.086,-0.980,-0.227
14.535,-0.084,-0.984,-0.225
14.545,-0.084,-0.982,-0.225
14.555,-0.080,-0.980,-0.221
14.565,-0.082,-0.980,-0.221
14.575,-0.084,-0.979,-0.221
14.585,-0.084,-0.980,-0.219
14.595,-0.080,-0.980,-0.221
14.605,-0.084,-0.979,-0.221
14.615,-0.084,-0.977,-0.221
14.625,-0.080,-0.977,-0.221
14.635,-0.080,-0.975,-0.221
14.645,-0.082,-0.977,-0.223
14.654,-0.084,-0.977,-0.225
14.664,-0.078,-0.977,-0.223
14.674,-0.078,-0.977,-0.223
14.684,-0.078,-0.977,-0.229
14.694,-0.080,-0.975,-0.223
14.704,-0.082,-0.977,-0.211
14.714,-0.082,-0.977,-0.215
14.724,-0.084,-0.982,-0.225
14.734,-0.084,-0.982,-0.227
14.744,-0.086,-0.984,-0.223
14.754,-0.082,-0.980,-0.223
14.764,-0.080,-0.982,-0.219
14.774,-0.082,-0.980,-0.223
14.784,-0.084,-0.984,-0.219
14.793,-0.080,-0.979,-0.219
14.803,-0.080,-0.979,-0.217
14.813,-0.080,-0.979,-0.217
14.823,-0.078,-0.979,-0.219
14.833,-0.078,-0.977,-0.219
14.843,-0.080,-0.977,-0.221
14.853,-0.080,-0.980,-0.223
14.863,-0.076,-0.982,-0.223
14.873,-0.080,-0.986,-0.223
14.883,-0.080,-0.984,-0.219
14.893,-0.082,-0.982,-0.219
14.903,-0.078,-0.982,-0.217
14.913,-0.082,-0.984,-0.223
14.922,-0.080,-0.984,-0.219
14.932,-0.080,-0.986,-0.221
14.942,-0.078,-0.982,-0.219
14.952,-0.080,-0.980,-0.217
14.962,-0.082,-0.980,-0.221
14.972,-0.082,-0.979,-0.223
14.982,-0.078,-0.979,-0.221
14.992,-0.080,-0.975,-0.223
15.002,-0.076,-0.973,-0.221
15.012,-0.076,-0.975,-0.223
15.022,-0.074,-0.975,-0.223
15.032,-0.076,-0.973,-0.215
15.042,-0.084,-0.975,-0.221
15.051,-0.088,-0.979,-0.221
15.061,-0.092,-0.980,-0.225
15.071,-0.090,-0.982,-0.227
15.081,-0.086,-0.984,-0.229
15.091,-0.086,-0.980,-0.225
15.101,-0.086,-0.982,-0.221
15.111,-0.088,-0.982,-0.217
15.121,-0.092,-0.982,-0.223
15.131,-0.086,-0.982,-0.221
15.141,-0.084,-0.980,-0.223
15.151,-0.082,-0.982,-0.223
15.161,-0.080,-0.979,-0.221
15.171,-0.076,-0.979,-0.225
15.181,-0.076,-0.977,-0.223
15.190,-0.078,-0.975,-0.223
15.200,-0.080,-0.973,-0.223
15.210,-0.080,-0.975,-0.221
15.220,-0.076,-0.975,-0.223
15.230,-0.074,-0.975,-0.225
15.240,-0.072,-0.979,-0.225
15.250,-0.078,-0.977,-0.225
15.260,-0.080,-0.977,-0.215
15.270,-0.078,-0.977,-0.217
15.280,-0.080,-0.980,-0.225
15.290,-0.084,-0.984,-0.227
15.300,-0.082,-0.982,-0.225
15.310,-0.082,-0.982,-0.221
15.319,-0.076,-0.980,-0.221
15.329,-0.076,-0.977,-0.223
15.339,-0.080,-0.979,-0.221
15.349,-0.078,-0.979,-0.219
15.359,-0.078,-0.979,-0.219
15.369,-0.076,-0.979,-0.219
15.379,-0.078,-0.980,-0.223
15.389,-0.074,-0.980,-0.223
15.399,-0.074,-0.977,-0.221
15.409,-0.076,-0.979,-0.223
15.419,-0.078,-0.980,-0.225
15.429,-0.076,-0.982,-0.221
15.439,-0.078,-0.979,-0.223
15.449,-0.076,-0.979,-0.219
15.458,-0.074,-0.980,-0.223
15.468,-0.080,-0.984,-0.225
15.478,-0.082,-0.982,-0.227
15.488,-0.082,-0.977,-0.221
15.498,-0.078,-0.980,-0.221
15.508,-0.078,-0.980,-0.227
15.518,-0.082,-0.980,-0.225
15.528,-0.082,-0.977,-0.225
15.538,-0.082,-0.973,-0.225
15.548,-0.076,-0.975,-0.225
15.558,-0.078,-0.973,-0.223
15.568,-0.074,-0.975,-0.217
15.578,-0.078,-0.975,-0.227
15.587,-0.082,-0.975,-0.225
15.597,-0.094,-0.982,-0.225
15.607,-0.096,-0.982,-0.223
15.617,-0.092,-0.986,-0.229
15.627,-0.086,-0.982,-0.227
15.637,-0.086,-0.982,-0.227
15.647,-0.086,-0.979,-0.221
15.657,-0.082,-0.975,-0.219
15.667,-0.086,-0.979,-0.221
15.677,-0.086,-0.977,-0.219
15.687,-0.084,-0.979,-0.225
15.697,-0.084,-0.977,-0.223
15.707,-0.080,-0.975,-0.221
15.716,-0.080,-0.979,-0.225
15.726,-0.074,-0.975,-0.227
15.736,-0.078,-0.975,-0.223
15.746,-0.078,-0.977,-0.225
15.756,-0.076,-0.975,-0.227
15.766,-0.078,-0.979,-0.223
15.776,-0.074,-0.979,-0.223
15.786,-0.078,-0.980,-0.229
15.796,-0.076,-0.979,-0.221
15.806,-0.082,-0.977,-0.219
15.816,-0.084,-0.979,-0.221
15.826,-0.082,-0.980,-0.225
15.836,-0.084,-0.980,-0.225
15.846,-0.084,-0.979,-0.219
15.855,-0.082,-0.979,-0.219
15.865,-0.080,-0.984,-0.225
15.875,-0.080,-0.984,-0.229
15.885,-0.078,-0.982,-0.221
15.895,-0.080,-0.982,-0.221
15.905,-0.078,-0.980,-0.225
15.915,-0.074,-0.979,-0.223
15.925,-0.074,-0.980,-0.221
15.935,-0.076,-0.979,-0.221
15.945,-0.072,-0.977,-0.223
15.955,-0.074,-0.980,-0.223
15.965,-0.072,-0.984,-0.225
15.975,-0.074,-0.980,-0.223
15.984,-0.078,-0.980,-0.219
15.994,-0.078,-0.982,-0.221
16.004,-0.078,-0.982,-0.221
16.014,-0.080,-0.980,-0.221
16.024,-0.078,-0.982,-0.225
16.034,-0.082,-0.982,-0.223
16.044,-0.078,-0.984,-0.227
16.054,-0.076,-0.979,-0.229
16.064,-0.074,-0.979,-0.225
16.074,-0.076,-0.979,-0.225
16.084,-0.082,-0.977,-0.225
16.094,-0.078,-0.977,-0.225
16.104,-0.074,-0.973,-0.230
16.114,-0.074,-0.971,-0.227
16.123,-0.074,-0.971,-0.225
16.133,-0.072,-0.971,-0.223
16.143,-0.076,-0.973,-0.223
16.153,-0.084,-0.975,-0.227
16.163,-0.088,-0.979,-0.227
16.173,-0.092,-0.979,-0.225
16.183,-0.090,-0.982,-0.225
16.193,-0.088,-0.979,-0.227
16.203,-0.086,-0.977,-0.225
16.213,-0.088,-0.979,-0.221
16.223,-0.086,-0.979,-0.219
16.233,-0.090,-0.977,-0.221
16.243,-0.086,-0.982,-0.223
16.252,-0.086,-0.977,-0.225
16.262,-0.084,-0.980,-0.227
16.272,-0.076,-0.979,-0.223
16.282,-0.074,-0.977,-0.229
16.292,-0.072,-0.979,-0.229
16.302,-0.076,-0.975,-0.223
16.312,-0.074,-0.975,-0.221
16.322,-0.078,-0.975,-0.227
16.332,-0.076,-0.979,-0.223
16.342,-0.076,-0.975,-0.223
16.352,-0.076,-0.977,-0.230
16.362,-0.078,-0.979,-0.221
16.372,-0.080,-0.977,-0.221
16.381,-0.078,-0.977,-0.223
16.391,-0.080,-0.980,-0.227
16.401,-0.080,-0.979,-0.225
16.411,-0.080,-0.980,-0.221
16.421,-0.074,-0.982,-0.223
16.431,-0.076,-0.982,-0.225
16.441,-0.074,-0.979,-0.223
16.451,-0.076,-0.979,-0.221
16.461,-0.076,-0.980,-0.221
16.471,-0.074,-0.977,-0.219
16.481,-0.072,-0.979,-0.223
16.491,-0.074,-0.977,-0.221
16.501,-0.072,-0.977,-0.227
16.511,-0.070,-0.979,-0.223
16.520,-0.072,-0.982,-0.223
16.530,-0.076,-0.980,-0.225
16.540,-0.078,-0.980,-0.223
16.550,-0.078,-0.980,-0.219
16.560,-0.080,-0.982,-0.219
16.570,-0.080,-0.979,-0.221
16.580,-0.078,-0.982,-0.221
16.590,-0.078,-0.980,-0.219
16.600,-0.078,-0.979,-0.225
16.610,-0.078,-0.979,-0.221
16.620,-0.076,-0.980,-0.225
16.630,-0.074,-0.979,-0.223
16.640,-0.078,-0.975,-0.225
16.649,-0.082,-0.977,-0.221
16.659,-0.080,-0.975,-0.223
16.669,-0.072,-0.977,-0.227
16.679,-0.074,-0.980,-0.225
16.689,-0.076,-0.977,-0.223
16.699,-0.076,-0.975,-0.223
16.709,-0.076,-0.975,-0.219
16.719,-0.084,-0.975,-0.221
16.729,-0.092,-0.979,-0.221
16.739,-0.090,-0.980,-0.227
16.749,-0.084,-0.982,-0.225
16.759,-0.082,-0.982,-0.229
16.769,-0.086,-0.980,-0.225
16.778,-0.084,-0.982,-0.227
16.788,-0.086,-0.975,-0.223
16.798,-0.086,-0.979,-0.221
16.808,-0.086,-0.980,-0.225
16.818,-0.082,-0.977,-0.221
16.828,-0.076,-0.980,-0.225
16.838,-0.072,-0.980,-0.225
16.848,-0.074,-0.977,-0.223
16.858,-0.074,-0.979,-0.225
16.868,-0.072,-0.980,-0.223
16.878,-0.076,-0.977,-0.225
16.888,-0.080,-0.975,-0.223
16.898,-0.080,-0.979,-0.225
16.908,-0.076,-0.979,-0.225
16.917,-0.076,-0.980,-0.229
16.927,-0.078,-0.982,-0.223
16.937,-0.080,-0.979,-0.221
16.947,-0.086,-0.977,-0.219
16.957,-0.084,-0.979,-0.225
16.967,-0.084,-0.979,-0.225
16.977,-0.076,-0.980,-0.225
16.987,-0.078,-0.977,-0.223
16.997,-0.076,-0.977,-0.225
17.007,-0.072,-0.979,-0.223
17.017,-0.074,-0.979,-0.227
17.027,-0.076,-0.979,-0.225
17.037,-0.076,-0.977,-0.225
17.046,-0.074,-0.979,-0.223
17.056,-0.072,-0.977,-0.221
17.066,-0.072,-0.977,-0.223
17.076,-0.074,-0.980,-0.221
17.086,-0.070,-0.979,-0.223
17.096,-0.076,-0.979,-0.227
17.106,-0.076,-0.979,-0.223
17.116,-0.078,-0.980,-0.227
17.126,-0.080,-0.980,-0.225
17.136,-0.078,-0.979,-0.221
17.146,-0.080,-0.979,-0.219
17.156,-0.080,-0.979,-0.221
17.166,-0.078,-0.980,-0.223
17.176,-0.078,-0.980,-0.225
17.185,-0.078,-0.980,-0.225
17.195,-0.080,-0.979,-0.223
17.205,-0.074,-0.980,-0.229
17.215,-0.076,-0.979,-0.229
17.225,-0.076,-0.977,-0.227
17.235,-0.076,-0.975,-0.227
17.245,-0.076,-0.973,-0.227
17.255,-0.076,-0.971,-0.225
17.265,-0.074,-0.969,-0.223
17.275,-0.074,-0.971,-0.223
17.285,-0.078,-0.971,-0.221
17.295,-0.084,-0.977,-0.225
17.305,-0.094,-0.980,-0.232
17.314,-0.088,-0.984,-0.227
17.324,-0.082,-0.980,-0.230
17.334,-0.082,-0.979,-0.227
17.344,-0.086,-0.979,-0.223
17.354,-0.084,-0.977,-0.219
17.364,-0.084,-0.977,-0.223
17.374,-0.082,-0.975,-0.221
17.384,-0.082,-0.975,-0.215
17.394,-0.084,-0.980,-0.219
17.404,-0.078,-0.980,-0.227
17.414,-0.074,-0.982,-0.227
17.424,-0.076,-0.984,-0.225
17.434,-0.072,-0.977,-0.225
17.443,-0.072,-0.973,-0.221
17.453,-0.076,-0.973,-0.225
17.463,-0.076,-0.975,-0.225
17.473,-0.074,-0.977,-0.219
17.483,-0.070,-0.979,-0.225
17.493,-0.072,-0.982,-0.227
17.503,-0.072,-0.977,-0.225
17.513,-0.076,-0.977,-0.219
17.523,-0.076,-0.979,-0.217
17.533,-0.078,-0.980,-0.221
17.543,-0.074,-0.980,-0.225
17.553,-0.076,-0.982,-0.225
17.563,-0.074,-0.982,-0.223
17.573,-0.072,-0.982,-0.225
17.582,-0.070,-0.984,-0.227
17.592,-0.074,-0.982,-0.223
17.602,-0.074,-0.984,-0.223
17.612,-0.074,-0.979,-0.219
17.622,-0.070,-0.979,-0.217
17.632,-0.072,-0.980,-0.223
17.642,-0.070,-0.979,-0.221
17.652,-0.070,-0.975,-0.223
17.662,-0.068,-0.975,-0.223
17.672,-0.066,-0.975,-0.217
17.682,-0.070,-0.977,-0.219
17.692,-0.074,-0.979,-0.223
17.702,-0.074,-0.980,-0.225
17.711,-0.078,-0.980,-0.223
17.721,-0.072,-0.980,-0.221
17.731,-0.074,-0.982,-0.221
17.741,-0.074,-0.984,-0.223
17.751,-0.076,-0.984,-0.230
17.761,-0.072,-0.979,-0.223
17.771,-0.072,-0.979,-0.217
17.781,-0.072,-0.984,-0.223
17.791,-0.076,-0.982,-0.232
17.801,-0.072,-0.979,-0.223
17.811,-0.070,-0.975,-0.221
17.821,-0.068,-0.971,-0.223
17.831,-0.066,-0.971,-0.223
17.841,-0.064,-0.973,-0.223
17.850,-0.070,-0.973,-0.225
17.860,-0.070,-0.975,-0.219
17.870,-0.076,-0.977,-0.221
17.880,-0.080,-0.982,-0.227
17.890,-0.080,-0.984,-0.229
17.900,-0.080,-0.980,-0.223
17.910,-0.078,-0.982,-0.223
17.920,-0.076,-0.982,-0.225
17.930,-0.074,-0.979,-0.217
17.940,-0.076,-0.980,-0.219
17.950,-0.076,-0.979,-0.221
17.960,-0.072,-0.979,-0.217
17.970,-0.072,-0.979,-0.217
17.979,-0.074,-0.982,-0.221
17.989,-0.068,-0.982,-0.223
17.999,-0.076,-0.979,-0.219
18.009,-0.070,-0.977,-0.219
18.019,-0.070,-0.977,-0.223
18.029,-0.070,-0.979,-0.229
18.039,-0.068,-0.979,-0.221
18.049,-0.066,-0.979,-0.219
18.059,-0.066,-0.977,-0.219
18.069,-0.064,-0.975,-0.219
18.079,-0.070,-0.975,-0.217
18.089,-0.072,-0.977,-0.211
18.099,-0.070,-0.982,-0.219
18.108,-0.074,-0.984,-0.223
18.118,-0.074,-0.984,-0.223
18.128,-0.074,-0.986,-0.217
18.138,-0.072,-0.986,-0.221
18.148,-0.070,-0.984,-0.219
18.158,-0.070,-0.986,-0.217
18.168,-0.068,-0.980,-0.217
18.178,-0.068,-0.982,-0.215
18.188,-0.066,-0.980,-0.217
18.198,-0.068,-0.980,-0.217
18.208,-0.068,-0.980,-0.217
18.218,-0.066,-0.982,-0.215
18.228,-0.070,-0.979,-0.215
18.238,-0.066,-0.982,-0.217
18.247,-0.068,-0.984,-0.221
18.257,-0.070,-0.984,-0.219
18.267,-0.072,-0.986,-0.215
18.277,-0.070,-0.984,-0.219
18.287,-0.072,-0.982,-0.217
18.297,-0.072,-0.982,-0.217
18.307,-0.074,-0.982,-0.215
18.317,-0.074,-0.980,-0.223
18.327,-0.074,-0.982,-0.217
18.337,-0.072,-0.982,-0.217
18.347,-0.076,-0.980,-0.223
18.357,-0.072,-0.980,-0.219
18.367,-0.076,-0.979,-0.217
18.376,-0.072,-0.975,-0.221
18.386,-0.072,-0.969,-0.219
18.396,-0.070,-0.971,-0.215
18.406,-0.068,-0.975,-0.219
18.416,-0.070,-0.977,-0.219
18.426,-0.078,-0.979,-0.219
18.436,-0.084,-0.980,-0.217
18.446,-0.086,-0.986,-0.225
18.456,-0.082,-0.988,-0.223
18.466,-0.082,-0.988,-0.223
18.476,-0.078,-0.980,-0.223
18.486,-0.078,-0.982,-0.219
18.496,-0.078,-0.980,-0.217
18.505,-0.076,-0.982,-0.221
18.515,-0.078,-0.980,-0.219
18.525,-0.082,-0.980,-0.225
18.535,-0.078,-0.977,-0.219
18.545,-0.078,-0.980,-0.217
18.555,-0.076,-0.979,-0.219
18.565,-0.074,-0.975,-0.215
18.575,-0.074,-0.977,-0.213
18.585,-0.076,-0.980,-0.221
18.595,-0.080,-0.984,-0.227
18.605,-0.078,-0.979,-0.221
18.615,-0.076,-0.977,-0.217
18.625,-0.072,-0.979,-0.221
18.635,-0.072,-0.979,-0.219
18.644,-0.078,-0.977,-0.213
18.654,-0.082,-0.982,-0.211
18.664,-0.078,-0.986,-0.219
18.674,-0.082,-0.988,-0.223
18.684,-0.080,-0.986,-0.223
18.694,-0.080,-0.984,-0.221
18.704,-0.074,-0.980,-0.221
18.714,-0.072,-0.980,-0.221
18.724,-0.074,-0.979,-0.217
18.734,-0.072,-0.979,-0.217
18.744,-0.072,-0.975,-0.217
18.754,-0.072,-0.979,-0.217
18.764,-0.072,-0.979,-0.219
18.773,-0.070,-0.979,-0.219
18.783,-0.072,-0.984,-0.225
18.793,-0.076,-0.982,-0.219
18.803,-0.070,-0.984,-0.217
18.813,-0.074,-0.980,-0.223
18.823,-0.076,-0.980,-0.219
18.833,-0.072,-0.980,-0.219
18.843,-0.072,-0.980,-0.221
18.853,-0.076,-0.979,-0.221
18.863,-0.076,-0.982,-0.223
18.873,-0.074,-0.984,-0.225
18.883,-0.080,-0.984,-0.227
18.893,-0.080,-0.982,-0.225
18.903,-0.082,-0.973,-0.223
18.912,-0.072,-0.971,-0.217
18.922,-0.074,-0.975,-0.221
18.932,-0.070,-0.973,-0.223
18.942,-0.070,-0.973,-0.223
18.952,-0.072,-0.973,-0.221
18.962,-0.080,-0.977,-0.217
18.972,-0.084,-0.979,-0.225
18.982,-0.088,-0.982,-0.227
18.992,-0.088,-0.984,-0.225
19.002,-0.086,-0.982,-0.223
19.012,-0.084,-0.980,-0.225
19.022,-0.086,-0.980,-0.223
19.032,-0.084,-0.979,-0.217
19.041,-0.084,-0.979,-0.217
19.051,-0.084,-0.977,-0.223
19.061,-0.088,-0.979,-0.223
19.071,-0.082,-0.979,-0.221
19.081,-0.082,-0.979,-0.225
19.091,-0.082,-0.980,-0.225
19.101,-0.080,-0.979,-0.225
19.111,-0.080,-0.975,-0.219
19.121,-0.082,-0.975,-0.225
19.131,-0.082,-0.975,-0.225
19.141,-0.080,-0.975,-0.221
19.151,-0.076,-0.975,-0.221
19.161,-0.078,-0.975,-0.225
19.170,-0.080,-0.975,-0.223
19.180,-0.084,-0.969,-0.215
19.190,-0.088,-0.975,-0.213
19.200,-0.088,-0.977,-0.225
19.210,-0.088,-0.984,-0.223
19.220,-0.090,-0.988,-0.225
19.230,-0.088,-0.986,-0.223
19.240,-0.084,-0.982,-0.227
19.250,-0.084,-0.980,-0.221
19.260,-0.082,-0.979,-0.217
19.270,-0.086,-0.980,-0.215
19.280,-0.082,-0.980,-0.219
19.290,-0.080,-0.979,-0.223
19.300,-0.074,-0.979,-0.221
19.309,-0.076,-0.979,-0.223
19.319,-0.076,-0.979,-0.223
19.329,-0.074,-0.980,-0.219
19.339,-0.074,-0.977,-0.223
19.349,-0.074,-0.979,-0.215
19.359,-0.076,-0.980,-0.215
19.369,-0.078,-0.980,-0.217
19.379,-0.076,-0.982,-0.223
19.389,-0.082,-0.984,-0.221
19.399,-0.078,-0.984,-0.223
19.409,-0.078,-0.980,-0.219
19.419,-0.080,-0.982,-0.225
19.429,-0.082,-0.982,-0.223
19.438,-0.082,-0.979,-0.223
19.448,-0.080,-0.975,-0.225
19.458,-0.076,-0.973,-0.223
19.468,-0.076,-0.975,-0.219
19.478,-0.074,-0.971,-0.217
19.488,-0.074,-0.969,-0.219
19.498,-0.078,-0.973,-0.215
19.508,-0.084,-0.977,-0.219
19.518,-0.086,-0.982,-0.225
19.528,-0.084,-0.982,-0.227
19.538,-0.080,-0.982,-0.225
19.548,-0.084,-0.982,-0.223
19.558,-0.082,-0.982,-0.223
19.568,-0.084,-0.979,-0.221
19.577,-0.082,-0.977,-0.223
19.587,-0.086,-0.975,-0.221
19.597,-0.084,-0.977,-0.215
19.607,-0.082,-0.980,-0.219
19.617,-0.078,-0.982,-0.223
19.627,-0.078,-0.982,-0.223
19.637,-0.074,-0.979,-0.223
19.647,-0.074,-0.979,-0.219
19.657,-0.076,-0.975,-0.217
19.667,-0.076,-0.975,-0.217
19.677,-0.076,-0.979,-0.219
19.687,-0.072,-0.979,-0.225
19.697,-0.076,-0.980,-0.223
19.706,-0.078,-0.977,-0.221
19.716,-0.076,-0.979,-0.215
19.726,-0.080,-0.980,-0.213
19.736,-0.082,-0.977,-0.221
19.746,-0.082,-0.982,-0.221
19.756,-0.082,-0.982,-0.221
19.766,-0.078,-0.984,-0.219
19.776,-0.080,-0.982,-0.221
19.786,-0.076,-0.982,-0.223
19.796,-0.082,-0.980,-0.219
19.806,-0.078,-0.980,-0.219
19.816,-0.076,-0.977,-0.217
19.826,-0.074,-0.977,-0.217
19.835,-0.076,-0.977,-0.221
19.845,-0.070,-0.979,-0.221
19.855,-0.074,-0.979,-0.221
19.865,-0.076,-0.982,-0.219
19.875,-0.078,-0.980,-0.223
19.885,-0.074,-0.980,-0.221
19.895,-0.078,-0.982,-0.221
19.905,-0.078,-0.979,-0.217
19.915,-0.078,-0.982,-0.219
19.925,-0.080,-0.982,-0.219
19.935,-0.076,-0.984,-0.223
19.945,-0.078,-0.980,-0.221
19.955,-0.082,-0.980,-0.221
19.965,-0.082,-0.979,-0.223
19.974,-0.084,-0.980,-0.223
19.984,-0.082,-0.977,-0.221
19.994,-0.082,-0.973,-0.223
20.004,-0.078,-0.975,-0.223
20.014,-0.082,-0.973,-0.227
20.024,-0.074,-0.973,-0.221
20.034,-0.076,-0.969,-0.221
20.044,-0.076,-0.971,-0.215
20.054,-0.086,-0.977,-0.219
20.064,-0.092,-0.980,-0.223
20.074,-0.088,-0.984,-0.229
20.084,-0.086,-0.986,-0.225
20.094,-0.086,-0.982,-0.225
20.103,-0.088,-0.982,-0.219
20.113,-0.086,-0.979,-0.217
20.123,-0.084,-0.980,-0.219
20.133,-0.084,-0.979,-0.219
20.143,-0.088,-0.982,-0.217
20.153,-0.086,-0.980,-0.219
20.163,-0.088,-0.982,-0.221
20.173,-0.078,-0.980,-0.221
20.183,-0.078,-0.975,-0.223
20.193,-0.076,-0.977,-0.219
20.203,-0.080,-0.975,-0.217
20.213,-0.080,-0.973,-0.219
20.223,-0.080,-0.975,-0.221
20.232,-0.084,-0.977,-0.225
20.242,-0.082,-0.977,-0.223
20.252,-0.078,-0.979,-0.223
20.262,-0.080,-0.979,-0.223
20.272,-0.082,-0.979,-0.215
20.282,-0.084,-0.977,-0.217
20.292,-0.082,-0.982,-0.219
20.302,-0.082,-0.984,-0.219
20.312,-0.078,-0.982,-0.219
20.322,-0.078,-0.982,-0.221
20.332,-0.076,-0.980,-0.221
20.342,-0.074,-0.982,-0.223
20.352,-0.080,-0.980,-0.217
20.362,-0.080,-0.977,-0.221
20.371,-0.076,-0.977,-0.217
20.381,-0.074,-0.977,-0.221
20.391,-0.074,-0.977,-0.219
20.401,-0.074,-0.979,-0.219
20.411,-0.072,-0.979,-0.221
20.421,-0.078,-0.982,-0.221
20.431,-0.076,-0.984,-0.221
20.441,-0.076,-0.980,-0.221
20.451,-0.076,-0.980,-0.221
20.461,-0.078,-0.980,-0.217
20.471,-0.076,-0.980,-0.219
20.481,-0.076,-0.984,-0.223
20.491,-0.076,-0.984,-0.221
20.500,-0.080,-0.984,-0.221
20.510,-0.080,-0.979,-0.225
20.520,-0.082,-0.982,-0.221
20.530,-0.080,-0.979,-0.225
20.540,-0.080,-0.977,-0.223
20.550,-0.076,-0.977,-0.217
20.560,-0.076,-0.973,-0.221
20.570,-0.074,-0.971,-0.223
20.580,-0.074,-0.971,-0.223
20.590,-0.074,-0.973,-0.221
20.600,-0.080,-0.977,-0.223
20.610,-0.090,-0.977,-0.225
20.620,-0.088,-0.982,-0.223
20.630,-0.088,-0.986,-0.225
20.639,-0.084,-0.980,-0.227
20.649,-0.086,-0.980,-0.219
20.659,-0.088,-0.979,-0.221
20.669,-0.086,-0.977,-0.225
20.679,-0.088,-0.979,-0.217
20.689,-0.090,-0.979,-0.217
20.699,-0.090,-0.979,-0.221
20.709,-0.084,-0.982,-0.223
20.719,-0.082,-0.980,-0.223
20.729,-0.078,-0.980,-0.221
20.739,-0.076,-0.977,-0.225
20.749,-0.078,-0.973,-0.219
20.759,-0.078,-0.973,-0.219
20.768,-0.078,-0.973,-0.225
20.778,-0.080,-0.975,-0.219
20.788,-0.076,-0.979,-0.219
20.798,-0.080,-0.982,-0.227
20.808,-0.080,-0.979,-0.223
20.818,-0.084,-0.979,-0.213
20.828,-0.088,-0.980,-0.215
20.838,-0.084,-0.984,-0.219
20.848,-0.088,-0.979,-0.219
20.858,-0.084,-0.984,-0.215
20.868,-0.080,-0.980,-0.221
20.878,-0.078,-0.982,-0.221
20.888,-0.080,-0.982,-0.217
20.897,-0.080,-0.977,-0.217
20.907,-0.078,-0.977,-0.217
20.917,-0.078,-0.980,-0.221
20.927,-0.080,-0.979,-0.217
20.937,-0.074,-0.979,-0.215
20.947,-0.074,-0.977,-0.217
20.957,-0.072,-0.979,-0.217
20.967,-0.076,-0.979,-0.219
20.977,-0.080,-0.980,-0.223
20.987,-0.080,-0.982,-0.219
20.997,-0.078,-0.982,-0.223
21.007,-0.080,-0.980,-0.217
21.017,-0.078,-0.984,-0.217
21.027,-0.080,-0.982,-0.217
21.036,-0.080,-0.982,-0.215
21.046,-0.080,-0.980,-0.217
21.056,-0.080,-0.982,-0.219
21.066,-0.076,-0.980,-0.217
21.076,-0.080,-0.982,-0.225
21.086,-0.082,-0.982,-0.225
21.096,-0.078,-0.979,-0.221
21.106,-0.076,-0.975,-0.223
21.116,-0.074,-0.975,-0.219
21.126,-0.078,-0.975,-0.219
21.136,-0.074,-0.971,-0.219
21.146,-0.072,-0.971,-0.215
21.156,-0.086,-0.973,-0.219
21.165,-0.094,-0.979,-0.221
21.175,-0.094,-0.984,-0.223
21.185,-0.092,-0.984,-0.223
21.195,-0.086,-0.984,-0.225
21.205,-0.090,-0.982,-0.221
21.215,-0.088,-0.980,-0.221
21.225,-0.084,-0.975,-0.217
21.235,-0.084,-0.977,-0.217
21.245,-0.086,-0.980,-0.219
21.255,-0.080,-0.979,-0.225
21.265,-0.080,-0.979,-0.221
21.275,-0.080,-0.980,-0.221
21.285,-0.074,-0.977,-0.223
21.295,-0.072,-0.979,-0.219
21.304,-0.074,-0.975,-0.221
21.314,-0.076,-0.975,-0.219
21.324,-0.078,-0.969,-0.225
21.334,-0.076,-0.975,-0.217
21.344,-0.074,-0.977,-0.223
21.354,-0.076,-0.980,-0.223
21.364,-0.080,-0.980,-0.217
21.374,-0.082,-0.982,-0.219
21.384,-0.082,-0.980,-0.217
21.394,-0.078,-0.982,-0.221
21.404,-0.076,-0.984,-0.221
21.414,-0.080,-0.982,-0.219
21.424,-0.076,-0.984,-0.221
21.433,-0.072,-0.986,-0.221
21.443,-0.074,-0.977,-0.221
21.453,-0.072,-0.979,-0.213
21.463,-0.076,-0.979,-0.215
21.473,-0.072,-0.980,-0.221
21.483,-0.068,-0.980,-0.219
21.493,-0.066,-0.979,-0.219
21.503,-0.068,-0.977,-0.215
21.513,-0.070,-0.980,-0.217
21.523,-0.072,-0.984,-0.223
21.533,-0.072,-0.986,-0.219
21.543,-0.074,-0.982,-0.219
21.553,-0.078,-0.984,-0.215
21.562,-0.080,-0.984,-0.215
21.572,-0.076,-0.982,-0.217
21.582,-0.076,-0.984,-0.217
21.592,-0.076,-0.984,-0.217
21.602,-0.074,-0.980,-0.219
21.612,-0.078,-0.979,-0.209
21.622,-0.074,-0.980,-0.219
21.632,-0.074,-0.980,-0.223
21.642,-0.076,-0.977,-0.215
21.652,-0.072,-0.973,-0.221
21.662,-0.068,-0.971,-0.215
21.672,-0.070,-0.980,-0.215
21.682,-0.072,-0.977,-0.217
21.692,-0.072,-0.975,-0.213
21.701,-0.078,-0.977,-0.209
21.711,-0.084,-0.988,-0.223
21.721,-0.080,-0.988,-0.223
21.731,-0.080,-0.986,-0.215
21.741,-0.078,-0.986,-0.223
21.751,-0.074,-0.980,-0.223
21.761,-0.072,-0.979,-0.215
21.771,-0.074,-0.982,-0.217
21.781,-0.076,-0.980,-0.215
21.791,-0.082,-0.979,-0.215
21.801,-0.080,-0.980,-0.219
21.811,-0.078,-0.977,-0.219
21.821,-0.076,-0.979,-0.221
21.830,-0.074,-0.975,-0.219
21.840,-0.072,-0.975,-0.217
21.850,-0.072,-0.979,-0.217
21.860,-0.076,-0.973,-0.219
21.870,-0.076,-0.980,-0.219
21.880,-0.074,-0.975,-0.223
21.890,-0.072,-0.975,-0.217
21.900,-0.070,-0.977,-0.221
21.910,-0.072,-0.979,-0.217
21.920,-0.074,-0.980,-0.215
21.930,-0.072,-0.982,-0.219
21.940,-0.074,-0.986,-0.223
21.950,-0.078,-0.984,-0.221
21.959,-0.074,-0.982,-0.217
21.969,-0.072,-0.982,-0.219
21.979,-0.068,-0.980,-0.221
21.989,-0.072,-0.982,-0.215
21.999,-0.072,-0.982,-0.215
22.009,-0.072,-0.980,-0.215
22.019,-0.070,-0.982,-0.219
22.029,-0.070,-0.979,-0.221
22.039,-0.068,-0.979,-0.215
22.049,-0.068,-0.980,-0.215
22.059,-0.066,-0.980,-0.219
22.069,-0.066,-0.982,-0.219
22.079,-0.066,-0.984,-0.219
22.089,-0.068,-0.979,-0.215
22.098,-0.068,-0.979,-0.215
22.108,-0.072,-0.980,-0.217
22.118,-0.072,-0.980,-0.215
22.128,-0.074,-0.980,-0.213
22.138,-0.072,-0.982,-0.213
22.148,-0.070,-0.982,-0.219
22.158,-0.072,-0.984,-0.225
22.168,-0.070,-0.980,-0.219
22.178,-0.070,-0.984,-0.215
22.188,-0.070,-0.979,-0.223
22.198,-0.066,-0.973,-0.217
22.208,-0.068,-0.977,-0.217
22.218,-0.066,-0.975,-0.219
22.227,-0.068,-0.979,-0.215
22.237,-0.074,-0.979,-0.215
22.247,-0.076,-0.977,-0.217
22.257,-0.082,-0.982,-0.223
22.267,-0.080,-0.982,-0.225
22.277,-0.078,-0.980,-0.221
22.287,-0.078,-0.980,-0.219
22.297,-0.080,-0.977,-0.215
22.307,-0.078,-0.980,-0.217
22.317,-0.078,-0.982,-0.221
22.327,-0.078,-0.982,-0.217
22.337,-0.082,-0.979,-0.215
22.347,-0.080,-0.980,-0.217
22.357,-0.078,-0.979,-0.219
22.366,-0.078,-0.979,-0.217
22.376,-0.076,-0.977,-0.217
22.386,-0.076,-0.982,-0.215
22.396,-0.076,-0.979,-0.223
22.406,-0.076,-0.979,-0.225
22.416,-0.076,-0.977,-0.221
22.426,-0.078,-0.979,-0.211
22.436,-0.076,-0.977,-0.215
22.446,-0.076,-0.975,-0.217
22.456,-0.086,-0.975,-0.213
22.466,-0.088,-0.977,-0.209
22.476,-0.086,-0.982,-0.219
22.486,-0.088,-0.984,-0.221
22.495,-0.086,-0.986,-0.219
22.505,-0.086,-0.984,-0.215
22.515,-0.082,-0.980,-0.215
22.525,-0.082,-0.979,-0.213
22.535,-0.080,-0.980,-0.211
22.545,-0.080,-0.979,-0.213
22.555,-0.076,-0.979,-0.215
22.565,-0.076,-0.977,-0.213
22.575,-0.074,-0.980,-0.215
22.585,-0.072,-0.980,-0.217
22.595,-0.074,-0.982,-0.215
22.605,-0.076,-0.980,-0.215
22.615,-0.074,-0.982,-0.213
22.624,-0.072,-0.982,-0.215
22.634,-0.076,-0.984,-0.215
22.644,-0.078,-0.982,-0.219
22.654,-0.080,-0.984,-0.213
22.664,-0.076,-0.984,-0.215
22.674,-0.080,-0.984,-0.215
22.684,-0.078,-0.986,-0.219
22.694,-0.078,-0.982,-0.219
22.704,-0.080,-0.982,-0.215
22.714,-0.080,-0.975,-0.215
22.724,-0.074,-0.969,-0.213
22.734,-0.072,-0.975,-0.211
22.744,-0.070,-0.977,-0.215
22.754,-0.072,-0.979,-0.217
22.763,-0.078,-0.979,-0.219
22.773,-0.080,-0.980,-0.217
22.783,-0.080,-0.984,-0.223
22.793,-0.080,-0.984,-0.223
22.803,-0.082,-0.984,-0.219
22.813,-0.080,-0.982,-0.219
22.823,-0.082,-0.980,-0.217
22.833,-0.080,-0.980,-0.213
22.843,-0.082,-0.980,-0.213
22.853,-0.084,-0.979,-0.217
22.863,-0.084,-0.979,-0.217
22.873,-0.084,-0.979,-0.219
22.883,-0.080,-0.980,-0.217
22.892,-0.082,-0.977,-0.219
22.902,-0.080,-0.979,-0.215
22.912,-0.076,-0.979,-0.215
22.922,-0.076,-0.975,-0.217
22.932,-0.080,-0.977,-0.221
22.942,-0.078,-0.979,-0.221
22.952,-0.072,-0.973,-0.219
22.962,-0.074,-0.980,-0.221
22.972,-0.074,-0.979,-0.215
22.982,-0.082,-0.980,-0.213
22.992,-0.086,-0.980,-0.213
23.002,-0.080,-0.984,-0.219
23.012,-0.084,-0.986,-0.221
23.022,-0.086,-0.984,-0.221
23.031,-0.082,-0.988,-0.215
23.041,-0.076,-0.982,-0.217
23.051,-0.078,-0.982,-0.217
23.061,-0.080,-0.980,-0.217
23.071,-0.078,-0.982,-0.217
23.081,-0.078,-0.979,-0.217
23.091,-0.074,-0.979,-0.215
23.101,-0.074,-0.980,-0.219
23.111,-0.076,-0.977,-0.215
23.121,-0.076,-0.977,-0.217
23.131,-0.078,-0.979,-0.219
23.141,-0.074,-0.979,-0.217
23.151,-0.076,-0.982,-0.219
23.160,-0.078,-0.980,-0.215
23.170,-0.076,-0.984,-0.219
23.180,-0.076,-0.982,-0.223
23.190,-0.080,-0.982,-0.221
23.200,-0.080,-0.977,-0.215
23.210,-0.076,-0.979,-0.215
23.220,-0.082,-0.982,-0.225
23.230,-0.084,-0.982,-0.227
23.240,-0.080,-0.979,-0.217
23.250,-0.082,-0.975,-0.223
23.260,-0.076,-0.975,-0.221
23.270,-0.076,-0.971,-0.219
23.280,-0.076,-0.971,-0.215
23.289,-0.080,-0.971,-0.219
23.299,-0.084,-0.973,-0.215
23.309,-0.090,-0.977,-0.213
23.319,-0.092,-0.982,-0.223
23.329,-0.088,-0.984,-0.223
23.339,-0.088,-0.984,-0.227
23.349,-0.090,-0.984,-0.219
23.359,-0.090,-0.980,-0.215
23.369,-0.088,-0.979,-0.211
23.379,-0.088,-0.982,-0.217
23.389,-0.086,-0.984,-0.219
23.399,-0.086,-0.980,-0.221
23.409,-0.084,-0.980,-0.219
23.419,-0.082,-0.980,-0.217
23.428,-0.076,-0.977,-0.219
23.438,-0.080,-0.977,-0.217
23.448,-0.082,-0.979,-0.217
23.458,-0.080,-0.977,-0.213
23.468,-0.084,-0.977,-0.215
23.478,-0.080,-0.979,-0.219
23.488,-0.078,-0.977,-0.215
23.498,-0.078,-0.979,-0.219
23.508,-0.076,-0.980,-0.217
23.518,-0.082,-0.977,-0.217
23.528,-0.082,-0.980,-0.215
23.538,-0.084,-0.980,-0.217
23.548,-0.082,-0.984,-0.219
23.557,-0.080,-0.980,-0.215
23.567,-0.080,-0.982,-0.217
23.577,-0.076,-0.982,-0.215
23.587,-0.080,-0.984,-0.217
23.597,-0.082,-0.982,-0.221
23.607,-0.082,-0.984,-0.219
23.617,-0.080,-0.979,-0.219
23.627,-0.080,-0.975,-0.215
23.637,-0.078,-0.975,-0.213
23.647,-0.072,-0.980,-0.215
23.657,-0.072,-0.977,-0.217
23.667,-0.074,-0.980,-0.215
23.677,-0.076,-0.982,-0.217
23.686,-0.076,-0.982,-0.219
23.696,-0.076,-0.982,-0.221
23.706,-0.078,-0.980,-0.215
23.716,-0.076,-0.982,-0.213
23.726,-0.078,-0.984,-0.219
23.736,-0.082,-0.982,-0.217
23.746,-0.078,-0.982,-0.221
23.756,-0.078,-0.982,-0.221
23.766,-0.078,-0.982,-0.217
23.776,-0.080,-0.986,-0.215
23.786,-0.076,-0.984,-0.223
23.796,-0.082,-0.980,-0.221
23.806,-0.080,-0.977,-0.213
23.816,-0.078,-0.969,-0.217
23.825,-0.074,-0.975,-0.219
23.835,-0.072,-0.977,-0.221
23.845,-0.076,-0.977,-0.217
23.855,-0.080,-0.977,-0.217
23.865,-0.086,-0.979,-0.217
23.875,-0.092,-0.982,-0.219
23.885,-0.092,-0.982,-0.217
23.895,-0.088,-0.984,-0.221
23.905,-0.088,-0.982,-0.221
23.915,-0.086,-0.979,-0.217
23.925,-0.086,-0.977,-0.211
23.935,-0.084,-0.977,-0.213
23.945,-0.082,-0.982,-0.215
23.954,-0.084,-0.984,-0.217
23.964,-0.082,-0.980,-0.219
23.974,-0.082,-0.980,-0.219
23.984,-0.084,-0.980,-0.215
23.994,-0.080,-0.980,-0.219
24.004,-0.080,-0.977,-0.219
24.014,-0.080,-0.979,-0.217
24.024,-0.082,-0.977,-0.217
24.034,-0.084,-0.980,-0.221
24.044,-0.084,-0.980,-0.223
24.054,-0.078,-0.979,-0.217
24.064,-0.078,-0.975,-0.215
24.074,-0.080,-0.979,-0.217
24.084,-0.084,-0.979,-0.217
24.093,-0.086,-0.980,-0.219
24.103,-0.088,-0.980,-0.217
24.113,-0.088,-0.980,-0.213
24.123,-0.084,-0.980,-0.217
24.133,-0.084,-0.979,-0.219
24.143,-0.082,-0.980,-0.217
24.153,-0.082,-0.982,-0.217
24.163,-0.080,-0.979,-0.217
24.173,-0.084,-0.982,-0.217
24.183,-0.088,-0.980,-0.217
24.193,-0.082,-0.980,-0.219
24.203,-0.080,-0.980,-0.213
24.213,-0.082,-0.980,-0.217
24.222,-0.082,-0.979,-0.219
24.232,-0.080,-0.975,-0.221
24.242,-0.082,-0.980,-0.219
24.252,-0.084,-0.979,-0.219
24.262,-0.082,-0.977,-0.219
24.272,-0.082,-0.980,-0.219
24.282,-0.084,-0.979,-0.217
24.292,-0.084,-0.979,-0.215
24.302,-0.084,-0.980,-0.217
24.312,-0.086,-0.982,-0.225
24.322,-0.086,-0.980,-0.221
24.332,-0.086,-0.980,-0.219
24.342,-0.088,-0.980,-0.213
24.351,-0.084,-0.980,-0.217
24.361,-0.084,-0.980,-0.223
24.371,-0.084,-0.980,-0.221
24.381,-0.084,-0.980,-0.219
24.391,-0.082,-0.979,-0.221
24.401,-0.082,-0.979,-0.225
24.411,-0.088,-0.980,-0.225
24.421,-0.090,-0.975,-0.217
24.431,-0.086,-0.977,-0.221
24.441,-0.088,-0.975,-0.223
24.451,-0.084,-0.975,-0.221
24.461,-0.086,-0.973,-0.219
24.471,-0.084,-0.973,-0.219
24.481,-0.088,-0.975,-0.221
24.490,-0.098,-0.977,-0.219
24.500,-0.102,-0.980,-0.221
24.510,-0.100,-0.980,-0.219
24.520,-0.092,-0.980,-0.223
24.530,-0.088,-0.982,-0.221
24.540,-0.092,-0.980,-0.219
24.550,-0.090,-0.977,-0.215
24.560,-0.092,-0.977,-0.215
24.570,-0.092,-0.980,-0.219
24.580,-0.090,-0.980,-0.219
24.590,-0.084,-0.979,-0.221
24.600,-0.082,-0.980,-0.223
24.610,-0.080,-0.982,-0.225
24.619,-0.080,-0.979,-0.223
24.629,-0.080,-0.977,-0.217
24.639,-0.080,-0.979,-0.219
24.649,-0.084,-0.975,-0.219
24.659,-0.086,-0.977,-0.219
24.669,-0.088,-0.977,-0.219
24.679,-0.084,-0.979,-0.219
24.689,-0.082,-0.979,-0.225
24.699,-0.084,-0.975,-0.223
24.709,-0.088,-0.979,-0.217
24.719,-0.092,-0.977,-0.217
24.729,-0.086,-0.979,-0.219
24.739,-0.088,-0.979,-0.221
24.749,-0.088,-0.980,-0.219
24.758,-0.082,-0.979,-0.215
24.768,-0.080,-0.982,-0.217
24.778,-0.080,-0.982,-0.223
24.788,-0.082,-0.982,-0.221
24.798,-0.084,-0.980,-0.217
24.808,-0.088,-0.979,-0.219
24.818,-0.088,-0.979,-0.219
24.828,-0.086,-0.980,-0.221
24.838,-0.082,-0.979,-0.219
24.848,-0.086,-0.980,-0.219
24.858,-0.086,-0.982,-0.219
24.868,-0.086,-0.980,-0.217
24.878,-0.086,-0.980,-0.217
24.887,-0.088,-0.979,-0.219
24.897,-0.088,-0.977,-0.217
24.907,-0.088,-0.979,-0.217
24.917,-0.086,-0.977,-0.221
24.927,-0.086,-0.977,-0.215
24.937,-0.086,-0.980,-0.217
24.947,-0.086,-0.979,-0.221
24.957,-0.086,-0.979,-0.221
24.967,-0.084,-0.979,-0.219
24.977,-0.084,-0.980,-0.219
24.987,-0.082,-0.980,-0.225
24.997,-0.086,-0.982,-0.223
25.007,-0.086,-0.980,-0.223
25.016,-0.088,-0.982,-0.219
25.026,-0.088,-0.982,-0.221
25.036,-0.088,-0.980,-0.219
25.046,-0.086,-0.982,-0.221
25.056,-0.086,-0.982,-0.221
25.066,-0.088,-0.979,-0.221
25.076,-0.090,-0.977,-0.223
25.086,-0.086,-0.975,-0.219
25.096,-0.086,-0.979,-0.225
25.106,-0.086,-0.973,-0.219
25.116,-0.088,-0.969,-0.221
25.126,-0.084,-0.971,-0.221
25.136,-0.084,-0.969,-0.221
25.146,-0.078,-0.967,-0.217
25.155,-0.078,-0.969,-0.217
25.165,-0.082,-0.977,-0.219
25.175,-0.094,-0.982,-0.221
25.185,-0.090,-0.984,-0.223
25.195,-0.092,-0.984,-0.225
25.205,-0.088,-0.984,-0.225
25.215,-0.084,-0.986,-0.219
25.225,-0.086,-0.984,-0.219
25.235,-0.084,-0.979,-0.219
25.245,-0.082,-0.980,-0.213
25.255,-0.082,-0.980,-0.219
25.265,-0.084,-0.986,-0.223
25.275,-0.082,-0.982,-0.219
25.284,-0.080,-0.984,-0.223
25.294,-0.080,-0.979,-0.221
25.304,-0.076,-0.975,-0.219
25.314,-0.076,-0.977,-0.215
25.324,-0.078,-0.977,-0.215
25.334,-0.082,-0.979,-0.221
25.344,-0.090,-0.982,-0.223
25.354,-0.086,-0.979,-0.225
25.364,-0.080,-0.977,-0.221
25.374,-0.078,-0.980,-0.225
25.384,-0.078,-0.982,-0.221
25.394,-0.078,-0.977,-0.217
25.404,-0.082,-0.977,-0.213
25.413,-0.086,-0.979,-0.223
25.423,-0.082,-0.980,-0.227
25.433,-0.082,-0.975,-0.213
25.443,-0.080,-0.975,-0.213
25.453,-0.074,-0.979,-0.221
25.463,-0.072,-0.979,-0.223
25.473,-0.080,-0.979,-0.217
25.483,-0.078,-0.980,-0.221
25.493,-0.078,-0.977,-0.221
25.503,-0.076,-0.980,-0.225
25.513,-0.076,-0.980,-0.221
25.523,-0.072,-0.977,-0.219
25.533,-0.072,-0.979,-0.217
25.543,-0.072,-0.984,-0.221
25.552,-0.076,-0.982,-0.223
25.562,-0.074,-0.980,-0.223
25.572,-0.074,-0.977,-0.219
25.582,-0.074,-0.977,-0.217
25.592,-0.078,-0.977,-0.219
25.602,-0.074,-0.980,-0.223
25.612,-0.074,-0.980,-0.221
25.622,-0.076,-0.980,-0.219
25.632,-0.076,-0.979,-0.221
25.642,-0.072,-0.977,-0.223
25.652,-0.068,-0.975,-0.219
25.662,-0.072,-0.977,-0.217
25.672,-0.076,-0.979,-0.217
25.681,-0.076,-0.980,-0.221
25.691,-0.078,-0.986,-0.221
25.701,-0.076,-0.986,-0.225
25.711,-0.078,-0.986,-0.221
25.721,-0.078,-0.984,-0.217
25.731,-0.074,-0.980,-0.215
25.741,-0.076,-0.986,-0.217
25.751,-0.076,-0.982,-0.219
25.761,-0.078,-0.982,-0.217
25.771,-0.074,-0.977,-0.217
25.781,-0.072,-0.975,-0.217
25.791,-0.072,-0.977,-0.223
25.801,-0.072,-0.973,-0.217
25.811,-0.072,-0.977,-0.221
25.820,-0.072,-0.977,-0.221
25.830,-0.072,-0.975,-0.213
25.840,-0.074,-0.977,-0.219
25.850,-0.072,-0.977,-0.213
25.860,-0.068,-0.975,-0.211
25.870,-0.074,-0.977,-0.211
25.880,-0.076,-0.986,-0.219
25.890,-0.076,-0.982,-0.225
25.900,-0.074,-0.982,-0.221
25.910,-0.072,-0.984,-0.219
25.920,-0.070,-0.984,-0.219
25.930,-0.070,-0.988,-0.219
25.940,-0.072,-0.982,-0.217
25.949,-0.068,-0.980,-0.211
25.959,-0.066,-0.982,-0.209
25.969,-0.070,-0.984,-0.211
25.979,-0.070,-0.984,-0.217
25.989,-0.070,-0.984,-0.215
25.999,-0.072,-0.979,-0.217
26.009,-0.072,-0.979,-0.209
26.019,-0.072,-0.980,-0.211
26.029,-0.072,-0.980,-0.211
26.039,-0.072,-0.982,-0.217
26.049,-0.074,-0.980,-0.217
26.059,-0.070,-0.982,-0.215
26.069,-0.072,-0.980,-0.213
26.078,-0.068,-0.980,-0.213
26.088,-0.070,-0.977,-0.211
26.098,-0.076,-0.977,-0.209
26.108,-0.076,-0.984,-0.213
26.118,-0.074,-0.986,-0.221
26.128,-0.074,-0.986,-0.221
26.138,-0.074,-0.982,-0.211
26.148,-0.072,-0.982,-0.215
26.158,-0.068,-0.984,-0.217
26.168,-0.068,-0.982,-0.217
26.178,-0.070,-0.982,-0.215
26.188,-0.070,-0.982,-0.215
26.198,-0.068,-0.979,-0.215
26.208,-0.068,-0.980,-0.217
26.217,-0.070,-0.979,-0.217
26.227,-0.070,-0.979,-0.213
26.237,-0.070,-0.979,-0.217
26.247,-0.070,-0.982,-0.217
26.257,-0.076,-0.980,-0.217
26.267,-0.074,-0.982,-0.215
26.277,-0.072,-0.979,-0.219
26.287,-0.074,-0.980,-0.215
26.297,-0.078,-0.980,-0.219
26.307,-0.076,-0.980,-0.219
26.317,-0.078,-0.979,-0.215
26.327,-0.080,-0.980,-0.213
26.337,-0.078,-0.990,-0.223
26.346,-0.078,-0.979,-0.223
26.356,-0.078,-0.979,-0.213
26.366,-0.076,-0.979,-0.213
26.376,-0.074,-0.979,-0.221
26.386,-0.070,-0.982,-0.217
26.396,-0.076,-0.979,-0.219
26.406,-0.078,-0.979,-0.213
26.416,-0.076,-0.980,-0.217
26.426,-0.078,-0.980,-0.223
26.436,-0.078,-0.977,-0.217
26.446,-0.082,-0.975,-0.211
26.456,-0.080,-0.979,-0.217
26.466,-0.076,-0.975,-0.217
26.476,-0.080,-0.977,-0.213
26.485,-0.078,-0.980,-0.217
26.495,-0.076,-0.982,-0.223
26.505,-0.080,-0.980,-0.217
26.515,-0.086,-0.984,-0.215
26.525,-0.092,-0.984,-0.219
26.535,-0.090,-0.984,-0.223
26.545,-0.088,-0.982,-0.225
26.555,-0.084,-0.984,-0.223
26.565,-0.082,-0.982,-0.223
26.575,-0.082,-0.982,-0.221
26.585,-0.084,-0.980,-0.221
26.595,-0.088,-0.980,-0.221
26.605,-0.090,-0.975,-0.219
26.614,-0.092,-0.977,-0.217
26.624,-0.092,-0.979,-0.221
26.634,-0.092,-0.979,-0.223
26.644,-0.092,-0.977,-0.223
26.654,-0.092,-0.971,-0.221
26.664,-0.094,-0.975,-0.219
26.674,-0.096,-0.979,-0.221
26.684,-0.102,-0.977,-0.227
26.694,-0.098,-0.973,-0.227
26.704,-0.096,-0.980,-0.225
26.714,-0.094,-0.975,-0.227
26.724,-0.096,-0.977,-0.225
26.734,-0.096,-0.973,-0.225
26.743,-0.100,-0.977,-0.217
26.753,-0.102,-0.975,-0.221
26.763,-0.102,-0.979,-0.225
26.773,-0.104,-0.982,-0.230
26.783,-0.104,-0.982,-0.225
26.793,-0.100,-0.982,-0.227
26.803,-0.102,-0.979,-0.229
26.813,-0.100,-0.975,-0.229
26.823,-0.102,-0.973,-0.223
26.833,-0.104,-0.975,-0.225
26.843,-0.100,-0.975,-0.223
26.853,-0.102,-0.975,-0.225
26.863,-0.102,-0.975,-0.225
26.873,-0.100,-0.975,-0.227
26.882,-0.102,-0.973,-0.227
26.892,-0.102,-0.973,-0.225
26.902,-0.104,-0.973,-0.227
26.912,-0.105,-0.969,-0.225
26.922,-0.107,-0.975,-0.225
26.932,-0.109,-0.977,-0.227
26.942,-0.111,-0.977,-0.227
26.952,-0.113,-0.979,-0.225
26.962,-0.111,-0.979,-0.227
26.972,-0.113,-0.975,-0.221
26.982,-0.111,-0.977,-0.221
26.992,-0.107,-0.980,-0.230
27.002,-0.107,-0.982,-0.230
27.011,-0.109,-0.980,-0.227
27.021,-0.109,-0.979,-0.230
27.031,-0.107,-0.979,-0.234
27.041,-0.107,-0.973,-0.229
27.051,-0.111,-0.969,-0.225
27.061,-0.111,-0.967,-0.229
27.071,-0.109,-0.961,-0.227
27.081,-0.113,-0.963,-0.225
27.091,-0.113,-0.965,-0.229
27.101,-0.109,-0.971,-0.234
27.111,-0.109,-0.967,-0.229
27.121,-0.117,-0.967,-0.225
27.131,-0.121,-0.971,-0.227
27.140,-0.123,-0.973,-0.227
27.150,-0.125,-0.973,-0.225
27.160,-0.119,-0.979,-0.229
27.170,-0.117,-0.979,-0.230
27.180,-0.117,-0.979,-0.229
27.190,-0.115,-0.979,-0.225
27.200,-0.111,-0.977,-0.229
27.210,-0.111,-0.977,-0.225
27.220,-0.113,-0.975,-0.225
27.230,-0.105,-0.977,-0.229
27.240,-0.104,-0.980,-0.230
27.250,-0.105,-0.980,-0.230
27.260,-0.105,-0.982,-0.227
27.270,-0.104,-0.979,-0.227
27.279,-0.104,-0.973,-0.225
27.289,-0.104,-0.971,-0.221
27.299,-0.109,-0.969,-0.225
27.309,-0.109,-0.973,-0.229
27.319,-0.107,-0.975,-0.227
27.329,-0.107,-0.975,-0.227
27.339,-0.105,-0.975,-0.227
27.349,-0.107,-0.977,-0.221
27.359,-0.113,-0.971,-0.221
27.369,-0.111,-0.971,-0.225
27.379,-0.113,-0.975,-0.225
27.389,-0.113,-0.980,-0.227
27.399,-0.109,-0.977,-0.227
27.408,-0.107,-0.977,-0.227
27.418,-0.107,-0.977,-0.229
27.428,-0.107,-0.977,-0.225
27.438,-0.107,-0.975,-0.229
27.448,-0.105,-0.977,-0.227
27.458,-0.105,-0.977,-0.229
27.468,-0.105,-0.977,-0.227
27.478,-0.104,-0.977,-0.225
27.488,-0.104,-0.975,-0.229
27.498,-0.104,-0.973,-0.227
27.508,-0.102,-0.973,-0.227
27.518,-0.104,-0.975,-0.227
27.528,-0.105,-0.971,-0.227
27.538,-0.107,-0.973,-0.227
27.547,-0.109,-0.979,-0.225
27.557,-0.111,-0.977,-0.225
27.567,-0.113,-0.977,-0.221
27.577,-0.109,-0.977,-0.221
27.587,-0.111,-0.980,-0.229
27.597,-0.109,-0.979,-0.227
27.607,-0.107,-0.980,-0.227
27.617,-0.104,-0.979,-0.229
27.627,-0.107,-0.975,-0.227
27.637,-0.104,-0.973,-0.229
27.647,-0.105,-0.977,-0.230
27.657,-0.105,-0.973,-0.230
27.667,-0.105,-0.971,-0.227
27.676,-0.104,-0.971,-0.229
27.686,-0.105,-0.971,-0.227
27.696,-0.102,-0.975,-0.227
27.706,-0.100,-0.973,-0.230
27.716,-0.107,-0.971,-0.225
27.726,-0.111,-0.971,-0.223
27.736,-0.115,-0.977,-0.230
27.746,-0.115,-0.977,-0.230
27.756,-0.113,-0.979,-0.227
27.766,-0.111,-0.979,-0.230
27.776,-0.111,-0.977,-0.232
27.786,-0.109,-0.980,-0.227
27.796,-0.109,-0.971,-0.227
27.805,-0.109,-0.977,-0.225
27.815,-0.109,-0.973,-0.229
27.825,-0.107,-0.975,-0.227
27.835,-0.104,-0.975,-0.229
27.845,-0.102,-0.977,-0.230
27.855,-0.100,-0.977,-0.230
27.865,-0.098,-0.979,-0.230
27.875,-0.102,-0.977,-0.227
27.885,-0.102,-0.971,-0.225
27.895,-0.105,-0.969,-0.225
27.905,-0.104,-0.977,-0.227
27.915,-0.105,-0.977,-0.230
27.925,-0.104,-0.977,-0.229
27.935,-0.104,-0.977,-0.227
27.944,-0.102,-0.973,-0.225
27.954,-0.104,-0.977,-0.227
27.964,-0.105,-0.975,-0.227
27.974,-0.105,-0.975,-0.225
27.984,-0.105,-0.977,-0.227
27.994,-0.107,-0.973,-0.227
28.004,-0.102,-0.979,-0.227
28.014,-0.102,-0.975,-0.227
28.024,-0.104,-0.979,-0.229
28.034,-0.104,-0.977,-0.227
28.044,-0.105,-0.975,-0.229
28.054,-0.105,-0.977,-0.227
28.064,-0.102,-0.977,-0.227
28.073,-0.100,-0.975,-0.227
28.083,-0.102,-0.973,-0.230
28.093,-0.102,-0.975,-0.225
28.103,-0.104,-0.973,-0.227
28.113,-0.100,-0.971,-0.230
28.123,-0.104,-0.975,-0.225
28.133,-0.102,-0.975,-0.229
28.143,-0.100,-0.979,-0.227
28.153,-0.104,-0.979,-0.229
28.163,-0.105,-0.980,-0.227
28.173,-0.104,-0.980,-0.227
28.183,-0.102,-0.977,-0.227
28.193,-0.104,-0.977,-0.223
28.203,-0.104,-0.977,-0.225
28.212,-0.105,-0.979,-0.225
28.222,-0.105,-0.979,-0.230
28.232,-0.100,-0.977,-0.230
28.242,-0.102,-0.977,-0.229
28.252,-0.102,-0.977,-0.229
28.262,-0.105,-0.973,-0.229
28.272,-0.102,-0.975,-0.227
28.282,-0.104,-0.973,-0.229
28.292,-0.098,-0.971,-0.227
28.302,-0.100,-0.973,-0.227
28.312,-0.100,-0.971,-0.229
28.322,-0.100,-0.971,-0.223
28.332,-0.105,-0.971,-0.227
28.341,-0.111,-0.975,-0.227
28.351,-0.113,-0.977,-0.229
28.361,-0.109,-0.980,-0.229
28.371,-0.107,-0.980,-0.225
28.381,-0.105,-0.977,-0.230
28.391,-0.104,-0.982,-0.227
28.401,-0.102,-0.973,-0.225
28.411,-0.104,-0.975,-0.223
28.421,-0.102,-0.975,-0.227
28.431,-0.102,-0.980,-0.223
28.441,-0.100,-0.979,-0.227
28.451,-0.096,-0.980,-0.229
28.461,-0.096,-0.979,-0.225
28.470,-0.094,-0.977,-0.229
28.480,-0.094,-0.975,-0.227
28.490,-0.094,-0.973,-0.227
28.500,-0.098,-0.971,-0.223
28.510,-0.100,-0.973,-0.229
28.520,-0.102,-0.977,-0.229
28.530,-0.100,-0.977,-0.229
28.540,-0.102,-0.977,-0.230
28.550,-0.100,-0.975,-0.227
28.560,-0.100,-0.971,-0.225
28.570,-0.104,-0.973,-0.223
28.580,-0.104,-0.975,-0.225
28.590,-0.104,-0.977,-0.230
28.600,-0.102,-0.977,-0.229
28.609,-0.098,-0.977,-0.229
28.619,-0.098,-0.979,-0.225
28.629,-0.102,-0.979,-0.229
28.639,-0.098,-0.975,-0.229
28.649,-0.102,-0.975,-0.223
28.659,-0.102,-0.973,-0.225
28.669,-0.104,-0.977,-0.227
28.679,-0.102,-0.977,-0.227
28.689,-0.100,-0.971,-0.229
28.699,-0.104,-0.973,-0.227
28.709,-0.100,-0.977,-0.227
28.719,-0.096,-0.975,-0.229
28.729,-0.100,-0.975,-0.227
28.738,-0.100,-0.971,-0.225
28.748,-0.104,-0.973,-0.223
28.758,-0.100,-0.977,-0.227
28.768,-0.105,-0.977,-0.225
28.778,-0.105,-0.977,-0.227
28.788,-0.105,-0.980,-0.229
28.798,-0.102,-0.980,-0.225
28.808,-0.102,-0.979,-0.227
28.818,-0.102,-0.982,-0.223
28.828,-0.104,-0.977,-0.227
28.838,-0.098,-0.979,-0.225
28.848,-0.098,-0.979,-0.225
28.858,-0.096,-0.977,-0.230
28.867,-0.100,-0.979,-0.229
28.877,-0.098,-0.975,-0.230
28.887,-0.102,-0.975,-0.227
28.897,-0.100,-0.977,-0.229
28.907,-0.100,-0.971,-0.229
28.917,-0.102,-0.971,-0.227
28.927,-0.098,-0.969,-0.229
28.937,-0.100,-0.967,-0.227
28.947,-0.105,-0.967,-0.225
28.957,-0.105,-0.971,-0.225
28.967,-0.109,-0.977,-0.227
28.977,-0.111,-0.975,-0.227
28.987,-0.111,-0.980,-0.229
28.997,-0.109,-0.977,-0.230
29.006,-0.105,-0.979,-0.227
29.016,-0.105,-0.977,-0.227
29.026,-0.098,-0.979,-0.225
29.036,-0.100,-0.977,-0.227
29.046,-0.104,-0.980,-0.227
29.056,-0.100,-0.979,-0.225
29.066,-0.098,-0.979,-0.227
29.076,-0.092,-0.977,-0.229
29.086,-0.094,-0.973,-0.227
29.096,-0.092,-0.979,-0.230
29.106,-0.092,-0.975,-0.230
29.116,-0.092,-0.977,-0.225
29.126,-0.098,-0.973,-0.223
29.135,-0.104,-0.975,-0.227
29.145,-0.098,-0.977,-0.229
29.155,-0.100,-0.977,-0.227
29.165,-0.096,-0.977,-0.229
29.175,-0.098,-0.973,-0.229
29.185,-0.102,-0.973,-0.225
29.195,-0.102,-0.977,-0.223
29.205,-0.104,-0.979,-0.229
29.215,-0.104,-0.977,-0.230
29.225,-0.104,-0.975,-0.229
29.235,-0.104,-0.973,-0.223
29.245,-0.102,-0.979,-0.227
29.255,-0.100,-0.979,-0.234
29.265,-0.102,-0.977,-0.227
29.274,-0.104,-0.973,-0.225
29.284,-0.105,-0.975,-0.230
29.294,-0.100,-0.975,-0.227
29.304,-0.100,-0.973,-0.227
29.314,-0.102,-0.973,-0.225
29.324,-0.102,-0.973,-0.227
29.334,-0.098,-0.973,-0.229
29.344,-0.096,-0.975,-0.232
29.354,-0.098,-0.980,-0.223
29.364,-0.100,-0.975,-0.229
29.374,-0.102,-0.971,-0.223
29.384,-0.102,-0.979,-0.225
29.394,-0.104,-0.980,-0.229
29.403,-0.102,-0.980,-0.229
29.413,-0.104,-0.982,-0.227
29.423,-0.102,-0.982,-0.229
29.433,-0.100,-0.980,-0.225
29.443,-0.102,-0.977,-0.223
29.453,-0.100,-0.977,-0.223
29.463,-0.100,-0.980,-0.230
29.473,-0.100,-0.973,-0.227
29.483,-0.102,-0.975,-0.219
29.493,-0.104,-0.980,-0.227
29.503,-0.100,-0.973,-0.232
29.513,-0.100,-0.971,-0.221
29.523,-0.104,-0.973,-0.223
29.532,-0.102,-0.971,-0.223
29.542,-0.102,-0.971,-0.227
29.552,-0.102,-0.975,-0.227
29.562,-0.100,-0.971,-0.219
29.572,-0.102,-0.967,-0.217
29.582,-0.109,-0.977,-0.221
29.592,-0.111,-0.980,-0.230
29.602,-0.109,-0.982,-0.227
29.612,-0.109,-0.984,-0.230
29.622,-0.105,-0.982,-0.229
29.632,-0.105,-0.982,-0.227
29.642,-0.107,-0.979,-0.225
29.652,-0.107,-0.973,-0.219
29.662,-0.107,-0.971,-0.219
29.671,-0.105,-0.973,-0.219
29.681,-0.105,-0.977,-0.221
29.691,-0.104,-0.979,-0.229
29.701,-0.100,-0.977,-0.225
29.711,-0.100,-0.975,-0.223
29.721,-0.102,-0.975,-0.223
29.731,-0.102,-0.977,-0.221
29.741,-0.102,-0.977,-0.221
29.751,-0.104,-0.975,-0.227
29.761,-0.100,-0.977,-0.225
29.771,-0.100,-0.977,-0.219
29.781,-0.098,-0.977,-0.221
29.791,-0.098,-0.977,-0.223
29.800,-0.102,-0.980,-0.221
29.810,-0.104,-0.979,-0.219
29.820,-0.104,-0.984,-0.223
29.830,-0.102,-0.982,-0.227
29.840,-0.104,-0.979,-0.225
29.850,-0.104,-0.979,-0.221
29.860,-0.098,-0.975,-0.221
29.870,-0.098,-0.977,-0.221
29.880,-0.096,-0.975,-0.223
29.890,-0.092,-0.979,-0.217
29.900,-0.094,-0.977,-0.225
29.910,-0.094,-0.979,-0.223
29.920,-0.096,-0.980,-0.223
29.930,-0.094,-0.975,-0.225
29.939,-0.100,-0.977,-0.223
29.949,-0.098,-0.979,-0.225
29.959,-0.100,-0.977,-0.223
29.969,-0.096,-0.977,-0.223
29.979,-0.100,-0.979,-0.225
29.989,-0.100,-0.979,-0.221
29.999,-0.104,-0.980,-0.223
30.009,-0.100,-0.982,-0.227
30.019,-0.100,-0.979,-0.223
30.029,-0.102,-0.980,-0.223
30.039,-0.105,-0.979,-0.227
30.049,-0.100,-0.982,-0.227
30.059,-0.102,-0.977,-0.229
30.068,-0.102,-0.975,-0.221
30.078,-0.102,-0.977,-0.225
30.088,-0.104,-0.975,-0.230
30.098,-0.100,-0.971,-0.225
30.108,-0.102,-0.973,-0.225
30.118,-0.100,-0.971,-0.229
30.128,-0.100,-0.973,-0.225
30.138,-0.105,-0.977,-0.223
30.148,-0.104,-0.979,-0.227
30.158,-0.105,-0.977,-0.225
30.168,-0.111,-0.975,-0.219
30.178,-0.115,-0.979,-0.225
30.188,-0.113,-0.984,-0.230
30.197,-0.115,-0.980,-0.230
30.207,-0.111,-0.980,-0.227
30.217,-0.111,-0.975,-0.229
30.227,-0.109,-0.975,-0.227
30.237,-0.109,-0.975,-0.227
30.247,-0.111,-0.977,-0.225
30.257,-0.113,-0.975,-0.227
30.267,-0.115,-0.971,-0.225
30.277,-0.115,-0.975,-0.230
30.287,-0.113,-0.975,-0.227
30.297,-0.115,-0.973,-0.230
30.307,-0.111,-0.973,-0.232
30.317,-0.115,-0.973,-0.230
30.327,-0.117,-0.969,-0.223
30.336,-0.123,-0.969,-0.229
30.346,-0.119,-0.973,-0.234
30.356,-0.121,-0.971,-0.232
30.366,-0.121,-0.973,-0.230
30.376,-0.119,-0.975,-0.236
30.386,-0.119,-0.975,-0.230
30.396,-0.123,-0.969,-0.225
30.406,-0.123,-0.969,-0.225
30.416,-0.121,-0.973,-0.230
30.426,-0.123,-0.977,-0.232
30.436,-0.125,-0.979,-0.234
30.446,-0.125,-0.975,-0.232
30.456,-0.123,-0.975,-0.232
30.465,-0.123,-0.977,-0.232
30.475,-0.125,-0.973,-0.230
30.485,-0.127,-0.971,-0.229
30.495,-0.125,-0.969,-0.229
30.505,-0.125,-0.967,-0.230
30.515,-0.123,-0.969,-0.232
30.525,-0.123,-0.971,-0.229
30.535,-0.123,-0.971,-0.234
30.545,-0.125,-0.973,-0.232
30.555,-0.123,-0.973,-0.230
30.565,-0.121,-0.971,-0.232
30.575,-0.123,-0.969,-0.229
30.585,-0.127,-0.971,-0.229
30.594,-0.127,-0.973,-0.232
30.604,-0.125,-0.973,-0.230
30.614,-0.123,-0.975,-0.229
30.624,-0.125,-0.975,-0.230
30.634,-0.127,-0.973,-0.234
30.644,-0.127,-0.975,-0.232
30.654,-0.129,-0.977,-0.234
30.664,-0.131,-0.973,-0.234
30.674,-0.129,-0.973,-0.230
30.684,-0.129,-0.967,-0.234
30.694,-0.123,-0.965,-0.229
30.704,-0.127,-0.967,-0.234
30.714,-0.127,-0.967,-0.229
30.724,-0.123,-0.967,-0.232
30.733,-0.127,-0.967,-0.232
30.743,-0.133,-0.971,-0.232
30.753,-0.133,-0.973,-0.230
30.763,-0.129,-0.975,-0.238
30.773,-0.131,-0.973,-0.236
30.783,-0.129,-0.973,-0.232
30.793,-0.133,-0.973,-0.236
30.803,-0.133,-0.977,-0.232
30.813,-0.129,-0.971,-0.230
30.823,-0.129,-0.975,-0.227
30.833,-0.131,-0.969,-0.229
30.843,-0.131,-0.973,-0.229
30.853,-0.125,-0.977,-0.232
30.862,-0.127,-0.977,-0.232
30.872,-0.125,-0.975,-0.230
30.882,-0.123,-0.975,-0.234
30.892,-0.121,-0.973,-0.232
30.902,-0.127,-0.971,-0.225
30.912,-0.125,-0.969,-0.232
30.922,-0.125,-0.973,-0.238
30.932,-0.123,-0.973,-0.236
30.942,-0.123,-0.975,-0.232
30.952,-0.127,-0.975,-0.232
30.962,-0.125,-0.973,-0.232
30.972,-0.127,-0.973,-0.229
30.982,-0.131,-0.969,-0.229
30.992,-0.129,-0.971,-0.232
31.001,-0.131,-0.975,-0.234
31.011,-0.133,-0.973,-0.236
31.021,-0.129,-0.977,-0.227
31.031,-0.131,-0.975,-0.230
31.041,-0.131,-0.971,-0.232
31.051,-0.129,-0.967,-0.229
31.061,-0.129,-0.973,-0.227
31.071,-0.127,-0.969,-0.232
31.081,-0.123,-0.969,-0.230
31.091,-0.121,-0.973,-0.229
31.101,-0.119,-0.971,-0.230
31.111,-0.117,-0.973,-0.229
31.121,-0.117,-0.971,-0.232
31.130,-0.119,-0.977,-0.232
31.140,-0.117,-0.977,-0.230
31.150,-0.119,-0.975,-0.230
31.160,-0.119,-0.971,-0.227
31.170,-0.119,-0.979,-0.227
31.180,-0.119,-0.979,-0.232
31.190,-0.121,-0.977,-0.232
31.200,-0.123,-0.977,-0.230
31.210,-0.123,-0.975,-0.229
31.220,-0.123,-0.979,-0.236
31.230,-0.123,-0.980,-0.232
31.240,-0.123,-0.975,-0.230
31.250,-0.121,-0.971,-0.229
31.259,-0.123,-0.971,-0.227
31.269,-0.119,-0.967,-0.229
31.279,-0.117,-0.967,-0.227
31.289,-0.119,-0.969,-0.229
31.299,-0.125,-0.971,-0.225
31.309,-0.129,-0.969,-0.227
31.319,-0.133,-0.975,-0.229
31.329,-0.133,-0.973,-0.230
31.339,-0.127,-0.975,-0.230
31.349,-0.127,-0.977,-0.230
31.359,-0.127,-0.975,-0.232
31.369,-0.127,-0.975,-0.223
31.379,-0.129,-0.975,-0.227
31.389,-0.129,-0.973,-0.225
31.398,-0.127,-0.975,-0.227
31.408,-0.125,-0.979,-0.227
31.418,-0.121,-0.977,-0.230
31.428,-0.121,-0.977,-0.230
31.438,-0.123,-0.975,-0.229
31.448,-0.119,-0.973,-0.227
31.458,-0.117,-0.973,-0.229
31.468,-0.119,-0.969,-0.223
31.478,-0.123,-0.971,-0.225
31.488,-0.127,-0.975,-0.230
31.498,-0.123,-0.973,-0.225
31.508,-0.119,-0.975,-0.227
31.518,-0.117,-0.977,-0.229
31.527,-0.123,-0.975,-0.227
31.537,-0.127,-0.975,-0.227
31.547,-0.125,-0.975,-0.227
31.557,-0.125,-0.975,-0.229
31.567,-0.123,-0.977,-0.229
31.577,-0.125,-0.973,-0.229
31.587,-0.125,-0.975,-0.230
31.597,-0.123,-0.975,-0.229
31.607,-0.123,-0.975,-0.229
31.617,-0.125,-0.975,-0.229
31.627,-0.125,-0.971,-0.229
31.637,-0.125,-0.975,-0.227
31.647,-0.125,-0.971,-0.232
31.657,-0.119,-0.975,-0.229
31.666,-0.123,-0.971,-0.230
31.676,-0.121,-0.973,-0.229
31.686,-0.121,-0.977,-0.229
31.696,-0.121,-0.977,-0.230
31.706,-0.121,-0.977,-0.227
31.716,-0.121,-0.980,-0.229
31.726,-0.123,-0.975,-0.227
31.736,-0.123,-0.977,-0.225
31.746,-0.125,-0.977,-0.225
31.756,-0.125,-0.977,-0.225
31.766,-0.121,-0.979,-0.230
31.776,-0.123,-0.975,-0.227
31.786,-0.125,-0.973,-0.227
31.795,-0.125,-0.979,-0.229
31.805,-0.123,-0.977,-0.230
31.815,-0.125,-0.973,-0.230
31.825,-0.123,-0.971,-0.229
31.835,-0.123,-0.967,-0.229
31.845,-0.121,-0.967,-0.227
31.855,-0.121,-0.971,-0.230
31.865,-0.119,-0.973,-0.230
31.875,-0.127,-0.975,-0.229
31.885,-0.133,-0.973,-0.229
31.895,-0.133,-0.975,-0.230
31.905,-0.133,-0.980,-0.230
31.915,-0.129,-0.975,-0.230
31.924,-0.129,-0.975,-0.229
31.934,-0.127,-0.977,-0.221
31.944,-0.125,-0.975,-0.225
31.954,-0.125,-0.971,-0.225
31.964,-0.127,-0.971,-0.225
31.974,-0.129,-0.971,-0.225
31.984,-0.127,-0.975,-0.232
31.994,-0.127,-0.971,-0.229
32.004,-0.121,-0.975,-0.232
32.014,-0.121,-0.975,-0.230
32.024,-0.119,-0.971,-0.230
32.034,-0.121,-0.973,-0.227
32.044,-0.123,-0.971,-0.227
32.054,-0.125,-0.969,-0.229
32.063,-0.125,-0.973,-0.230
32.073,-0.121,-0.975,-0.230
32.083,-0.121,-0.977,-0.230
32.093,-0.123,-0.973,-0.230
32.103,-0.123,-0.969,-0.227
32.113,-0.125,-0.971,-0.227
32.123,-0.123,-0.973,-0.229
32.133,-0.123,-0.975,-0.229
32.143,-0.125,-0.975,-0.229
32.153,-0.121,-0.973,-0.229
32.163,-0.119,-0.973,-0.229
32.173,-0.119,-0.975,-0.229
32.183,-0.119,-0.975,-0.229
32.192,-0.121,-0.973,-0.227
32.202,-0.121,-0.973,-0.229
32.212,-0.119,-0.971,-0.227
32.222,-0.119,-0.971,-0.227
32.232,-0.119,-0.971,-0.225
32.242,-0.121,-0.977,-0.227
32.252,-0.119,-0.973,-0.232
32.262,-0.119,-0.973,-0.229
32.272,-0.121,-0.975,-0.227
32.282,-0.123,-0.977,-0.227
32.292,-0.123,-0.975,-0.229
32.302,-0.125,-0.979,-0.227
32.312,-0.125,-0.973,-0.225
32.321,-0.123,-0.973,-0.223
32.331,-0.123,-0.979,-0.225
32.341,-0.123,-0.979,-0.229
32.351,-0.123,-0.979,-0.227
32.361,-0.115,-0.977,-0.229
32.371,-0.121,-0.975,-0.230
32.381,-0.121,-0.979,-0.229
32.391,-0.119,-0.977,-0.234
32.401,-0.119,-0.975,-0.232
32.411,-0.121,-0.973,-0.227
32.421,-0.121,-0.967,-0.230
32.431,-0.121,-0.971,-0.227
32.441,-0.117,-0.969,-0.229
32.451,-0.117,-0.969,-0.230
32.460,-0.127,-0.973,-0.227
32.470,-0.131,-0.975,-0.227
32.480,-0.139,-0.973,-0.229
32.490,-0.139,-0.977,-0.229
32.500,-0.137,-0.977,-0.227
32.510,-0.135,-0.975,-0.229
32.520,-0.131,-0.975,-0.227
32.530,-0.135,-0.973,-0.229
32.540,-0.133,-0.971,-0.227
32.550,-0.135,-0.971,-0.225
32.560,-0.131,-0.973,-0.232
32.570,-0.135,-0.973,-0.227
32.580,-0.129,-0.973,-0.229
32.589,-0.125,-0.971,-0.236
32.599,-0.125,-0.973,-0.232
32.609,-0.127,-0.969,-0.232
32.619,-0.129,-0.973,-0.230
32.629,-0.129,-0.969,-0.230
32.639,-0.137,-0.967,-0.234
32.649,-0.137,-0.969,-0.232
32.659,-0.135,-0.973,-0.229
32.669,-0.135,-0.975,-0.232
32.679,-0.133,-0.973,-0.238
32.689,-0.137,-0.971,-0.230
32.699,-0.141,-0.969,-0.225
32.709,-0.137,-0.969,-0.230
32.719,-0.135,-0.971,-0.232
32.728,-0.137,-0.969,-0.230
32.738,-0.135,-0.969,-0.229
32.748,-0.133,-0.973,-0.232
32.758,-0.135,-0.971,-0.236
32.768,-0.137,-0.975,-0.232
32.778,-0.133,-0.971,-0.232
32.788,-0.135,-0.969,-0.234
32.798,-0.137,-0.973,-0.229
32.808,-0.139,-0.969,-0.227
32.818,-0.129,-0.973,-0.234
32.828,-0.129,-0.971,-0.234
32.838,-0.133,-0.971,-0.225
32.848,-0.135,-0.969,-0.229
32.857,-0.129,-0.975,-0.234
32.867,-0.129,-0.971,-0.230
32.877,-0.131,-0.971,-0.229
32.887,-0.133,-0.971,-0.229
32.897,-0.133,-0.975,-0.229
32.907,-0.135,-0.975,-0.230
32.917,-0.137,-0.975,-0.227
32.927,-0.133,-0.979,-0.230
32.937,-0.127,-0.977,-0.232
32.947,-0.131,-0.977,-0.229
32.957,-0.131,-0.975,-0.227
32.967,-0.125,-0.980,-0.230
32.977,-0.123,-0.979,-0.234
32.986,-0.123,-0.973,-0.230
32.996,-0.125,-0.971,-0.230
33.006,-0.127,-0.973,-0.234
33.016,-0.129,-0.969,-0.234
33.026,-0.129,-0.969,-0.229
33.036,-0.129,-0.969,-0.230
33.046,-0.129,-0.967,-0.232
33.056,-0.127,-0.965,-0.230
33.066,-0.129,-0.967,-0.227
33.076,-0.129,-0.965,-0.225
33.086,-0.131,-0.963,-0.223
33.096,-0.139,-0.971,-0.229
33.106,-0.137,-0.977,-0.232
33.116,-0.133,-0.979,-0.232
33.125,-0.133,-0.977,-0.234
33.135,-0.131,-0.979,-0.232
33.145,-0.131,-0.975,-0.230
33.155,-0.123,-0.973,-0.229
33.165,-0.127,-0.971,-0.225
33.175,-0.127,-0.971,-0.223
33.185,-0.125,-0.977,-0.229
33.195,-0.121,-0.975,-0.232
33.205,-0.123,-0.975,-0.232
33.215,-0.123,-0.973,-0.229
33.225,-0.117,-0.973,-0.229
33.235,-0.117,-0.971,-0.232
33.245,-0.117,-0.973,-0.227
33.254,-0.125,-0.967,-0.227
33.264,-0.127,-0.969,-0.229
33.274,-0.127,-0.973,-0.229
33.284,-0.119,-0.975,-0.229
33.294,-0.123,-0.979,-0.230
33.304,-0.127,-0.971,-0.230
33.314,-0.125,-0.977,-0.229
33.324,-0.125,-0.975,-0.229
33.334,-0.127,-0.973,-0.229
33.344,-0.123,-0.977,-0.230
33.354,-0.127,-0.977,-0.227
33.364,-0.125,-0.979,-0.227
33.374,-0.123,-0.973,-0.227
33.384,-0.121,-0.975,-0.227
33.393,-0.121,-0.973,-0.229
33.403,-0.125,-0.973,-0.227
33.413,-0.123,-0.973,-0.227
33.423,-0.127,-0.973,-0.227
33.433,-0.121,-0.973,-0.229
33.443,-0.123,-0.971,-0.227
33.453,-0.123,-0.973,-0.229
33.463,-0.121,-0.973,-0.225
33.473,-0.123,-0.971,-0.225
33.483,-0.125,-0.975,-0.225
33.493,-0.125,-0.973,-0.223
33.503,-0.131,-0.973,-0.225
33.513,-0.129,-0.973,-0.223
33.522,-0.129,-0.979,-0.225
33.532,-0.129,-0.979,-0.229
33.542,-0.131,-0.977,-0.227
33.552,-0.127,-0.977,-0.225
33.562,-0.127,-0.977,-0.225
33.572,-0.125,-0.977,-0.223
33.582,-0.125,-0.977,-0.225
33.592,-0.125,-0.975,-0.227
33.602,-0.125,-0.977,-0.227
33.612,-0.123,-0.975,-0.223
33.622,-0.127,-0.975,-0.227
33.632,-0.127,-0.975,-0.230
33.642,-0.129,-0.971,-0.225
33.651,-0.125,-0.973,-0.225
33.661,-0.127,-0.971,-0.230
33.671,-0.125,-0.969,-0.225
33.681,-0.123,-0.971,-0.225
33.691,-0.127,-0.969,-0.227
33.701,-0.127,-0.971,-0.223
33.711,-0.129,-0.975,-0.223
33.721,-0.131,-0.977,-0.225
33.731,-0.133,-0.979,-0.229
33.741,-0.131,-0.979,-0.227
33.751,-0.129,-0.977,-0.230
33.761,-0.125,-0.977,-0.229
33.771,-0.127,-0.979,-0.227
33.781,-0.123,-0.973,-0.223
33.790,-0.123,-0.975,-0.223
33.800,-0.123,-0.973,-0.221
33.810,-0.121,-0.973,-0.229
33.820,-0.123,-0.979,-0.229
33.830,-0.121,-0.979,-0.232
33.840,-0.121,-0.975,-0.223
33.850,-0.119,-0.973,-0.227
33.860,-0.121,-0.977,-0.223
33.870,-0.121,-0.973,-0.223
33.880,-0.123,-0.977,-0.227
33.890,-0.125,-0.973,-0.227
33.900,-0.117,-0.977,-0.223
33.910,-0.115,-0.973,-0.227
33.919,-0.117,-0.975,-0.227
33.929,-0.121,-0.973,-0.223
33.939,-0.123,-0.971,-0.219
33.949,-0.125,-0.971,-0.223
33.959,-0.125,-0.979,-0.227
33.969,-0.127,-0.979,-0.227
33.979,-0.129,-0.977,-0.227
33.989,-0.125,-0.977,-0.223
33.999,-0.123,-0.977,-0.229
34.009,-0.121,-0.977,-0.223
34.019,-0.123,-0.975,-0.223
34.029,-0.123,-0.977,-0.225
34.039,-0.121,-0.975,-0.227
34.048,-0.125,-0.973,-0.227
34.058,-0.123,-0.977,-0.225
34.068,-0.123,-0.975,-0.230
34.078,-0.123,-0.971,-0.225
34.088,-0.123,-0.975,-0.225
34.098,-0.125,-0.973,-0.225
34.108,-0.123,-0.971,-0.227
34.118,-0.127,-0.975,-0.227
34.128,-0.125,-0.975,-0.223
34.138,-0.127,-0.977,-0.225
34.148,-0.131,-0.979,-0.225
34.158,-0.129,-0.977,-0.225
34.168,-0.121,-0.973,-0.223
34.178,-0.125,-0.977,-0.225
34.187,-0.123,-0.977,-0.229
34.197,-0.123,-0.979,-0.230
34.207,-0.123,-0.975,-0.230
34.217,-0.125,-0.977,-0.227
34.227,-0.123,-0.973,-0.225
34.237,-0.125,-0.971,-0.230
34.247,-0.127,-0.973,-0.225
34.257,-0.127,-0.971,-0.223
34.267,-0.125,-0.971,-0.230
34.277,-0.125,-0.967,-0.230
34.287,-0.125,-0.965,-0.227
34.297,-0.123,-0.969,-0.223
34.307,-0.127,-0.971,-0.227
34.316,-0.129,-0.967,-0.227
34.326,-0.133,-0.971,-0.227
34.336,-0.137,-0.973,-0.227
34.346,-0.135,-0.977,-0.232
34.356,-0.133,-0.979,-0.232
34.366,-0.131,-0.975,-0.232
34.376,-0.131,-0.973,-0.229
34.386,-0.129,-0.973,-0.229
34.396,-0.127,-0.973,-0.227
34.406,-0.129,-0.975,-0.229
34.416,-0.127,-0.973,-0.227
34.426,-0.129,-0.977,-0.229
34.436,-0.127,-0.977,-0.230
34.446,-0.123,-0.977,-0.227
34.455,-0.123,-0.979,-0.232
34.465,-0.121,-0.973,-0.230
34.475,-0.117,-0.973,-0.225
34.485,-0.123,-0.973,-0.227
34.495,-0.127,-0.971,-0.229
34.505,-0.123,-0.971,-0.229
34.515,-0.123,-0.975,-0.229
34.525,-0.119,-0.975,-0.229
34.535,-0.119,-0.975,-0.232
34.545,-0.125,-0.977,-0.223
34.555,-0.129,-0.969,-0.225
34.565,-0.129,-0.973,-0.230
34.575,-0.127,-0.975,-0.230
34.584,-0.129,-0.977,-0.227
34.594,-0.129,-0.975,-0.227
34.604,-0.127,-0.975,-0.230
34.614,-0.125,-0.975,-0.227
34.624,-0.123,-0.975,-0.229
34.634,-0.127,-0.977,-0.230
34.644,-0.125,-0.975,-0.225
34.654,-0.123,-0.973,-0.229
34.664,-0.125,-0.973,-0.227
34.674,-0.123,-0.973,-0.227
34.684,-0.121,-0.973,-0.227
34.694,-0.123,-0.971,-0.230
34.704,-0.121,-0.975,-0.230
34.713,-0.123,-0.973,-0.227
34.723,-0.125,-0.975,-0.230
34.733,-0.127,-0.969,-0.229
34.743,-0.125,-0.977,-0.227
34.753,-0.125,-0.977,-0.229
34.763,-0.127,-0.975,-0.227
34.773,-0.129,-0.975,-0.229
34.783,-0.131,-0.975,-0.227
34.793,-0.127,-0.977,-0.227
34.803,-0.125,-0.975,-0.227
34.813,-0.125,-0.975,-0.229
34.823,-0.123,-0.975,-0.229
34.833,-0.125,-0.975,-0.230
34.843,-0.125,-0.973,-0.229
34.852,-0.125,-0.973,-0.230
34.862,-0.127,-0.975,-0.230
34.872,-0.131,-0.971,-0.229
34.882,-0.127,-0.969,-0.229
34.892,-0.123,-0.967,-0.230
34.902,-0.129,-0.967,-0.229
34.912,-0.127,-0.965,-0.225
34.922,-0.123,-0.965,-0.227
34.932,-0.127,-0.967,-0.225
34.942,-0.131,-0.971,-0.227
34.952,-0.141,-0.973,-0.229
34.962,-0.139,-0.977,-0.230
34.972,-0.133,-0.977,-0.232
34.981,-0.131,-0.977,-0.232
34.991,-0.131,-0.971,-0.225
35.001,-0.131,-0.975,-0.221
35.011,-0.127,-0.973,-0.229
35.021,-0.127,-0.975,-0.223
35.031,-0.129,-0.977,-0.229
35.041,-0.127,-0.973,-0.225
35.051,-0.125,-0.977,-0.227
35.061,-0.123,-0.979,-0.227
35.071,-0.123,-0.977,-0.227
35.081,-0.119,-0.975,-0.225
35.091,-0.117,-0.977,-0.225
35.101,-0.121,-0.975,-0.229
35.111,-0.125,-0.975,-0.227
35.120,-0.127,-0.969,-0.227
35.130,-0.129,-0.977,-0.227
35.140,-0.127,-0.973,-0.227
35.150,-0.121,-0.975,-0.227
35.160,-0.119,-0.973,-0.227
35.170,-0.127,-0.975,-0.223
35.180,-0.129,-0.973,-0.225
35.190,-0.123,-0.977,-0.227
35.200,-0.125,-0.975,-0.229
35.210,-0.127,-0.975,-0.229
35.220,-0.121,-0.980,-0.227
35.230,-0.121,-0.975,-0.232
35.240,-0.123,-0.979,-0.227
35.249,-0.125,-0.977,-0.230
35.259,-0.121,-0.975,-0.227
35.269,-0.123,-0.975,-0.227
35.279,-0.121,-0.973,-0.229
35.289,-0.121,-0.973,-0.227
35.299,-0.121,-0.973,-0.230
35.309,-0.121,-0.973,-0.229
35.319,-0.119,-0.971,-0.230
35.329,-0.121,-0.973,-0.230
35.339,-0.123,-0.973,-0.227
35.349,-0.123,-0.971,-0.225
35.359,-0.123,-0.973,-0.225
35.369,-0.123,-0.973,-0.229
35.378,-0.127,-0.975,-0.227
35.388,-0.127,-0.979,-0.227
35.398,-0.127,-0.979,-0.230
35.408,-0.125,-0.980,-0.230
35.418,-0.127,-0.977,-0.229
35.428,-0.125,-0.977,-0.229
35.438,-0.123,-0.977,-0.229
35.448,-0.123,-0.973,-0.232
35.458,-0.123,-0.975,-0.232
35.468,-0.127,-0.971,-0.230
35.478,-0.127,-0.975,-0.232
35.488,-0.127,-0.973,-0.236
35.498,-0.127,-0.971,-0.232
35.508,-0.129,-0.971,-0.229
35.517,-0.129,-0.969,-0.230
35.527,-0.127,-0.963,-0.230
35.537,-0.129,-0.965,-0.229
35.547,-0.125,-0.967,-0.227
35.557,-0.125,-0.965,-0.234
35.567,-0.129,-0.967,-0.229
35.577,-0.137,-0.965,-0.229
35.587,-0.141,-0.971,-0.232
35.597,-0.137,-0.979,-0.232
35.607,-0.133,-0.977,-0.234
35.617,-0.129,-0.975,-0.229
35.627,-0.131,-0.973,-0.234
35.637,-0.129,-0.973,-0.230
35.646,-0.127,-0.973,-0.225
35.656,-0.131,-0.973,-0.230
35.666,-0.129,-0.975,-0.229
35.676,-0.125,-0.975,-0.229
35.686,-0.123,-0.975,-0.234
35.696,-0.125,-0.975,-0.229
35.706,-0.125,-0.973,-0.227
35.716,-0.121,-0.975,-0.230
35.726,-0.121,-0.973,-0.230
35.736,-0.127,-0.969,-0.225
35.746,-0.131,-0.967,-0.225
35.756,-0.129,-0.969,-0.230
35.766,-0.129,-0.975,-0.229
35.775,-0.127,-0.979,-0.227
35.785,-0.125,-0.973,-0.225
35.795,-0.127,-0.973,-0.230
35.805,-0.125,-0.975,-0.227
35.815,-0.129,-0.973,-0.227
35.825,-0.127,-0.977,-0.227
35.835,-0.127,-0.977,-0.229
35.845,-0.129,-0.977,-0.229
35.855,-0.127,-0.975,-0.225
35.865,-0.123,-0.979,-0.232
35.875,-0.123,-0.975,-0.229
35.885,-0.129,-0.973,-0.229
35.895,-0.127,-0.971,-0.225
35.905,-0.123,-0.973,-0.230
35.914,-0.125,-0.971,-0.230
35.924,-0.123,-0.975,-0.227
35.934,-0.125,-0.973,-0.229
35.944,-0.121,-0.973,-0.229
35.954,-0.121,-0.973,-0.230
35.964,-0.125,-0.971,-0.227
35.974,-0.123,-0.973,-0.227
35.984,-0.127,-0.971,-0.227
35.994,-0.123,-0.973,-0.229
36.004,-0.127,-0.973,-0.229
36.014,-0.127,-0.973,-0.225
36.024,-0.127,-0.973,-0.229
36.034,-0.125,-0.973,-0.229
36.043,-0.123,-0.977,-0.230
36.053,-0.123,-0.979,-0.232
36.063,-0.125,-0.975,-0.234
36.073,-0.125,-0.975,-0.230
36.083,-0.127,-0.971,-0.227
36.093,-0.123,-0.973,-0.232
36.103,-0.127,-0.969,-0.229
36.113,-0.125,-0.971,-0.230
36.123,-0.129,-0.973,-0.229
36.133,-0.127,-0.971,-0.230
36.143,-0.129,-0.973,-0.230
36.153,-0.131,-0.971,-0.229
36.163,-0.131,-0.969,-0.232
36.173,-0.129,-0.969,-0.227
36.182,-0.127,-0.965,-0.229
36.192,-0.125,-0.967,-0.230
36.202,-0.123,-0.969,-0.229
36.212,-0.123,-0.963,-0.229
36.222,-0.127,-0.965,-0.229
36.232,-0.135,-0.967,-0.229
36.242,-0.137,-0.975,-0.229
36.252,-0.133,-0.977,-0.230
36.262,-0.129,-0.977,-0.232
36.272,-0.125,-0.979,-0.230
36.282,-0.127,-0.975,-0.230
36.292,-0.125,-0.977,-0.227
36.302,-0.125,-0.975,-0.229
36.311,-0.123,-0.973,-0.223
36.321,-0.127,-0.977,-0.230
36.331,-0.127,-0.979,-0.229
36.341,-0.123,-0.979,-0.230
36.351,-0.119,-0.979,-0.230
36.361,-0.115,-0.977,-0.232
36.371,-0.115,-0.975,-0.232
36.381,-0.119,-0.969,-0.230
36.391,-0.119,-0.971,-0.229
36.401,-0.121,-0.967,-0.227
36.411,-0.123,-0.971,-0.230
36.421,-0.123,-0.973,-0.230
36.431,-0.121,-0.973,-0.227
36.440,-0.121,-0.973,-0.232
36.450,-0.123,-0.971,-0.229
36.460,-0.123,-0.969,-0.227
36.470,-0.123,-0.971,-0.225
36.480,-0.123,-0.975,-0.230
36.490,-0.123,-0.973,-0.230
36.500,-0.127,-0.973,-0.227
36.510,-0.125,-0.975,-0.229
36.520,-0.123,-0.975,-0.236
36.530,-0.121,-0.977,-0.232
36.540,-0.121,-0.971,-0.225
36.550,-0.123,-0.969,-0.225
36.560,-0.123,-0.975,-0.230
36.570,-0.121,-0.969,-0.225
36.579,-0.123,-0.973,-0.229
36.589,-0.119,-0.975,-0.227
36.599,-0.119,-0.973,-0.230
36.609,-0.119,-0.975,-0.229
36.619,-0.123,-0.971,-0.227
36.629,-0.123,-0.969,-0.225
36.639,-0.121,-0.969,-0.225
36.649,-0.121,-0.977,-0.227
36.659,-0.121,-0.973,-0.227
36.669,-0.123,-0.971,-0.221
36.679,-0.125,-0.977,-0.225
36.689,-0.121,-0.977,-0.227
36.699,-0.123,-0.980,-0.230
36.708,-0.121,-0.979,-0.229
36.718,-0.121,-0.977,-0.229
36.728,-0.121,-0.979,-0.230
36.738,-0.121,-0.977,-0.227
36.748,-0.125,-0.975,-0.227
36.758,-0.123,-0.977,-0.232
36.768,-0.121,-0.971,-0.225
36.778,-0.121,-0.973,-0.227
36.788,-0.121,-0.973,-0.232
36.798,-0.123,-0.971,-0.230
36.808,-0.125,-0.971,-0.227
36.818,-0.123,-0.973,-0.225
36.828,-0.123,-0.967,-0.227
36.838,-0.125,-0.969,-0.229
36.847,-0.121,-0.963,-0.225
36.857,-0.121,-0.967,-0.227
36.867,-0.119,-0.971,-0.229
36.877,-0.127,-0.971,-0.230
36.887,-0.133,-0.975,-0.229
36.897,-0.133,-0.971,-0.227
36.907,-0.127,-0.971,-0.230
36.917,-0.125,-0.975,-0.230
36.927,-0.121,-0.977,-0.230
36.937,-0.123,-0.977,-0.229
36.947,-0.127,-0.977,-0.225
36.957,-0.127,-0.973,-0.230
36.967,-0.123,-0.973,-0.225
36.976,-0.123,-0.969,-0.227
36.986,-0.123,-0.969,-0.227
36.996,-0.123,-0.973,-0.227
37.006,-0.121,-0.971,-0.229
37.016,-0.121,-0.975,-0.230
37.026,-0.121,-0.971,-0.232
37.036,-0.119,-0.971,-0.223
37.046,-0.123,-0.969,-0.219
37.056,-0.123,-0.973,-0.229
37.066,-0.123,-0.975,-0.223
37.076,-0.117,-0.973,-0.223
37.086,-0.117,-0.975,-0.223
37.096,-0.117,-0.975,-0.225
37.105,-0.117,-0.975,-0.221
37.115,-0.121,-0.975,-0.221
37.125,-0.121,-0.973,-0.225
37.135,-0.119,-0.977,-0.223
37.145,-0.121,-0.982,-0.223
37.155,-0.121,-0.982,-0.227
37.165,-0.119,-0.980,-0.229
37.175,-0.119,-0.979,-0.227
37.185,-0.121,-0.980,-0.223
37.195,-0.121,-0.977,-0.221
37.205,-0.123,-0.975,-0.221
37.215,-0.121,-0.973,-0.223
37.225,-0.119,-0.977,-0.223
37.235,-0.117,-0.975,-0.225
37.244,-0.117,-0.977,-0.221
37.254,-0.121,-0.975,-0.225
37.264,-0.117,-0.977,-0.223
37.274,-0.117,-0.973,-0.221
37.284,-0.123,-0.975,-0.221
37.294,-0.119,-0.979,-0.219
37.304,-0.123,-0.977,-0.221
37.314,-0.123,-0.979,-0.221
37.324,-0.121,-0.980,-0.219
37.334,-0.117,-0.980,-0.223
37.344,-0.119,-0.977,-0.223
37.354,-0.121,-0.977,-0.219
37.364,-0.117,-0.979,-0.221
37.373,-0.121,-0.979,-0.225
37.383,-0.119,-0.977,-0.223
37.393,-0.119,-0.975,-0.219
37.403,-0.115,-0.973,-0.221
37.413,-0.121,-0.975,-0.225
37.423,-0.121,-0.973,-0.223
37.433,-0.119,-0.973,-0.221
37.443,-0.119,-0.975,-0.227
37.453,-0.121,-0.967,-0.225
37.463,-0.125,-0.967,-0.219
37.473,-0.123,-0.971,-0.221
37.483,-0.123,-0.971,-0.225
37.493,-0.123,-0.971,-0.219
37.502,-0.133,-0.975,-0.219
37.512,-0.131,-0.980,-0.227
37.522,-0.131,-0.980,-0.230
37.532,-0.129,-0.973,-0.225
37.542,-0.123,-0.973,-0.223
37.552,-0.125,-0.973,-0.225
37.562,-0.121,-0.973,-0.221
37.572,-0.123,-0.975,-0.225
37.582,-0.123,-0.977,-0.221
37.592,-0.123,-0.979,-0.223
37.602,-0.121,-0.977,-0.225
37.612,-0.121,-0.973,-0.225
37.622,-0.119,-0.973,-0.225
37.632,-0.117,-0.971,-0.223
37.641,-0.119,-0.971,-0.221
37.651,-0.121,-0.973,-0.221
37.661,-0.125,-0.975,-0.223
37.671,-0.129,-0.977,-0.229
37.681,-0.127,-0.979,-0.230
37.691,-0.127,-0.975,-0.225
37.701,-0.125,-0.971,-0.221
37.711,-0.123,-0.973,-0.225
37.721,-0.127,-0.971,-0.225
37.731,-0.129,-0.971,-0.219
37.741,-0.129,-0.971,-0.217
37.751,-0.127,-0.973,-0.227
37.761,-0.129,-0.977,-0.229
37.770,-0.129,-0.975,-0.227
37.780,-0.127,-0.975,-0.223
37.790,-0.125,-0.977,-0.223
37.800,-0.123,-0.973,-0.223
37.810,-0.125,-0.971,-0.221
37.820,-0.125,-0.977,-0.219
37.830,-0.121,-0.977,-0.225
37.840,-0.123,-0.975,-0.225
37.850,-0.123,-0.973,-0.223
37.860,-0.123,-0.975,-0.221
37.870,-0.121,-0.975,-0.221
37.880,-0.121,-0.971,-0.221
37.890,-0.123,-0.975,-0.223
37.900,-0.125,-0.975,-0.223
37.909,-0.127,-0.980,-0.221
37.919,-0.125,-0.977,-0.223
37.929,-0.129,-0.980,-0.219
37.939,-0.129,-0.979,-0.217
37.949,-0.125,-0.979,-0.219
37.959,-0.127,-0.979,-0.223
37.969,-0.127,-0.980,-0.225
37.979,-0.125,-0.979,-0.225
37.989,-0.125,-0.977,-0.221
37.999,-0.125,-0.977,-0.221
38.009,-0.125,-0.973,-0.227
38.019,-0.123,-0.971,-0.223
38.029,-0.129,-0.971,-0.223
38.038,-0.127,-0.967,-0.219
38.048,-0.129,-0.965,-0.221
38.058,-0.123,-0.969,-0.223
38.068,-0.125,-0.973,-0.227
38.078,-0.129,-0.969,-0.223
38.088,-0.133,-0.975,-0.223
38.098,-0.137,-0.973,-0.223
38.108,-0.141,-0.973,-0.225
38.118,-0.139,-0.975,-0.223
38.128,-0.135,-0.973,-0.227
38.138,-0.133,-0.975,-0.225
38.148,-0.131,-0.973,-0.219
38.158,-0.135,-0.971,-0.223
38.167,-0.131,-0.975,-0.219
38.177,-0.131,-0.977,-0.223
38.187,-0.133,-0.979,-0.223
38.197,-0.135,-0.975,-0.221
38.207,-0.131,-0.977,-0.223
38.217,-0.127,-0.975,-0.223
38.227,-0.125,-0.975,-0.229
38.237,-0.125,-0.975,-0.225
38.247,-0.127,-0.971,-0.225
38.257,-0.125,-0.971,-0.221
38.267,-0.125,-0.973,-0.227
38.277,-0.125,-0.977,-0.227
38.287,-0.125,-0.975,-0.217
38.297,-0.127,-0.975,-0.221
38.306,-0.125,-0.977,-0.223
38.316,-0.129,-0.975,-0.221
38.326,-0.131,-0.971,-0.217
38.336,-0.131,-0.975,-0.221
38.346,-0.129,-0.979,-0.225
38.356,-0.129,-0.979,-0.225
38.366,-0.129,-0.979,-0.221
38.376,-0.123,-0.979,-0.223
38.386,-0.123,-0.979,-0.227
38.396,-0.125,-0.975,-0.223
38.406,-0.127,-0.977,-0.223
38.416,-0.125,-0.975,-0.221
38.426,-0.123,-0.973,-0.223
38.435,-0.123,-0.975,-0.221
38.445,-0.123,-0.973,-0.223
38.455,-0.121,-0.977,-0.223
38.465,-0.121,-0.975,-0.223
38.475,-0.121,-0.973,-0.223
38.485,-0.123,-0.975,-0.223
38.495,-0.123,-0.977,-0.221
38.505,-0.125,-0.977,-0.223
38.515,-0.125,-0.979,-0.225
38.525,-0.123,-0.975,-0.223
38.535,-0.127,-0.977,-0.221
38.545,-0.129,-0.979,-0.223
38.555,-0.127,-0.980,-0.229
38.565,-0.127,-0.980,-0.225
38.574,-0.129,-0.979,-0.219
38.584,-0.125,-0.977,-0.225
38.594,-0.125,-0.977,-0.229
38.604,-0.127,-0.977,-0.225
38.614,-0.125,-0.973,-0.225
38.624,-0.129,-0.969,-0.223
38.634,-0.125,-0.971,-0.221
38.644,-0.121,-0.969,-0.223
38.654,-0.121,-0.967,-0.225
38.664,-0.127,-0.969,-0.223
38.674,-0.129,-0.971,-0.219
38.684,-0.135,-0.975,-0.219
38.694,-0.137,-0.980,-0.225
38.703,-0.137,-0.979,-0.227
38.713,-0.135,-0.979,-0.225
38.723,-0.133,-0.975,-0.227
38.733,-0.135,-0.973,-0.225
38.743,-0.131,-0.971,-0.229
38.753,-0.131,-0.973,-0.221
38.763,-0.135,-0.971,-0.223
38.773,-0.137,-0.975,-0.221
38.783,-0.131,-0.973,-0.227
38.793,-0.131,-0.973,-0.223
38.803,-0.129,-0.973,-0.225
38.813,-0.129,-0.973,-0.225
38.823,-0.133,-0.975,-0.227
38.832,-0.129,-0.973,-0.219
38.842,-0.131,-0.969,-0.221
38.852,-0.133,-0.973,-0.223
38.862,-0.135,-0.977,-0.225
38.872,-0.129,-0.975,-0.221
38.882,-0.129,-0.975,-0.223
38.892,-0.127,-0.975,-0.227
38.902,-0.131,-0.977,-0.219
38.912,-0.133,-0.975,-0.223
38.922,-0.133,-0.975,-0.223
38.932,-0.133,-0.980,-0.225
38.942,-0.131,-0.980,-0.221
38.952,-0.133,-0.977,-0.223
38.962,-0.131,-0.977,-0.229
38.971,-0.127,-0.977,-0.225
38.981,-0.129,-0.979,-0.225
38.991,-0.131,-0.973,-0.225
39.001,-0.131,-0.973,-0.223
39.011,-0.127,-0.969,-0.225
39.021,-0.127,-0.973,-0.225
39.031,-0.127,-0.969,-0.227
39.041,-0.127,-0.967,-0.223
39.051,-0.129,-0.971,-0.223
39.061,-0.127,-0.973,-0.227
39.071,-0.131,-0.975,-0.229
39.081,-0.133,-0.977,-0.227
39.091,-0.133,-0.977,-0.223
39.100,-0.133,-0.975,-0.225
39.110,-0.133,-0.977,-0.221
39.120,-0.133,-0.975,-0.219
39.130,-0.137,-0.973,-0.223
39.140,-0.131,-0.977,-0.227
39.150,-0.127,-0.979,-0.223
39.160,-0.127,-0.977,-0.229
39.170,-0.131,-0.975,-0.225
39.180,-0.131,-0.977,-0.229
39.190,-0.133,-0.973,-0.225
39.200,-0.127,-0.971,-0.221
39.210,-0.127,-0.969,-0.227
39.220,-0.127,-0.969,-0.227
39.229,-0.121,-0.969,-0.217
39.239,-0.125,-0.971,-0.227
39.249,-0.131,-0.967,-0.223
39.259,-0.141,-0.973,-0.217
39.269,-0.143,-0.977,-0.225
39.279,-0.139,-0.973,-0.229
39.289,-0.137,-0.980,-0.225
39.299,-0.135,-0.979,-0.230
39.309,-0.137,-0.975,-0.221
39.319,-0.139,-0.977,-0.221
39.329,-0.133,-0.971,-0.225
39.339,-0.133,-0.971,-0.217
39.349,-0.137,-0.969,-0.223
39.359,-0.133,-0.975,-0.223
39.368,-0.131,-0.977,-0.227
39.378,-0.127,-0.977,-0.229
39.388,-0.129,-0.979,-0.230
39.398,-0.129,-0.973,-0.229
39.408,-0.129,-0.971,-0.225
39.418,-0.125,-0.969,-0.223
39.428,-0.129,-0.967,-0.223
39.438,-0.131,-0.971,-0.225
39.448,-0.129,-0.973,-0.225
39.458,-0.129,-0.971,-0.225
39.468,-0.131,-0.979,-0.227
39.478,-0.129,-0.977,-0.229
39.488,-0.131,-0.971,-0.221
39.497,-0.133,-0.971,-0.221
39.507,-0.133,-0.975,-0.223
39.517,-0.133,-0.975,-0.225
39.527,-0.131,-0.975,-0.225
39.537,-0.127,-0.973,-0.223
39.547,-0.125,-0.977,-0.227
39.557,-0.129,-0.977,-0.227
39.567,-0.131,-0.973,-0.227
39.577,-0.127,-0.975,-0.225
39.587,-0.127,-0.973,-0.225
39.597,-0.125,-0.975,-0.227
39.607,-0.127,-0.971,-0.221
39.617,-0.125,-0.975,-0.223
39.627,-0.127,-0.973,-0.221
39.636,-0.127,-0.977,-0.223
39.646,-0.125,-0.975,-0.225
39.656,-0.129,-0.975,-0.227
39.666,-0.129,-0.977,-0.225
39.676,-0.133,-0.977,-0.223
39.686,-0.127,-0.979,-0.221
39.696,-0.131,-0.977,-0.223
39.706,-0.129,-0.975,-0.223
39.716,-0.127,-0.975,-0.219
39.726,-0.131,-0.975,-0.223
39.736,-0.129,-0.977,-0.225
39.746,-0.127,-0.973,-0.223
39.756,-0.125,-0.977,-0.223
39.765,-0.129,-0.975,-0.229
39.775,-0.129,-0.977,-0.230
39.785,-0.127,-0.971,-0.225
39.795,-0.127,-0.973,-0.225
39.805,-0.127,-0.969,-0.227
39.815,-0.123,-0.969,-0.225
39.825,-0.127,-0.967,-0.223
39.835,-0.125,-0.969,-0.223
39.845,-0.129,-0.973,-0.227
39.855,-0.133,-0.973,-0.223
39.865,-0.137,-0.973,-0.227
39.875,-0.141,-0.977,-0.225
39.885,-0.135,-0.975,-0.227
39.894,-0.133,-0.977,-0.229
39.904,-0.133,-0.973,-0.227
39.914,-0.129,-0.971,-0.225
39.924,-0.131,-0.973,-0.223
39.934,-0.131,-0.973,-0.223
39.944,-0.135,-0.975,-0.225
39.954,-0.137,-0.975,-0.221
39.964,-0.131,-0.977,-0.223
39.974,-0.127,-0.971,-0.230
39.984,-0.125,-0.975,-0.227
39.994,-0.125,-0.971,-0.227
40.004,-0.123,-0.973,-0.223
40.014,-0.125,-0.971,-0.225
40.024,-0.127,-0.969,-0.225
40.033,-0.127,-0.971,-0.227
40.043,-0.131,-0.973,-0.225
40.053,-0.127,-0.973,-0.225
40.063,-0.127,-0.977,-0.227
40.073,-0.127,-0.975,-0.225
40.083,-0.131,-0.973,-0.219
40.093,-0.127,-0.975,-0.219
40.103,-0.125,-0.975,-0.223
40.113,-0.123,-0.977,-0.227
40.123,-0.125,-0.979,-0.221
40.133,-0.123,-0.977,-0.227
40.143,-0.121,-0.977,-0.229
40.153,-0.123,-0.975,-0.229
40.162,-0.123,-0.975,-0.223
40.172,-0.121,-0.977,-0.227
40.182,-0.121,-0.980,-0.227
40.192,-0.121,-0.975,-0.219
40.202,-0.119,-0.973,-0.221
40.212,-0.121,-0.971,-0.227
40.222,-0.119,-0.969,-0.227
40.232,-0.119,-0.971,-0.223
40.242,-0.123,-0.965,-0.217
40.252,-0.121,-0.971,-0.221
40.262,-0.125,-0.977,-0.225
40.272,-0.123,-0.980,-0.225
40.282,-0.125,-0.980,-0.225
40.292,-0.125,-0.982,-0.223
40.301,-0.123,-0.980,-0.225
40.311,-0.121,-0.977,-0.223
40.321,-0.121,-0.973,-0.225
40.331,-0.119,-0.975,-0.221
40.341,-0.115,-0.977,-0.227
40.351,-0.119,-0.977,-0.227
40.361,-0.121,-0.977,-0.225
40.371,-0.119,-0.975,-0.229
40.381,-0.121,-0.977,-0.229
40.391,-0.121,-0.973,-0.225
40.401,-0.121,-0.973,-0.230
40.411,-0.121,-0.969,-0.223
40.421,-0.123,-0.965,-0.221
40.430,-0.123,-0.971,-0.221
40.440,-0.121,-0.969,-0.223
40.450,-0.123,-0.971,-0.223
40.460,-0.131,-0.973,-0.223
40.470,-0.137,-0.975,-0.225
40.480,-0.133,-0.979,-0.223
40.490,-0.131,-0.975,-0.225
40.500,-0.127,-0.975,-0.225
40.510,-0.127,-0.977,-0.225
40.520,-0.123,-0.977,-0.225
40.530,-0.125,-0.977,-0.219
40.540,-0.123,-0.975,-0.221
40.550,-0.121,-0.977,-0.223
40.559,-0.123,-0.979,-0.223
40.569,-0.119,-0.975,-0.221
40.579,-0.117,-0.969,-0.225
40.589,-0.119,-0.975,-0.225
40.599,-0.119,-0.977,-0.225
40.609,-0.117,-0.975,-0.221
40.619,-0.121,-0.973,-0.217
40.629,-0.123,-0.975,-0.223
40.639,-0.125,-0.975,-0.223
40.649,-0.119,-0.973,-0.219
40.659,-0.117,-0.977,-0.221
40.669,-0.117,-0.977,-0.227
40.679,-0.123,-0.977,-0.223
40.689,-0.119,-0.975,-0.223
40.698,-0.121,-0.977,-0.225
40.708,-0.121,-0.979,-0.223
40.718,-0.123,-0.979,-0.223
40.728,-0.121,-0.977,-0.221
40.738,-0.119,-0.982,-0.223
40.748,-0.121,-0.980,-0.225
40.758,-0.123,-0.979,-0.223
40.768,-0.123,-0.977,-0.221
40.778,-0.119,-0.979,-0.223
40.788,-0.117,-0.977,-0.223
40.798,-0.119,-0.975,-0.223
40.808,-0.119,-0.975,-0.223
40.818,-0.119,-0.971,-0.223
40.827,-0.119,-0.969,-0.217
40.837,-0.121,-0.975,-0.221
40.847,-0.123,-0.977,-0.219
40.857,-0.123,-0.979,-0.225
40.867,-0.123,-0.975,-0.221
40.877,-0.121,-0.971,-0.221
40.887,-0.121,-0.980,-0.219
40.897,-0.121,-0.977,-0.223
40.907,-0.121,-0.977,-0.223
40.917,-0.123,-0.973,-0.223
40.927,-0.119,-0.973,-0.221
40.937,-0.119,-0.979,-0.223
40.947,-0.117,-0.980,-0.227
40.956,-0.121,-0.977,-0.225
40.966,-0.123,-0.971,-0.219
40.976,-0.119,-0.977,-0.223
40.986,-0.119,-0.979,-0.229
40.996,-0.117,-0.971,-0.225
41.006,-0.117,-0.967,-0.221
41.016,-0.119,-0.969,-0.221
41.026,-0.117,-0.971,-0.225
41.036,-0.115,-0.973,-0.217
41.046,-0.125,-0.975,-0.217
41.056,-0.127,-0.979,-0.227
41.066,-0.129,-0.980,-0.229
41.076,-0.129,-0.977,-0.227
41.086,-0.127,-0.975,-0.221
41.095,-0.123,-0.979,-0.225
41.105,-0.123,-0.979,-0.227
41.115,-0.119,-0.979,-0.223
41.125,-0.121,-0.979,-0.219
41.135,-0.123,-0.975,-0.221
41.145,-0.119,-0.971,-0.221
41.155,-0.119,-0.973,-0.221
41.165,-0.119,-0.973,-0.227
41.175,-0.117,-0.979,-0.225
41.185,-0.119,-0.973,-0.223
41.195,-0.119,-0.975,-0.217
41.205,-0.115,-0.977,-0.221
41.215,-0.119,-0.973,-0.229
41.224,-0.117,-0.969,-0.227
41.234,-0.117,-0.975,-0.219
41.244,-0.115,-0.971,-0.221
41.254,-0.115,-0.973,-0.221
41.264,-0.125,-0.979,-0.217
41.274,-0.123,-0.977,-0.219
41.284,-0.123,-0.979,-0.223
41.294,-0.123,-0.980,-0.225
41.304,-0.121,-0.979,-0.223
41.314,-0.123,-0.977,-0.221
41.324,-0.121,-0.980,-0.223
41.334,-0.119,-0.977,-0.219
41.344,-0.115,-0.977,-0.215
41.354,-0.115,-0.977,-0.219
41.363,-0.115,-0.979,-0.225
41.373,-0.115,-0.973,-0.219
41.383,-0.117,-0.973,-0.219
41.393,-0.113,-0.975,-0.223
41.403,-0.109,-0.977,-0.221
41.413,-0.111,-0.975,-0.221
41.423,-0.113,-0.977,-0.223
41.433,-0.113,-0.977,-0.221
41.443,-0.111,-0.975,-0.219
41.453,-0.113,-0.973,-0.219
41.463,-0.115,-0.975,-0.219
41.473,-0.113,-0.980,-0.221
41.483,-0.113,-0.979,-0.225
41.492,-0.113,-0.979,-0.223
41.502,-0.115,-0.979,-0.219
41.512,-0.115,-0.982,-0.225
41.522,-0.115,-0.980,-0.229
41.532,-0.115,-0.975,-0.223
41.542,-0.115,-0.977,-0.219
41.552,-0.115,-0.975,-0.225
41.562,-0.113,-0.973,-0.225
41.572,-0.115,-0.973,-0.225
41.582,-0.119,-0.971,-0.221
41.592,-0.119,-0.975,-0.219
41.602,-0.121,-0.967,-0.217
41.612,-0.123,-0.973,-0.219
41.621,-0.129,-0.977,-0.225
41.631,-0.125,-0.982,-0.229
41.641,-0.129,-0.980,-0.227
41.651,-0.125,-0.979,-0.221
41.661,-0.121,-0.975,-0.225
41.671,-0.121,-0.973,-0.219
41.681,-0.119,-0.975,-0.219
41.691,-0.123,-0.980,-0.221
41.701,-0.127,-0.977,-0.221
41.711,-0.127,-0.979,-0.223
41.721,-0.121,-0.977,-0.223
41.731,-0.125,-0.971,-0.217
41.741,-0.123,-0.971,-0.217
41.751,-0.123,-0.973,-0.219
41.760,-0.121,-0.973,-0.217
41.770,-0.123,-0.973,-0.219
41.780,-0.123,-0.969,-0.221
41.790,-0.119,-0.975,-0.227
41.800,-0.123,-0.975,-0.221
41.810,-0.125,-0.975,-0.221
41.820,-0.121,-0.973,-0.217
41.830,-0.125,-0.971,-0.217
41.840,-0.125,-0.973,-0.219
41.850,-0.123,-0.977,-0.221
41.860,-0.123,-0.980,-0.229
41.870,-0.121,-0.980,-0.225
41.880,-0.119,-0.977,-0.223
41.889,-0.119,-0.975,-0.217
41.899,-0.117,-0.977,-0.219
41.909,-0.119,-0.975,-0.223
41.919,-0.115,-0.975,-0.223
41.929,-0.111,-0.975,-0.217
41.939,-0.117,-0.977,-0.223
41.949,-0.113,-0.980,-0.225
41.959,-0.115,-0.977,-0.225
41.969,-0.113,-0.977,-0.221
41.979,-0.111,-0.979,-0.221
41.989,-0.115,-0.975,-0.227
41.999,-0.115,-0.975,-0.217
42.009,-0.113,-0.977,-0.219
42.019,-0.117,-0.975,-0.221
42.028,-0.117,-0.979,-0.223
42.038,-0.119,-0.977,-0.221
42.048,-0.121,-0.975,-0.217
42.058,-0.125,-0.979,-0.221
42.068,-0.123,-0.980,-0.229
42.078,-0.125,-0.977,-0.223
42.088,-0.125,-0.975,-0.221
42.098,-0.121,-0.969,-0.215
42.108,-0.117,-0.969,-0.221
42.118,-0.115,-0.971,-0.219
42.128,-0.117,-0.975,-0.219
42.138,-0.119,-0.973,-0.223
42.148,-0.125,-0.975,-0.217
42.157,-0.129,-0.975,-0.223
42.167,-0.129,-0.979,-0.225
42.177,-0.129,-0.980,-0.229
42.187,-0.129,-0.979,-0.223
42.197,-0.129,-0.975,-0.223
42.207,-0.125,-0.973,-0.223
42.217,-0.127,-0.971,-0.211
42.227,-0.125,-0.971,-0.219
42.237,-0.125,-0.979,-0.221
42.247,-0.127,-0.979,-0.223
42.257,-0.131,-0.977,-0.225
42.267,-0.125,-0.979,-0.221
42.277,-0.123,-0.975,-0.227
42.286,-0.123,-0.975,-0.219
42.296,-0.123,-0.973,-0.221
42.306,-0.121,-0.971,-0.221
42.316,-0.119,-0.971,-0.221
42.326,-0.119,-0.971,-0.225
42.336,-0.119,-0.975,-0.223
42.346,-0.121,-0.977,-0.225
42.356,-0.119,-0.979,-0.225
42.366,-0.123,-0.975,-0.219
42.376,-0.125,-0.973,-0.215
42.386,-0.125,-0.975,-0.221
42.396,-0.123,-0.977,-0.225
42.406,-0.127,-0.975,-0.219
42.416,-0.127,-0.975,-0.223
42.425,-0.123,-0.979,-0.221
42.435,-0.121,-0.977,-0.221
42.445,-0.125,-0.977,-0.221
42.455,-0.123,-0.980,-0.219
42.465,-0.119,-0.977,-0.219
42.475,-0.117,-0.973,-0.217
42.485,-0.119,-0.980,-0.223
42.495,-0.115,-0.977,-0.223
42.505,-0.113,-0.973,-0.219
42.515,-0.113,-0.973,-0.221
42.525,-0.113,-0.979,-0.223
42.535,-0.115,-0.979,-0.221
42.545,-0.117,-0.977,-0.223
42.554,-0.119,-0.977,-0.219
42.564,-0.121,-0.980,-0.223
42.574,-0.123,-0.977,-0.225
42.584,-0.123,-0.980,-0.221
42.594,-0.127,-0.977,-0.223
42.604,-0.123,-0.979,-0.223
42.614,-0.129,-0.973,-0.223
42.624,-0.129,-0.973,-0.225
42.634,-0.127,-0.979,-0.227
42.644,-0.127,-0.977,-0.223
42.654,-0.127,-0.971,-0.223
42.664,-0.125,-0.971,-0.227
42.674,-0.121,-0.967,-0.225
42.683,-0.125,-0.969,-0.223
42.693,-0.125,-0.969,-0.223
42.703,-0.133,-0.971,-0.225
42.713,-0.135,-0.977,-0.227
42.723,-0.143,-0.979,-0.230
42.733,-0.139,-0.975,-0.229
42.743,-0.135,-0.975,-0.229
42.753,-0.137,-0.973,-0.232
42.763,-0.135,-0.971,-0.225
42.773,-0.133,-0.973,-0.225
42.783,-0.135,-0.969,-0.227
42.793,-0.135,-0.971,-0.225
42.803,-0.137,-0.975,-0.229
42.813,-0.137,-0.973,-0.232
42.822,-0.135,-0.973,-0.230
42.832,-0.137,-0.969,-0.227
42.842,-0.129,-0.971,-0.229
42.852,-0.131,-0.971,-0.234
42.862,-0.129,-0.971,-0.230
42.872,-0.135,-0.967,-0.227
42.882,-0.135,-0.975,-0.234
42.892,-0.133,-0.969,-0.234
42.902,-0.133,-0.969,-0.230
42.912,-0.137,-0.969,-0.230
42.922,-0.133,-0.967,-0.236
42.932,-0.133,-0.969,-0.230
42.942,-0.139,-0.963,-0.234
42.951,-0.139,-0.973,-0.236
42.961,-0.141,-0.969,-0.234
42.971,-0.135,-0.969,-0.232
42.981,-0.135,-0.969,-0.238
42.991,-0.133,-0.969,-0.236
43.001,-0.133,-0.969,-0.236
43.011,-0.139,-0.973,-0.236
43.021,-0.139,-0.971,-0.240
43.031,-0.133,-0.973,-0.236
43.041,-0.133,-0.973,-0.236
43.051,-0.129,-0.975,-0.238
43.061,-0.129,-0.971,-0.240
43.071,-0.121,-0.969,-0.238
43.081,-0.119,-0.957,-0.234
43.090,-0.127,-0.959,-0.236
43.100,-0.131,-0.967,-0.246
43.110,-0.141,-0.965,-0.244
43.120,-0.146,-0.967,-0.234
43.130,-0.129,-0.967,-0.236
43.140,-0.135,-0.975,-0.242
43.150,-0.139,-0.977,-0.244
43.160,-0.133,-0.973,-0.236
43.170,-0.127,-0.973,-0.236
43.180,-0.125,-0.973,-0.242
43.190,-0.127,-0.973,-0.242
43.200,-0.131,-0.971,-0.234
43.210,-0.127,-0.965,-0.240
43.219,-0.129,-0.969,-0.238
43.229,-0.127,-0.975,-0.240
43.239,-0.131,-0.971,-0.242
43.249,-0.121,-0.971,-0.230
43.259,-0.117,-0.975,-0.230
43.269,-0.115,-0.971,-0.236
43.279,-0.125,-0.971,-0.230
43.289,-0.133,-0.967,-0.223
43.299,-0.133,-0.975,-0.227
43.309,-0.125,-0.973,-0.236
43.319,-0.133,-0.975,-0.234
43.329,-0.139,-0.971,-0.232
43.339,-0.143,-0.973,-0.232
43.348,-0.139,-0.977,-0.232
43.358,-0.139,-0.979,-0.232
43.368,-0.137,-0.980,-0.232
43.378,-0.137,-0.979,-0.232
43.388,-0.135,-0.975,-0.234
43.398,-0.141,-0.977,-0.240
43.408,-0.141,-0.977,-0.236
43.418,-0.141,-0.977,-0.234
43.428,-0.141,-0.975,-0.232
43.438,-0.143,-0.973,-0.232
43.448,-0.148,-0.975,-0.238
43.458,-0.146,-0.971,-0.229
43.468,-0.146,-0.969,-0.227
43.478,-0.143,-0.973,-0.234
43.487,-0.143,-0.969,-0.242
43.497,-0.152,-0.961,-0.230
43.507,-0.156,-0.961,-0.221
43.517,-0.164,-0.963,-0.234
43.527,-0.168,-0.965,-0.236
43.537,-0.170,-0.969,-0.236
43.547,-0.166,-0.963,-0.234
43.557,-0.170,-0.965,-0.236
43.567,-0.168,-0.965,-0.238
43.577,-0.170,-0.959,-0.236
43.587,-0.174,-0.959,-0.230
43.597,-0.176,-0.961,-0.236
43.607,-0.182,-0.967,-0.238
43.616,-0.186,-0.965,-0.240
43.626,-0.189,-0.963,-0.234
43.636,-0.189,-0.961,-0.242
43.646,-0.195,-0.961,-0.246
43.656,-0.188,-0.957,-0.238
43.666,-0.184,-0.957,-0.234
43.676,-0.188,-0.957,-0.238
43.686,-0.188,-0.957,-0.240
43.696,-0.189,-0.957,-0.238
43.706,-0.193,-0.959,-0.238
43.716,-0.191,-0.957,-0.242
43.726,-0.193,-0.961,-0.234
43.736,-0.193,-0.957,-0.238
43.746,-0.197,-0.967,-0.236
43.755,-0.197,-0.963,-0.242
43.765,-0.197,-0.959,-0.238
43.775,-0.199,-0.961,-0.238
43.785,-0.197,-0.959,-0.244
43.795,-0.199,-0.961,-0.244
43.805,-0.201,-0.959,-0.240
43.815,-0.203,-0.959,-0.242
43.825,-0.201,-0.955,-0.242
43.835,-0.199,-0.955,-0.238
43.845,-0.197,-0.955,-0.242
43.855,-0.199,-0.951,-0.238
43.865,-0.201,-0.953,-0.234
43.875,-0.205,-0.955,-0.234
43.884,-0.209,-0.955,-0.236
43.894,-0.211,-0.959,-0.236
43.904,-0.211,-0.959,-0.240
43.914,-0.209,-0.961,-0.238
43.924,-0.201,-0.961,-0.236
43.934,-0.203,-0.963,-0.244
43.944,-0.205,-0.955,-0.236
43.954,-0.205,-0.957,-0.232
43.964,-0.205,-0.959,-0.236
43.974,-0.205,-0.961,-0.236
43.984,-0.205,-0.959,-0.234
43.994,-0.203,-0.963,-0.238
44.004,-0.201,-0.957,-0.242
44.013,-0.201,-0.959,-0.236
44.023,-0.197,-0.955,-0.230
44.033,-0.199,-0.959,-0.225
44.043,-0.197,-0.959,-0.229
44.053,-0.197,-0.961,-0.234
44.063,-0.189,-0.959,-0.232
44.073,-0.195,-0.963,-0.230
44.083,-0.197,-0.967,-0.230
44.093,-0.191,-0.963,-0.230
44.103,-0.189,-0.963,-0.230
44.113,-0.191,-0.971,-0.229
44.123,-0.191,-0.967,-0.230
44.133,-0.195,-0.969,-0.225
44.143,-0.195,-0.971,-0.225
44.152,-0.193,-0.967,-0.230
44.162,-0.191,-0.969,-0.230
44.172,-0.193,-0.967,-0.225
44.182,-0.193,-0.967,-0.225
44.192,-0.197,-0.965,-0.219
44.202,-0.186,-0.967,-0.225
44.212,-0.191,-0.969,-0.236
44.222,-0.193,-0.971,-0.223
44.232,-0.189,-0.973,-0.225
44.242,-0.189,-0.969,-0.234
44.252,-0.189,-0.969,-0.232
44.262,-0.191,-0.967,-0.232
44.272,-0.195,-0.967,-0.236
44.281,-0.191,-0.967,-0.232
44.291,-0.188,-0.971,-0.232
44.301,-0.184,-0.980,-0.234
44.311,-0.172,-0.975,-0.244
44.321,-0.182,-0.965,-0.248
44.331,-0.182,-0.973,-0.232
44.341,-0.176,-0.980,-0.242
44.351,-0.184,-0.963,-0.264
44.361,-0.191,-0.967,-0.250
44.371,-0.186,-0.961,-0.230
44.381,-0.178,-0.955,-0.246
44.391,-0.170,-0.957,-0.248
44.401,-0.174,-0.959,-0.250
44.410,-0.176,-0.953,-0.248
44.420,-0.191,-0.955,-0.254
44.430,-0.186,-0.953,-0.250
44.440,-0.195,-0.951,-0.252
44.450,-0.193,-0.951,-0.252
44.460,-0.201,-0.951,-0.252
44.470,-0.209,-0.951,-0.254
44.480,-0.205,-0.949,-0.246
44.490,-0.195,-0.951,-0.242
44.500,-0.195,-0.951,-0.248
44.510,-0.203,-0.957,-0.246
44.520,-0.197,-0.961,-0.246
44.530,-0.203,-0.961,-0.260
44.540,-0.217,-0.965,-0.266
44.549,-0.225,-0.963,-0.268
44.559,-0.238,-0.955,-0.254
44.569,-0.230,-0.945,-0.240
44.579,-0.225,-0.939,-0.232
44.589,-0.211,-0.943,-0.236
44.599,-0.213,-0.947,-0.250
44.609,-0.217,-0.947,-0.250
44.619,-0.229,-0.947,-0.250
44.629,-0.225,-0.951,-0.252
44.639,-0.227,-0.949,-0.242
44.649,-0.223,-0.945,-0.240
44.659,-0.227,-0.947,-0.246
44.669,-0.230,-0.945,-0.244
44.678,-0.230,-0.949,-0.240
44.688,-0.232,-0.947,-0.240
44.698,-0.230,-0.949,-0.232
44.708,-0.236,-0.949,-0.242
44.718,-0.246,-0.949,-0.242
44.728,-0.248,-0.951,-0.227
44.738,-0.242,-0.951,-0.232
44.748,-0.240,-0.945,-0.236
44.758,-0.244,-0.945,-0.232
44.768,-0.248,-0.947,-0.227
44.778,-0.242,-0.951,-0.227
44.788,-0.238,-0.949,-0.230
44.798,-0.242,-0.951,-0.236
44.808,-0.238,-0.953,-0.230
44.817,-0.240,-0.955,-0.234
44.827,-0.232,-0.961,-0.225
44.837,-0.229,-0.961,-0.230
44.847,-0.229,-0.957,-0.227
44.857,-0.238,-0.963,-0.217
44.867,-0.242,-0.963,-0.223
44.877,-0.238,-0.965,-0.225
44.887,-0.238,-0.973,-0.230
44.897,-0.240,-0.971,-0.238
44.907,-0.246,-0.973,-0.232
44.917,-0.246,-0.971,-0.234
44.927,-0.244,-0.965,-0.232
44.937,-0.238,-0.963,-0.234
44.946,-0.244,-0.959,-0.234
44.956,-0.246,-0.957,-0.229
44.966,-0.240,-0.957,-0.232
44.976,-0.234,-0.949,-0.234
44.986,-0.236,-0.951,-0.232
44.996,-0.236,-0.951,-0.232
45.006,-0.240,-0.943,-0.232
45.016,-0.242,-0.941,-0.232
45.026,-0.242,-0.951,-0.238
45.036,-0.238,-0.947,-0.244
45.046,-0.236,-0.947,-0.234
45.056,-0.234,-0.947,-0.232
45.066,-0.238,-0.943,-0.236
45.075,-0.240,-0.949,-0.236
45.085,-0.242,-0.953,-0.240
45.095,-0.242,-0.955,-0.238
45.105,-0.238,-0.957,-0.234
45.115,-0.240,-0.955,-0.236
45.125,-0.246,-0.953,-0.234
45.135,-0.246,-0.957,-0.230
45.145,-0.250,-0.953,-0.234
45.155,-0.252,-0.953,-0.236
45.165,-0.252,-0.955,-0.236
45.175,-0.254,-0.955,-0.232
45.185,-0.258,-0.951,-0.232
45.195,-0.262,-0.955,-0.229
45.205,-0.266,-0.951,-0.227
45.214,-0.266,-0.945,-0.223
45.224,-0.266,-0.947,-0.219
45.234,-0.271,-0.949,-0.225
45.244,-0.275,-0.951,-0.223
45.254,-0.277,-0.947,-0.217
45.264,-0.281,-0.947,-0.219
45.274,-0.277,-0.943,-0.221
45.284,-0.273,-0.947,-0.223
45.294,-0.275,-0.941,-0.219
45.304,-0.277,-0.949,-0.211
45.314,-0.275,-0.951,-0.213
45.324,-0.277,-0.949,-0.217
45.334,-0.273,-0.945,-0.213
45.343,-0.273,-0.943,-0.207
45.353,-0.275,-0.953,-0.209
45.363,-0.275,-0.955,-0.215
45.373,-0.273,-0.953,-0.217
45.383,-0.273,-0.953,-0.211
45.393,-0.273,-0.961,-0.213
45.403,-0.270,-0.961,-0.217
45.413,-0.273,-0.965,-0.219
45.423,-0.271,-0.963,-0.219
45.433,-0.266,-0.959,-0.217
45.443,-0.264,-0.959,-0.217
45.453,-0.266,-0.957,-0.217
45.463,-0.264,-0.957,-0.209
45.473,-0.262,-0.963,-0.217
45.482,-0.260,-0.961,-0.225
45.492,-0.260,-0.955,-0.217
45.502,-0.260,-0.951,-0.215
45.512,-0.256,-0.951,-0.217
45.522,-0.252,-0.957,-0.219
45.532,-0.250,-0.955,-0.221
45.542,-0.254,-0.955,-0.221
45.552,-0.258,-0.951,-0.217
45.562,-0.264,-0.951,-0.213
45.572,-0.260,-0.949,-0.211
45.582,-0.260,-0.953,-0.215
45.592,-0.262,-0.959,-0.221
45.602,-0.262,-0.961,-0.217
45.611,-0.266,-0.959,-0.215
45.621,-0.268,-0.957,-0.215
45.631,-0.264,-0.955,-0.217
45.641,-0.266,-0.957,-0.211
45.651,-0.264,-0.955,-0.203
45.661,-0.262,-0.959,-0.207
45.671,-0.258,-0.963,-0.211
45.681,-0.258,-0.963,-0.209
45.691,-0.264,-0.959,-0.207
45.701,-0.264,-0.961,-0.207
45.711,-0.260,-0.959,-0.211
45.721,-0.260,-0.961,-0.209
45.731,-0.260,-0.961,-0.209
45.740,-0.262,-0.959,-0.209
45.750,-0.268,-0.959,-0.207
45.760,-0.271,-0.961,-0.201
45.770,-0.271,-0.959,-0.203
45.780,-0.268,-0.963,-0.213
45.790,-0.268,-0.961,-0.211
45.800,-0.270,-0.963,-0.211
45.810,-0.266,-0.963,-0.207
45.820,-0.268,-0.957,-0.211
45.830,-0.268,-0.957,-0.209
45.840,-0.270,-0.955,-0.209
45.850,-0.268,-0.951,-0.207
45.860,-0.271,-0.955,-0.207
45.870,-0.270,-0.955,-0.213
45.879,-0.268,-0.955,-0.211
45.889,-0.268,-0.955,-0.213
45.899,-0.270,-0.957,-0.213
45.909,-0.268,-0.953,-0.211
45.919,-0.266,-0.951,-0.213
45.929,-0.266,-0.955,-0.209
45.939,-0.270,-0.957,-0.207
45.949,-0.264,-0.953,-0.213
45.959,-0.262,-0.957,-0.217
45.969,-0.262,-0.957,-0.213
45.979,-0.262,-0.953,-0.209
45.989,-0.266,-0.955,-0.209
45.999,-0.266,-0.957,-0.215
46.008,-0.266,-0.953,-0.219
46.018,-0.262,-0.953,-0.211
46.028,-0.264,-0.955,-0.215
46.038,-0.260,-0.949,-0.213
46.048,-0.262,-0.951,-0.211
46.058,-0.264,-0.953,-0.213
46.068,-0.264,-0.955,-0.213
46.078,-0.266,-0.949,-0.211
46.088,-0.271,-0.953,-0.209
46.098,-0.273,-0.955,-0.213
46.108,-0.270,-0.957,-0.213
46.118,-0.271,-0.959,-0.217
46.128,-0.270,-0.957,-0.215
46.137,-0.266,-0.957,-0.213
46.147,-0.266,-0.959,-0.211
46.157,-0.268,-0.959,-0.211
46.167,-0.262,-0.959,-0.215
46.177,-0.262,-0.959,-0.211
46.187,-0.260,-0.961,-0.211
46.197,-0.254,-0.961,-0.213
46.207,-0.254,-0.959,-0.215
46.217,-0.252,-0.957,-0.215
46.227,-0.252,-0.959,-0.209
46.237,-0.256,-0.957,-0.217
46.247,-0.258,-0.957,-0.217
46.257,-0.256,-0.959,-0.215
46.267,-0.254,-0.961,-0.215
46.276,-0.258,-0.961,-0.223
46.286,-0.258,-0.961,-0.219
46.296,-0.258,-0.957,-0.213
46.306,-0.262,-0.957,-0.211
46.316,-0.260,-0.955,-0.215
46.326,-0.262,-0.955,-0.223
46.336,-0.262,-0.957,-0.217
46.346,-0.266,-0.957,-0.219
46.356,-0.262,-0.955,-0.221
46.366,-0.258,-0.953,-0.219
46.376,-0.260,-0.949,-0.217
46.386,-0.262,-0.949,-0.215
46.396,-0.260,-0.953,-0.217
46.405,-0.258,-0.951,-0.223
46.415,-0.258,-0.951,-0.219
46.425,-0.260,-0.953,-0.219
46.435,-0.262,-0.949,-0.215
46.445,-0.260,-0.949,-0.217
46.455,-0.260,-0.951,-0.217
46.465,-0.262,-0.951,-0.215
46.475,-0.262,-0.951,-0.217
46.485,-0.260,-0.957,-0.217
46.495,-0.264,-0.959,-0.223
46.505,-0.266,-0.957,-0.219
46.515,-0.266,-0.955,-0.211
46.525,-0.264,-0.957,-0.217
46.535,-0.264,-0.957,-0.221
46.544,-0.264,-0.959,-0.219
46.554,-0.262,-0.953,-0.219
46.564,-0.262,-0.949,-0.215
46.574,-0.258,-0.949,-0.213
46.584,-0.256,-0.953,-0.217
46.594,-0.260,-0.951,-0.219
46.604,-0.258,-0.953,-0.221
46.614,-0.262,-0.953,-0.217
46.624,-0.266,-0.957,-0.221
46.634,-0.270,-0.957,-0.223
46.644,-0.268,-0.957,-0.221
46.654,-0.268,-0.955,-0.219
46.664,-0.268,-0.955,-0.219
46.673,-0.268,-0.955,-0.219
46.683,-0.270,-0.955,-0.219
46.693,-0.270,-0.955,-0.215
46.703,-0.271,-0.955,-0.217
46.713,-0.271,-0.959,-0.225
46.723,-0.266,-0.955,-0.221
46.733,-0.266,-0.951,-0.221
46.743,-0.262,-0.955,-0.219
46.753,-0.258,-0.951,-0.219
46.763,-0.264,-0.951,-0.219
46.773,-0.266,-0.947,-0.223
46.783,-0.264,-0.949,-0.221
46.793,-0.264,-0.949,-0.221
46.802,-0.262,-0.949,-0.221
46.812,-0.262,-0.947,-0.221
46.822,-0.262,-0.953,-0.217
46.832,-0.266,-0.949,-0.215
46.842,-0.268,-0.951,-0.217
46.852,-0.268,-0.953,-0.221
46.862,-0.270,-0.955,-0.221
46.872,-0.271,-0.959,-0.219
46.882,-0.270,-0.961,-0.219
46.892,-0.268,-0.955,-0.221
46.902,-0.264,-0.955,-0.219
46.912,-0.266,-0.953,-0.215
46.922,-0.266,-0.951,-0.217
46.932,-0.264,-0.951,-0.213
46.941,-0.264,-0.953,-0.217
