df_hash,22ZHK4.4XY8EU
device,HZ2X61
project_hash,29R7
project_name,istanbul_aydin_university
person_hash,29R7.43TV
person_label,V96
date_time_start,2025-11-04_18-24-47.110000_+03
date_time_start_unix,1762266287.11
date_time_end,2025-11-04_18-33-05.679000_+03
length_difference_noticed,no

time,acc_x,acc_y,acc_z
2.743,-0.484,0.848,-0.195
2.753,-0.486,0.848,-0.191
2.763,-0.486,0.848,-0.193
2.773,-0.482,0.850,-0.197
2.783,-0.482,0.850,-0.195
2.793,-0.480,0.852,-0.193
2.803,-0.480,0.852,-0.193
2.813,-0.482,0.854,-0.193
2.823,-0.484,0.855,-0.195
2.833,-0.486,0.852,-0.197
2.843,-0.482,0.854,-0.193
2.852,-0.484,0.850,-0.195
2.862,-0.482,0.852,-0.193
2.872,-0.480,0.854,-0.199
2.882,-0.482,0.857,-0.189
2.892,-0.482,0.848,-0.193
2.902,-0.480,0.840,-0.197
2.912,-0.477,0.844,-0.197
2.922,-0.480,0.850,-0.197
2.932,-0.482,0.855,-0.197
2.942,-0.482,0.857,-0.199
2.952,-0.484,0.857,-0.199
2.962,-0.482,0.855,-0.201
2.972,-0.482,0.857,-0.201
2.982,-0.484,0.854,-0.195
2.992,-0.479,0.850,-0.199
3.002,-0.477,0.846,-0.199
3.012,-0.479,0.850,-0.201
3.021,-0.475,0.848,-0.199
3.031,-0.475,0.848,-0.199
3.041,-0.475,0.852,-0.201
3.051,-0.477,0.852,-0.201
3.061,-0.479,0.855,-0.199
3.071,-0.479,0.854,-0.201
3.081,-0.475,0.855,-0.201
3.091,-0.479,0.852,-0.201
3.101,-0.479,0.852,-0.201
3.111,-0.477,0.854,-0.199
3.121,-0.482,0.852,-0.201
3.131,-0.480,0.852,-0.199
3.141,-0.480,0.848,-0.205
3.151,-0.482,0.848,-0.203
3.161,-0.484,0.850,-0.205
3.171,-0.482,0.854,-0.201
3.180,-0.484,0.854,-0.199
3.190,-0.482,0.857,-0.201
3.200,-0.484,0.855,-0.199
3.210,-0.480,0.857,-0.201
3.220,-0.480,0.861,-0.199
3.230,-0.477,0.857,-0.201
3.240,-0.477,0.854,-0.197
3.250,-0.479,0.852,-0.193
3.260,-0.477,0.850,-0.193
3.270,-0.475,0.848,-0.197
3.280,-0.477,0.848,-0.195
3.290,-0.475,0.846,-0.203
3.300,-0.477,0.846,-0.201
3.310,-0.480,0.848,-0.199
3.320,-0.484,0.855,-0.197
3.330,-0.486,0.861,-0.195
3.339,-0.486,0.863,-0.195
3.349,-0.484,0.859,-0.195
3.359,-0.484,0.855,-0.195
3.369,-0.484,0.850,-0.197
3.379,-0.482,0.852,-0.195
3.389,-0.479,0.848,-0.195
3.399,-0.479,0.848,-0.195
3.409,-0.479,0.848,-0.193
3.419,-0.479,0.850,-0.191
3.429,-0.480,0.852,-0.193
3.439,-0.479,0.852,-0.195
3.449,-0.480,0.852,-0.193
3.459,-0.482,0.854,-0.197
3.469,-0.482,0.854,-0.197
3.479,-0.484,0.850,-0.199
3.489,-0.482,0.850,-0.197
3.498,-0.484,0.854,-0.191
3.508,-0.480,0.852,-0.193
3.518,-0.484,0.855,-0.191
3.528,-0.480,0.852,-0.193
3.538,-0.479,0.850,-0.195
3.548,-0.480,0.850,-0.193
3.558,-0.482,0.854,-0.195
3.568,-0.479,0.855,-0.195
3.578,-0.482,0.854,-0.195
3.588,-0.480,0.857,-0.193
3.598,-0.482,0.855,-0.195
3.608,-0.480,0.855,-0.195
3.618,-0.482,0.854,-0.197
3.628,-0.480,0.850,-0.195
3.638,-0.479,0.850,-0.195
3.648,-0.477,0.850,-0.197
3.658,-0.479,0.852,-0.191
3.667,-0.480,0.852,-0.197
3.677,-0.482,0.852,-0.195
3.687,-0.484,0.854,-0.193
3.697,-0.484,0.854,-0.199
3.707,-0.484,0.854,-0.191
3.717,-0.482,0.854,-0.195
3.727,-0.479,0.852,-0.195
3.737,-0.482,0.854,-0.197
3.747,-0.482,0.852,-0.195
3.757,-0.482,0.850,-0.193
3.767,-0.486,0.850,-0.195
3.777,-0.486,0.848,-0.199
3.787,-0.486,0.844,-0.197
3.797,-0.482,0.848,-0.195
3.807,-0.484,0.854,-0.195
3.817,-0.486,0.852,-0.195
3.826,-0.486,0.850,-0.195
3.836,-0.484,0.852,-0.197
3.846,-0.480,0.854,-0.197
3.856,-0.486,0.855,-0.197
3.866,-0.486,0.854,-0.197
3.876,-0.486,0.852,-0.191
3.886,-0.488,0.848,-0.193
3.896,-0.482,0.850,-0.197
3.906,-0.484,0.846,-0.199
3.916,-0.482,0.848,-0.201
3.926,-0.484,0.846,-0.199
3.936,-0.486,0.852,-0.199
3.946,-0.486,0.855,-0.199
3.956,-0.484,0.859,-0.197
3.966,-0.484,0.859,-0.193
3.976,-0.479,0.857,-0.193
3.985,-0.482,0.854,-0.193
3.995,-0.480,0.850,-0.195
4.005,-0.480,0.846,-0.199
4.015,-0.480,0.844,-0.195
4.025,-0.480,0.846,-0.197
4.035,-0.482,0.852,-0.193
4.045,-0.484,0.852,-0.195
4.055,-0.488,0.852,-0.193
4.065,-0.486,0.854,-0.195
4.075,-0.484,0.854,-0.197
4.085,-0.486,0.852,-0.199
4.095,-0.486,0.854,-0.197
4.105,-0.486,0.852,-0.197
4.115,-0.486,0.854,-0.193
4.125,-0.484,0.852,-0.195
4.135,-0.482,0.854,-0.188
4.144,-0.479,0.855,-0.189
4.154,-0.480,0.852,-0.191
4.164,-0.480,0.852,-0.193
4.174,-0.484,0.857,-0.189
4.184,-0.486,0.854,-0.199
4.194,-0.484,0.852,-0.193
4.204,-0.484,0.850,-0.195
4.214,-0.482,0.855,-0.189
4.224,-0.486,0.855,-0.193
4.234,-0.484,0.854,-0.195
4.244,-0.484,0.848,-0.193
4.254,-0.484,0.846,-0.195
4.264,-0.486,0.846,-0.193
4.274,-0.488,0.844,-0.197
4.284,-0.490,0.848,-0.193
4.294,-0.484,0.846,-0.195
4.304,-0.480,0.848,-0.193
4.313,-0.484,0.854,-0.193
4.323,-0.488,0.854,-0.195
4.333,-0.490,0.852,-0.195
4.343,-0.486,0.852,-0.197
4.353,-0.486,0.852,-0.193
4.363,-0.486,0.848,-0.197
4.373,-0.486,0.850,-0.193
4.383,-0.490,0.850,-0.197
4.393,-0.490,0.852,-0.197
4.403,-0.488,0.854,-0.191
4.413,-0.488,0.850,-0.195
4.423,-0.486,0.850,-0.197
4.433,-0.486,0.850,-0.195
4.443,-0.486,0.850,-0.199
4.453,-0.488,0.854,-0.197
4.463,-0.490,0.854,-0.197
4.472,-0.492,0.854,-0.195
4.482,-0.496,0.855,-0.199
4.492,-0.494,0.855,-0.199
4.502,-0.492,0.859,-0.197
4.512,-0.494,0.854,-0.197
4.522,-0.488,0.848,-0.195
4.532,-0.486,0.844,-0.191
4.542,-0.484,0.846,-0.195
4.552,-0.480,0.846,-0.193
4.562,-0.482,0.846,-0.195
4.572,-0.482,0.844,-0.195
4.582,-0.482,0.850,-0.193
4.592,-0.484,0.850,-0.195
4.602,-0.486,0.857,-0.191
4.612,-0.486,0.859,-0.191
4.622,-0.484,0.857,-0.191
4.631,-0.482,0.854,-0.191
4.641,-0.484,0.850,-0.191
4.651,-0.480,0.848,-0.191
4.661,-0.480,0.846,-0.191
4.671,-0.482,0.850,-0.195
4.681,-0.484,0.850,-0.193
4.691,-0.484,0.846,-0.191
4.701,-0.486,0.852,-0.191
4.711,-0.486,0.850,-0.191
4.721,-0.482,0.854,-0.193
4.731,-0.482,0.854,-0.193
4.741,-0.480,0.855,-0.195
4.751,-0.480,0.852,-0.193
4.761,-0.480,0.854,-0.195
4.771,-0.479,0.848,-0.186
4.781,-0.479,0.852,-0.189
4.790,-0.477,0.852,-0.189
4.800,-0.477,0.850,-0.188
4.810,-0.475,0.844,-0.191
4.820,-0.480,0.848,-0.191
4.830,-0.480,0.852,-0.193
4.840,-0.484,0.852,-0.195
4.850,-0.480,0.859,-0.193
4.860,-0.484,0.861,-0.193
4.870,-0.484,0.861,-0.195
4.880,-0.482,0.859,-0.195
4.890,-0.482,0.863,-0.195
4.900,-0.479,0.857,-0.195
4.910,-0.479,0.854,-0.195
4.920,-0.475,0.855,-0.197
4.930,-0.473,0.850,-0.191
4.940,-0.473,0.852,-0.193
4.950,-0.479,0.850,-0.195
4.959,-0.477,0.852,-0.197
4.969,-0.477,0.854,-0.193
4.979,-0.482,0.854,-0.193
4.989,-0.482,0.854,-0.195
4.999,-0.482,0.852,-0.197
5.009,-0.482,0.850,-0.195
5.019,-0.484,0.850,-0.197
5.029,-0.482,0.850,-0.197
5.039,-0.484,0.848,-0.199
5.049,-0.486,0.852,-0.199
5.059,-0.486,0.850,-0.201
5.069,-0.484,0.854,-0.201
5.079,-0.484,0.854,-0.201
5.089,-0.484,0.854,-0.199
5.099,-0.480,0.854,-0.199
5.109,-0.482,0.852,-0.201
5.118,-0.480,0.852,-0.199
5.128,-0.482,0.859,-0.201
5.138,-0.482,0.859,-0.197
5.148,-0.486,0.850,-0.199
5.158,-0.482,0.846,-0.199
5.168,-0.484,0.848,-0.193
5.178,-0.482,0.850,-0.195
5.188,-0.484,0.854,-0.199
5.198,-0.486,0.846,-0.199
5.208,-0.488,0.848,-0.205
5.218,-0.488,0.848,-0.199
5.228,-0.492,0.850,-0.199
5.238,-0.492,0.852,-0.201
5.248,-0.492,0.855,-0.193
5.258,-0.490,0.855,-0.199
5.268,-0.488,0.854,-0.195
5.277,-0.488,0.848,-0.201
5.287,-0.488,0.850,-0.199
5.297,-0.488,0.848,-0.199
5.307,-0.488,0.846,-0.199
5.317,-0.486,0.846,-0.197
5.327,-0.484,0.848,-0.199
5.337,-0.486,0.850,-0.197
5.347,-0.486,0.852,-0.195
5.357,-0.488,0.846,-0.197
5.367,-0.492,0.848,-0.195
5.377,-0.492,0.846,-0.197
5.387,-0.490,0.844,-0.199
5.397,-0.488,0.846,-0.199
5.407,-0.486,0.850,-0.193
5.417,-0.486,0.852,-0.193
5.427,-0.480,0.848,-0.193
5.436,-0.484,0.844,-0.197
5.446,-0.486,0.842,-0.195
5.456,-0.490,0.844,-0.199
5.466,-0.490,0.850,-0.197
5.476,-0.496,0.852,-0.197
5.486,-0.496,0.854,-0.197
5.496,-0.494,0.855,-0.193
5.506,-0.492,0.854,-0.201
5.516,-0.492,0.854,-0.199
5.526,-0.492,0.848,-0.197
5.536,-0.490,0.844,-0.197
5.546,-0.490,0.844,-0.197
5.556,-0.488,0.842,-0.197
5.566,-0.490,0.844,-0.193
5.576,-0.486,0.848,-0.195
5.586,-0.484,0.848,-0.195
5.596,-0.486,0.850,-0.195
5.605,-0.486,0.848,-0.197
5.615,-0.484,0.848,-0.197
5.625,-0.484,0.848,-0.197
5.635,-0.484,0.848,-0.195
5.645,-0.484,0.848,-0.197
5.655,-0.486,0.848,-0.197
5.665,-0.486,0.850,-0.199
5.675,-0.490,0.844,-0.199
5.685,-0.494,0.846,-0.199
5.695,-0.494,0.846,-0.203
5.705,-0.496,0.846,-0.197
5.715,-0.498,0.846,-0.199
5.725,-0.490,0.852,-0.197
5.735,-0.494,0.852,-0.197
5.745,-0.492,0.852,-0.199
5.755,-0.490,0.850,-0.199
5.764,-0.490,0.850,-0.197
5.774,-0.488,0.844,-0.195
5.784,-0.490,0.844,-0.193
5.794,-0.486,0.844,-0.193
5.804,-0.488,0.846,-0.191
5.814,-0.490,0.848,-0.199
5.824,-0.492,0.846,-0.195
5.834,-0.496,0.850,-0.193
5.844,-0.498,0.855,-0.195
5.854,-0.498,0.855,-0.193
5.864,-0.496,0.855,-0.193
5.874,-0.494,0.855,-0.191
5.884,-0.492,0.848,-0.193
5.894,-0.490,0.846,-0.193
5.904,-0.490,0.844,-0.191
5.914,-0.490,0.846,-0.189
5.923,-0.492,0.848,-0.189
5.933,-0.492,0.844,-0.191
5.943,-0.490,0.848,-0.186
5.953,-0.494,0.848,-0.189
5.963,-0.494,0.850,-0.189
5.973,-0.494,0.846,-0.189
5.983,-0.496,0.844,-0.189
5.993,-0.494,0.842,-0.189
6.003,-0.498,0.840,-0.193
6.013,-0.498,0.842,-0.186
6.023,-0.496,0.848,-0.188
6.033,-0.496,0.848,-0.186
6.043,-0.494,0.846,-0.189
6.053,-0.492,0.844,-0.189
6.063,-0.494,0.844,-0.191
6.073,-0.496,0.848,-0.193
6.082,-0.494,0.850,-0.191
6.092,-0.496,0.855,-0.191
6.102,-0.500,0.857,-0.189
6.112,-0.496,0.855,-0.193
6.122,-0.496,0.852,-0.188
6.132,-0.494,0.850,-0.186
6.142,-0.494,0.846,-0.193
6.152,-0.492,0.844,-0.193
6.162,-0.490,0.842,-0.191
6.172,-0.490,0.842,-0.193
6.182,-0.490,0.848,-0.191
6.192,-0.490,0.846,-0.193
6.202,-0.490,0.848,-0.189
6.212,-0.494,0.848,-0.193
6.222,-0.492,0.850,-0.193
6.232,-0.492,0.846,-0.197
6.241,-0.496,0.850,-0.195
6.251,-0.496,0.850,-0.193
6.261,-0.496,0.846,-0.195
6.271,-0.496,0.848,-0.195
6.281,-0.500,0.846,-0.195
6.291,-0.496,0.848,-0.195
6.301,-0.496,0.844,-0.195
6.311,-0.494,0.842,-0.199
6.321,-0.496,0.844,-0.195
6.331,-0.494,0.846,-0.197
6.341,-0.492,0.846,-0.195
6.351,-0.492,0.848,-0.197
6.361,-0.492,0.848,-0.199
6.371,-0.494,0.852,-0.199
6.381,-0.496,0.850,-0.195
6.391,-0.500,0.850,-0.201
6.401,-0.496,0.852,-0.199
6.410,-0.496,0.850,-0.197
6.420,-0.496,0.850,-0.193
6.430,-0.492,0.848,-0.195
6.440,-0.488,0.846,-0.201
6.450,-0.494,0.846,-0.195
6.460,-0.494,0.846,-0.197
6.470,-0.500,0.846,-0.197
6.480,-0.500,0.852,-0.195
6.490,-0.498,0.852,-0.193
6.500,-0.502,0.850,-0.193
6.510,-0.504,0.844,-0.195
6.520,-0.502,0.844,-0.195
6.530,-0.504,0.844,-0.197
6.540,-0.502,0.842,-0.195
6.550,-0.504,0.844,-0.195
6.560,-0.498,0.842,-0.193
6.569,-0.496,0.844,-0.195
6.579,-0.492,0.846,-0.195
6.589,-0.496,0.844,-0.195
6.599,-0.494,0.842,-0.193
6.609,-0.494,0.844,-0.193
6.619,-0.494,0.844,-0.193
6.629,-0.496,0.844,-0.195
6.639,-0.500,0.842,-0.195
6.649,-0.500,0.846,-0.191
6.659,-0.490,0.850,-0.191
6.669,-0.490,0.850,-0.191
6.679,-0.490,0.852,-0.191
6.689,-0.488,0.844,-0.191
6.699,-0.492,0.846,-0.193
6.709,-0.496,0.846,-0.195
6.719,-0.494,0.846,-0.193
6.728,-0.498,0.850,-0.191
6.738,-0.494,0.852,-0.193
6.748,-0.496,0.852,-0.191
6.758,-0.498,0.854,-0.193
6.768,-0.496,0.854,-0.193
6.778,-0.492,0.850,-0.195
6.788,-0.490,0.842,-0.191
6.798,-0.490,0.846,-0.191
6.808,-0.488,0.846,-0.193
6.818,-0.488,0.846,-0.195
6.828,-0.490,0.846,-0.191
6.838,-0.488,0.844,-0.195
6.848,-0.492,0.846,-0.193
6.858,-0.492,0.848,-0.193
6.868,-0.496,0.848,-0.189
6.878,-0.498,0.848,-0.193
6.887,-0.496,0.850,-0.195
6.897,-0.494,0.850,-0.195
6.907,-0.498,0.850,-0.195
6.917,-0.496,0.846,-0.193
6.927,-0.498,0.848,-0.193
6.937,-0.500,0.844,-0.195
6.947,-0.498,0.846,-0.191
6.957,-0.496,0.846,-0.193
6.967,-0.494,0.846,-0.195
6.977,-0.496,0.844,-0.197
6.987,-0.498,0.842,-0.195
6.997,-0.498,0.848,-0.195
7.007,-0.498,0.844,-0.195
7.017,-0.500,0.846,-0.195
7.027,-0.504,0.848,-0.191
7.037,-0.508,0.850,-0.195
7.047,-0.502,0.846,-0.199
7.056,-0.500,0.852,-0.199
7.066,-0.498,0.850,-0.197
7.076,-0.496,0.844,-0.195
7.086,-0.494,0.844,-0.193
7.096,-0.490,0.840,-0.195
7.106,-0.490,0.842,-0.195
7.116,-0.494,0.844,-0.199
7.126,-0.494,0.838,-0.201
7.136,-0.498,0.842,-0.199
7.146,-0.500,0.844,-0.201
7.156,-0.500,0.855,-0.197
7.166,-0.498,0.855,-0.195
7.176,-0.502,0.855,-0.195
7.186,-0.498,0.852,-0.197
7.196,-0.494,0.842,-0.199
7.206,-0.500,0.840,-0.201
7.215,-0.494,0.838,-0.199
7.225,-0.494,0.840,-0.197
7.235,-0.492,0.842,-0.199
7.245,-0.494,0.846,-0.195
7.255,-0.494,0.848,-0.195
7.265,-0.494,0.848,-0.195
7.275,-0.492,0.846,-0.195
7.285,-0.490,0.848,-0.195
7.295,-0.488,0.844,-0.195
7.305,-0.490,0.842,-0.197
7.315,-0.492,0.840,-0.197
7.325,-0.492,0.842,-0.201
7.335,-0.494,0.842,-0.195
7.345,-0.494,0.846,-0.197
7.355,-0.490,0.846,-0.195
7.365,-0.488,0.846,-0.197
7.374,-0.494,0.850,-0.197
7.384,-0.488,0.848,-0.203
7.394,-0.490,0.846,-0.199
7.404,-0.490,0.848,-0.197
7.414,-0.492,0.852,-0.201
7.424,-0.492,0.852,-0.199
7.434,-0.488,0.852,-0.203
7.444,-0.488,0.850,-0.199
7.454,-0.486,0.846,-0.201
7.464,-0.486,0.846,-0.197
7.474,-0.482,0.840,-0.201
7.484,-0.484,0.844,-0.197
7.494,-0.484,0.846,-0.197
7.504,-0.488,0.848,-0.197
7.514,-0.490,0.848,-0.199
7.524,-0.488,0.850,-0.201
7.533,-0.490,0.848,-0.201
7.543,-0.490,0.846,-0.201
7.553,-0.488,0.846,-0.199
7.563,-0.488,0.846,-0.199
7.573,-0.486,0.844,-0.201
7.583,-0.490,0.846,-0.199
7.593,-0.488,0.848,-0.195
7.603,-0.488,0.848,-0.199
7.613,-0.490,0.848,-0.197
7.623,-0.490,0.848,-0.199
7.633,-0.490,0.848,-0.199
7.643,-0.490,0.850,-0.201
7.653,-0.490,0.846,-0.199
7.663,-0.490,0.844,-0.199
7.673,-0.490,0.842,-0.201
7.683,-0.494,0.846,-0.197
7.693,-0.496,0.848,-0.201
7.702,-0.496,0.844,-0.199
7.712,-0.498,0.850,-0.199
7.722,-0.502,0.850,-0.203
7.732,-0.498,0.850,-0.205
7.742,-0.498,0.854,-0.199
7.752,-0.500,0.850,-0.201
7.762,-0.498,0.844,-0.197
7.772,-0.494,0.844,-0.195
7.782,-0.492,0.844,-0.195
7.792,-0.488,0.844,-0.197
7.802,-0.490,0.842,-0.199
7.812,-0.494,0.844,-0.201
7.822,-0.494,0.844,-0.199
7.832,-0.498,0.846,-0.197
7.842,-0.500,0.850,-0.195
7.852,-0.500,0.854,-0.195
7.861,-0.502,0.854,-0.197
7.871,-0.498,0.850,-0.197
7.881,-0.498,0.844,-0.195
7.891,-0.498,0.842,-0.197
7.901,-0.498,0.840,-0.197
7.911,-0.496,0.838,-0.199
7.921,-0.500,0.842,-0.199
7.931,-0.498,0.844,-0.197
7.941,-0.498,0.850,-0.195
7.951,-0.498,0.848,-0.193
7.961,-0.500,0.846,-0.195
7.971,-0.500,0.844,-0.195
7.981,-0.492,0.842,-0.197
7.991,-0.498,0.844,-0.197
8.001,-0.494,0.844,-0.197
8.011,-0.496,0.842,-0.197
8.020,-0.492,0.846,-0.195
8.030,-0.492,0.842,-0.191
8.040,-0.492,0.844,-0.193
8.050,-0.492,0.844,-0.195
8.060,-0.494,0.846,-0.197
8.070,-0.492,0.846,-0.201
8.080,-0.494,0.850,-0.199
8.090,-0.496,0.850,-0.203
8.100,-0.498,0.852,-0.197
8.110,-0.498,0.854,-0.199
8.120,-0.498,0.850,-0.199
8.130,-0.496,0.852,-0.197
8.140,-0.492,0.848,-0.199
8.150,-0.492,0.844,-0.199
8.160,-0.492,0.842,-0.199
8.170,-0.490,0.842,-0.197
8.179,-0.490,0.840,-0.199
8.189,-0.492,0.840,-0.195
8.199,-0.494,0.846,-0.199
8.209,-0.494,0.846,-0.201
8.219,-0.494,0.846,-0.199
8.229,-0.496,0.846,-0.195
8.239,-0.498,0.848,-0.199
8.249,-0.496,0.844,-0.199
8.259,-0.496,0.848,-0.201
8.269,-0.498,0.844,-0.199
8.279,-0.498,0.846,-0.201
8.289,-0.496,0.846,-0.201
8.299,-0.498,0.846,-0.199
8.309,-0.492,0.842,-0.201
8.319,-0.492,0.844,-0.197
8.329,-0.496,0.846,-0.199
8.339,-0.494,0.844,-0.199
8.348,-0.494,0.850,-0.197
8.358,-0.492,0.842,-0.195
8.368,-0.496,0.846,-0.199
8.378,-0.496,0.846,-0.201
8.388,-0.494,0.846,-0.199
8.398,-0.494,0.850,-0.199
8.408,-0.494,0.848,-0.199
8.418,-0.498,0.850,-0.199
8.428,-0.500,0.852,-0.199
8.438,-0.498,0.850,-0.201
8.448,-0.498,0.844,-0.197
8.458,-0.498,0.844,-0.193
8.468,-0.496,0.844,-0.193
8.478,-0.494,0.846,-0.193
8.488,-0.490,0.844,-0.193
8.498,-0.494,0.842,-0.193
8.507,-0.494,0.842,-0.193
8.517,-0.494,0.848,-0.193
8.527,-0.496,0.848,-0.197
8.537,-0.498,0.852,-0.193
8.547,-0.496,0.852,-0.193
8.557,-0.500,0.850,-0.193
8.567,-0.496,0.846,-0.193
8.577,-0.496,0.842,-0.193
8.587,-0.496,0.840,-0.195
8.597,-0.496,0.842,-0.193
8.607,-0.498,0.838,-0.197
8.617,-0.498,0.842,-0.195
8.627,-0.494,0.846,-0.197
8.637,-0.496,0.850,-0.195
8.647,-0.494,0.850,-0.197
8.657,-0.490,0.852,-0.193
8.666,-0.492,0.844,-0.195
8.676,-0.492,0.848,-0.195
8.686,-0.496,0.846,-0.199
8.696,-0.494,0.842,-0.195
8.706,-0.492,0.846,-0.195
8.716,-0.492,0.846,-0.195
8.726,-0.492,0.848,-0.195
8.736,-0.490,0.842,-0.197
8.746,-0.492,0.844,-0.199
8.756,-0.496,0.848,-0.197
8.766,-0.494,0.848,-0.199
8.776,-0.494,0.848,-0.201
8.786,-0.496,0.852,-0.195
8.796,-0.496,0.852,-0.197
8.806,-0.494,0.850,-0.195
8.816,-0.492,0.848,-0.199
8.825,-0.494,0.846,-0.197
8.835,-0.492,0.844,-0.197
8.845,-0.492,0.844,-0.197
8.855,-0.492,0.844,-0.199
8.865,-0.490,0.844,-0.195
8.875,-0.488,0.848,-0.199
8.885,-0.490,0.850,-0.195
8.895,-0.494,0.846,-0.199
8.905,-0.490,0.850,-0.197
8.915,-0.492,0.846,-0.197
8.925,-0.494,0.846,-0.199
8.935,-0.498,0.846,-0.195
8.945,-0.498,0.846,-0.197
8.955,-0.498,0.844,-0.199
8.965,-0.496,0.844,-0.199
8.975,-0.496,0.844,-0.199
8.984,-0.496,0.846,-0.195
8.994,-0.498,0.844,-0.193
9.004,-0.494,0.844,-0.197
9.014,-0.496,0.842,-0.199
9.024,-0.498,0.844,-0.195
9.034,-0.496,0.842,-0.197
9.044,-0.498,0.846,-0.197
9.054,-0.496,0.848,-0.195
9.064,-0.496,0.850,-0.197
9.074,-0.496,0.850,-0.199
9.084,-0.500,0.848,-0.199
9.094,-0.498,0.848,-0.199
9.104,-0.500,0.846,-0.197
9.114,-0.500,0.844,-0.195
9.124,-0.500,0.842,-0.193
9.134,-0.502,0.840,-0.193
9.144,-0.494,0.842,-0.195
9.153,-0.494,0.844,-0.199
9.163,-0.494,0.844,-0.201
9.173,-0.498,0.844,-0.197
9.183,-0.504,0.846,-0.195
9.193,-0.502,0.852,-0.195
9.203,-0.502,0.848,-0.191
9.213,-0.502,0.848,-0.195
9.223,-0.496,0.846,-0.193
9.233,-0.500,0.844,-0.197
9.243,-0.498,0.840,-0.197
9.253,-0.496,0.840,-0.195
9.263,-0.498,0.840,-0.195
9.273,-0.498,0.842,-0.195
9.283,-0.498,0.844,-0.195
9.293,-0.500,0.844,-0.193
9.303,-0.496,0.846,-0.193
9.312,-0.494,0.848,-0.193
9.322,-0.498,0.846,-0.195
9.332,-0.494,0.846,-0.195
9.342,-0.498,0.844,-0.197
9.352,-0.498,0.842,-0.197
9.362,-0.500,0.842,-0.193
9.372,-0.498,0.846,-0.189
9.382,-0.500,0.846,-0.191
9.392,-0.494,0.848,-0.191
9.402,-0.494,0.842,-0.193
9.412,-0.494,0.842,-0.197
9.422,-0.494,0.840,-0.193
9.432,-0.498,0.848,-0.193
9.442,-0.496,0.850,-0.199
9.452,-0.496,0.852,-0.195
9.462,-0.494,0.852,-0.199
9.471,-0.494,0.852,-0.195
9.481,-0.494,0.852,-0.197
9.491,-0.496,0.844,-0.195
9.501,-0.496,0.842,-0.197
9.511,-0.496,0.840,-0.197
9.521,-0.494,0.842,-0.195
9.531,-0.494,0.842,-0.193
9.541,-0.492,0.844,-0.193
9.551,-0.492,0.846,-0.193
9.561,-0.492,0.850,-0.195
9.571,-0.496,0.850,-0.197
9.581,-0.496,0.846,-0.195
9.591,-0.494,0.848,-0.193
9.601,-0.496,0.844,-0.201
9.611,-0.494,0.848,-0.197
9.621,-0.498,0.844,-0.197
9.630,-0.502,0.842,-0.199
9.640,-0.500,0.842,-0.197
9.650,-0.498,0.844,-0.199
9.660,-0.504,0.844,-0.197
9.670,-0.504,0.844,-0.199
9.680,-0.500,0.840,-0.201
9.690,-0.502,0.840,-0.199
9.700,-0.500,0.846,-0.199
9.710,-0.500,0.844,-0.197
9.720,-0.500,0.844,-0.197
9.730,-0.498,0.848,-0.199
9.740,-0.500,0.848,-0.201
9.750,-0.498,0.848,-0.201
9.760,-0.500,0.852,-0.201
9.770,-0.502,0.850,-0.201
9.780,-0.498,0.846,-0.197
9.790,-0.496,0.840,-0.197
9.799,-0.496,0.840,-0.193
9.809,-0.496,0.842,-0.195
9.819,-0.494,0.842,-0.199
9.829,-0.498,0.842,-0.199
9.839,-0.498,0.844,-0.197
9.849,-0.500,0.850,-0.197
9.859,-0.502,0.850,-0.195
9.869,-0.502,0.854,-0.195
9.879,-0.500,0.848,-0.195
9.889,-0.500,0.850,-0.195
9.899,-0.498,0.842,-0.195
9.909,-0.496,0.842,-0.195
9.919,-0.498,0.838,-0.195
9.929,-0.496,0.838,-0.199
9.939,-0.494,0.838,-0.195
9.949,-0.496,0.840,-0.193
9.958,-0.494,0.844,-0.197
9.968,-0.492,0.844,-0.193
9.978,-0.492,0.846,-0.195
9.988,-0.496,0.844,-0.197
9.998,-0.496,0.844,-0.195
10.008,-0.500,0.846,-0.197
10.018,-0.500,0.842,-0.199
10.028,-0.500,0.846,-0.197
10.038,-0.496,0.850,-0.199
10.048,-0.496,0.846,-0.195
10.058,-0.488,0.848,-0.195
10.068,-0.490,0.844,-0.195
10.078,-0.488,0.846,-0.199
10.088,-0.492,0.844,-0.199
10.098,-0.492,0.846,-0.201
10.108,-0.494,0.848,-0.201
10.117,-0.500,0.848,-0.199
10.127,-0.500,0.850,-0.197
10.137,-0.500,0.848,-0.203
10.147,-0.500,0.846,-0.203
10.157,-0.498,0.844,-0.201
10.167,-0.496,0.842,-0.199
10.177,-0.494,0.842,-0.201
10.187,-0.494,0.840,-0.197
10.197,-0.494,0.840,-0.205
10.207,-0.492,0.844,-0.199
10.217,-0.494,0.844,-0.199
10.227,-0.490,0.848,-0.199
10.237,-0.498,0.850,-0.201
10.247,-0.496,0.844,-0.203
10.257,-0.496,0.846,-0.199
10.267,-0.500,0.844,-0.203
10.276,-0.498,0.842,-0.207
10.286,-0.500,0.844,-0.205
10.296,-0.500,0.842,-0.203
10.306,-0.500,0.842,-0.199
10.316,-0.496,0.846,-0.203
10.326,-0.496,0.842,-0.199
10.336,-0.494,0.842,-0.205
10.346,-0.496,0.848,-0.201
10.356,-0.496,0.844,-0.201
10.366,-0.494,0.844,-0.201
10.376,-0.498,0.840,-0.203
10.386,-0.498,0.842,-0.205
10.396,-0.500,0.846,-0.201
10.406,-0.504,0.844,-0.205
10.416,-0.506,0.848,-0.201
10.426,-0.504,0.850,-0.205
10.436,-0.504,0.848,-0.201
10.445,-0.502,0.852,-0.201
10.455,-0.498,0.852,-0.199
10.465,-0.490,0.844,-0.201
10.475,-0.494,0.846,-0.195
10.485,-0.488,0.840,-0.195
10.495,-0.482,0.842,-0.195
10.505,-0.488,0.840,-0.197
10.515,-0.494,0.838,-0.201
10.525,-0.494,0.838,-0.197
10.535,-0.502,0.844,-0.199
10.545,-0.500,0.846,-0.197
10.555,-0.500,0.850,-0.197
10.565,-0.502,0.852,-0.197
10.575,-0.502,0.850,-0.199
10.585,-0.504,0.844,-0.197
10.595,-0.504,0.838,-0.199
10.604,-0.502,0.834,-0.197
10.614,-0.500,0.834,-0.199
10.624,-0.504,0.834,-0.195
10.634,-0.504,0.838,-0.197
10.644,-0.500,0.842,-0.197
10.654,-0.498,0.842,-0.193
10.664,-0.498,0.842,-0.195
10.674,-0.500,0.844,-0.195
10.684,-0.496,0.840,-0.197
10.694,-0.496,0.844,-0.195
10.704,-0.496,0.846,-0.201
10.714,-0.496,0.840,-0.199
10.724,-0.498,0.844,-0.199
10.734,-0.500,0.846,-0.199
10.744,-0.496,0.846,-0.197
10.754,-0.500,0.846,-0.201
10.763,-0.496,0.844,-0.203
10.773,-0.502,0.840,-0.199
10.783,-0.506,0.842,-0.201
10.793,-0.504,0.842,-0.201
10.803,-0.502,0.848,-0.201
10.813,-0.506,0.850,-0.199
10.823,-0.498,0.848,-0.201
10.833,-0.496,0.848,-0.195
10.843,-0.498,0.846,-0.199
10.853,-0.496,0.842,-0.199
10.863,-0.496,0.840,-0.199
10.873,-0.490,0.840,-0.201
10.883,-0.496,0.842,-0.199
10.893,-0.498,0.844,-0.201
10.903,-0.494,0.848,-0.205
10.913,-0.498,0.855,-0.207
10.922,-0.506,0.867,-0.205
10.932,-0.512,0.865,-0.211
10.942,-0.510,0.854,-0.207
10.952,-0.514,0.855,-0.203
10.962,-0.508,0.861,-0.199
10.972,-0.514,0.850,-0.191
10.982,-0.498,0.840,-0.195
10.992,-0.496,0.834,-0.195
11.002,-0.488,0.834,-0.197
11.012,-0.480,0.836,-0.197
11.022,-0.482,0.840,-0.195
11.032,-0.480,0.840,-0.193
11.042,-0.479,0.840,-0.195
11.052,-0.475,0.844,-0.189
11.062,-0.475,0.846,-0.189
11.072,-0.479,0.848,-0.191
11.082,-0.480,0.852,-0.193
11.091,-0.479,0.854,-0.195
11.101,-0.473,0.854,-0.195
11.111,-0.473,0.855,-0.195
11.121,-0.477,0.857,-0.195
11.131,-0.477,0.852,-0.201
11.141,-0.479,0.846,-0.193
11.151,-0.486,0.848,-0.193
11.161,-0.482,0.852,-0.195
11.171,-0.482,0.852,-0.193
11.181,-0.484,0.852,-0.191
11.191,-0.484,0.848,-0.199
11.201,-0.482,0.855,-0.199
11.211,-0.482,0.861,-0.195
11.221,-0.484,0.859,-0.193
11.231,-0.479,0.857,-0.193
11.241,-0.480,0.861,-0.191
11.250,-0.482,0.854,-0.191
11.260,-0.482,0.854,-0.189
11.270,-0.484,0.850,-0.195
11.280,-0.484,0.850,-0.197
11.290,-0.480,0.848,-0.197
11.300,-0.484,0.852,-0.195
11.310,-0.479,0.852,-0.193
11.320,-0.479,0.852,-0.191
11.330,-0.480,0.855,-0.193
11.340,-0.482,0.855,-0.193
11.350,-0.482,0.855,-0.193
11.360,-0.482,0.854,-0.195
11.370,-0.482,0.852,-0.191
11.380,-0.482,0.846,-0.193
11.390,-0.480,0.844,-0.189
11.400,-0.482,0.848,-0.188
11.409,-0.477,0.852,-0.189
11.419,-0.475,0.848,-0.191
11.429,-0.480,0.850,-0.191
11.439,-0.480,0.848,-0.191
11.449,-0.484,0.848,-0.195
11.459,-0.490,0.852,-0.195
11.469,-0.496,0.854,-0.191
11.479,-0.492,0.859,-0.195
11.489,-0.494,0.859,-0.193
11.499,-0.492,0.857,-0.197
11.509,-0.492,0.855,-0.195
11.519,-0.486,0.852,-0.193
11.529,-0.490,0.848,-0.195
11.539,-0.488,0.846,-0.197
11.549,-0.486,0.846,-0.195
11.559,-0.490,0.848,-0.195
11.568,-0.488,0.846,-0.195
11.578,-0.484,0.852,-0.193
11.588,-0.488,0.854,-0.195
11.598,-0.490,0.855,-0.191
11.608,-0.488,0.855,-0.195
11.618,-0.484,0.854,-0.191
11.628,-0.490,0.852,-0.195
11.638,-0.488,0.854,-0.195
11.648,-0.494,0.850,-0.191
11.658,-0.492,0.848,-0.195
11.668,-0.492,0.848,-0.189
11.678,-0.492,0.844,-0.193
11.688,-0.492,0.846,-0.193
11.698,-0.492,0.844,-0.195
11.708,-0.492,0.844,-0.195
11.718,-0.494,0.846,-0.191
11.727,-0.500,0.848,-0.193
11.737,-0.502,0.850,-0.193
11.747,-0.500,0.846,-0.191
11.757,-0.496,0.850,-0.193
11.767,-0.490,0.854,-0.189
11.777,-0.494,0.846,-0.191
11.787,-0.492,0.844,-0.191
11.797,-0.492,0.846,-0.189
11.807,-0.488,0.848,-0.189
11.817,-0.494,0.850,-0.193
11.827,-0.494,0.850,-0.197
11.837,-0.496,0.850,-0.193
11.847,-0.494,0.852,-0.197
11.857,-0.498,0.855,-0.191
11.867,-0.500,0.859,-0.191
11.877,-0.502,0.855,-0.195
11.887,-0.498,0.852,-0.191
11.896,-0.494,0.846,-0.191
11.906,-0.496,0.842,-0.191
11.916,-0.494,0.836,-0.191
11.926,-0.494,0.840,-0.193
11.936,-0.494,0.844,-0.189
11.946,-0.492,0.842,-0.195
11.956,-0.494,0.846,-0.189
11.966,-0.498,0.846,-0.193
11.976,-0.494,0.850,-0.193
11.986,-0.494,0.852,-0.191
11.996,-0.496,0.852,-0.191
12.006,-0.496,0.854,-0.193
12.016,-0.500,0.846,-0.195
12.026,-0.500,0.844,-0.191
12.036,-0.500,0.848,-0.191
12.046,-0.500,0.848,-0.193
12.055,-0.502,0.846,-0.191
12.065,-0.496,0.842,-0.195
12.075,-0.498,0.840,-0.195
12.085,-0.500,0.848,-0.191
12.095,-0.498,0.850,-0.191
12.105,-0.500,0.852,-0.193
12.115,-0.502,0.855,-0.191
12.125,-0.498,0.855,-0.191
12.135,-0.498,0.850,-0.191
12.145,-0.500,0.846,-0.188
12.155,-0.498,0.844,-0.189
12.165,-0.498,0.840,-0.189
12.175,-0.496,0.834,-0.191
12.185,-0.500,0.836,-0.188
12.195,-0.500,0.840,-0.188
12.205,-0.498,0.842,-0.188
12.214,-0.498,0.844,-0.188
12.224,-0.504,0.848,-0.188
12.234,-0.504,0.848,-0.189
12.244,-0.504,0.846,-0.188
12.254,-0.502,0.846,-0.189
12.264,-0.508,0.846,-0.191
12.274,-0.508,0.846,-0.189
12.284,-0.506,0.842,-0.193
12.294,-0.506,0.842,-0.191
12.304,-0.506,0.840,-0.195
12.314,-0.508,0.844,-0.191
12.324,-0.508,0.844,-0.193
12.334,-0.506,0.844,-0.197
12.344,-0.506,0.842,-0.193
12.354,-0.504,0.846,-0.195
12.364,-0.504,0.846,-0.195
12.373,-0.506,0.848,-0.189
12.383,-0.506,0.844,-0.189
12.393,-0.502,0.842,-0.189
12.403,-0.504,0.840,-0.191
12.413,-0.500,0.844,-0.189
12.423,-0.502,0.846,-0.191
12.433,-0.506,0.846,-0.195
12.443,-0.508,0.840,-0.193
12.453,-0.510,0.844,-0.193
12.463,-0.514,0.846,-0.189
12.473,-0.514,0.850,-0.189
12.483,-0.514,0.848,-0.189
12.493,-0.514,0.844,-0.188
12.503,-0.514,0.840,-0.189
12.513,-0.508,0.838,-0.191
12.523,-0.508,0.838,-0.186
12.533,-0.504,0.840,-0.188
12.542,-0.506,0.836,-0.191
12.552,-0.504,0.842,-0.189
12.562,-0.504,0.842,-0.191
12.572,-0.508,0.846,-0.188
12.582,-0.512,0.846,-0.184
12.592,-0.510,0.840,-0.186
12.602,-0.510,0.844,-0.188
12.612,-0.512,0.840,-0.191
12.622,-0.512,0.838,-0.188
12.632,-0.514,0.836,-0.188
12.642,-0.510,0.842,-0.188
12.652,-0.506,0.842,-0.188
12.662,-0.506,0.844,-0.188
12.672,-0.506,0.838,-0.188
12.682,-0.508,0.836,-0.189
12.692,-0.512,0.836,-0.191
12.701,-0.512,0.846,-0.189
12.711,-0.512,0.850,-0.189
12.721,-0.512,0.848,-0.191
12.731,-0.512,0.848,-0.191
12.741,-0.508,0.846,-0.188
12.751,-0.510,0.840,-0.189
12.761,-0.506,0.842,-0.189
12.771,-0.508,0.836,-0.188
12.781,-0.508,0.836,-0.189
12.791,-0.508,0.836,-0.191
12.801,-0.508,0.840,-0.191
12.811,-0.510,0.840,-0.189
12.821,-0.508,0.842,-0.189
12.831,-0.504,0.842,-0.189
12.841,-0.504,0.842,-0.188
12.851,-0.506,0.844,-0.191
12.860,-0.506,0.838,-0.189
12.870,-0.506,0.840,-0.191
12.880,-0.504,0.840,-0.191
12.890,-0.506,0.838,-0.189
12.900,-0.506,0.838,-0.191
12.910,-0.512,0.836,-0.191
12.920,-0.508,0.840,-0.193
12.930,-0.510,0.846,-0.193
12.940,-0.510,0.846,-0.193
12.950,-0.510,0.846,-0.197
12.960,-0.508,0.848,-0.191
12.970,-0.508,0.846,-0.193
12.980,-0.510,0.840,-0.193
12.990,-0.510,0.840,-0.189
13.000,-0.508,0.838,-0.189
13.010,-0.508,0.838,-0.189
13.019,-0.502,0.840,-0.188
13.029,-0.506,0.842,-0.189
13.039,-0.508,0.840,-0.191
13.049,-0.506,0.840,-0.189
13.059,-0.512,0.848,-0.184
13.069,-0.512,0.848,-0.188
13.079,-0.510,0.846,-0.186
13.089,-0.514,0.844,-0.186
13.099,-0.516,0.840,-0.186
13.109,-0.512,0.834,-0.186
13.119,-0.512,0.834,-0.189
13.129,-0.514,0.834,-0.193
13.139,-0.512,0.836,-0.188
13.149,-0.512,0.838,-0.188
13.159,-0.514,0.840,-0.186
13.169,-0.512,0.840,-0.182
13.179,-0.510,0.838,-0.184
13.188,-0.510,0.842,-0.182
13.198,-0.508,0.840,-0.184
13.208,-0.506,0.838,-0.184
13.218,-0.512,0.840,-0.184
13.228,-0.510,0.836,-0.188
13.238,-0.512,0.844,-0.186
13.248,-0.514,0.842,-0.186
13.258,-0.512,0.842,-0.184
13.268,-0.512,0.840,-0.189
13.278,-0.508,0.834,-0.189
13.288,-0.510,0.838,-0.189
13.298,-0.510,0.844,-0.188
13.308,-0.510,0.848,-0.189
13.318,-0.512,0.852,-0.188
13.328,-0.512,0.846,-0.189
13.338,-0.510,0.848,-0.186
13.347,-0.508,0.840,-0.186
13.357,-0.510,0.838,-0.188
13.367,-0.508,0.838,-0.188
13.377,-0.506,0.836,-0.188
13.387,-0.508,0.836,-0.191
13.397,-0.506,0.836,-0.189
13.407,-0.502,0.844,-0.188
13.417,-0.506,0.844,-0.188
13.427,-0.510,0.842,-0.188
13.437,-0.506,0.844,-0.189
13.447,-0.506,0.846,-0.189
13.457,-0.508,0.842,-0.188
13.467,-0.508,0.844,-0.191
13.477,-0.508,0.838,-0.193
13.487,-0.508,0.842,-0.189
13.497,-0.508,0.842,-0.195
13.506,-0.508,0.846,-0.191
13.516,-0.510,0.842,-0.191
13.526,-0.510,0.842,-0.189
13.536,-0.510,0.842,-0.195
13.546,-0.512,0.842,-0.193
13.556,-0.514,0.848,-0.191
13.566,-0.512,0.842,-0.193
13.576,-0.512,0.836,-0.189
13.586,-0.512,0.834,-0.189
13.596,-0.508,0.832,-0.186
13.606,-0.504,0.836,-0.184
13.616,-0.504,0.840,-0.191
13.626,-0.508,0.840,-0.188
13.636,-0.514,0.840,-0.189
13.646,-0.520,0.848,-0.191
13.656,-0.518,0.846,-0.189
13.665,-0.516,0.848,-0.186
13.675,-0.516,0.840,-0.189
13.685,-0.514,0.838,-0.184
13.695,-0.508,0.834,-0.191
13.705,-0.508,0.834,-0.189
13.715,-0.508,0.834,-0.189
13.725,-0.508,0.836,-0.189
13.735,-0.508,0.842,-0.193
13.745,-0.508,0.844,-0.186
13.755,-0.508,0.844,-0.191
13.765,-0.510,0.840,-0.186
13.775,-0.512,0.844,-0.188
13.785,-0.512,0.842,-0.188
13.795,-0.514,0.840,-0.189
13.805,-0.512,0.842,-0.186
13.815,-0.514,0.838,-0.189
13.825,-0.514,0.834,-0.188
13.834,-0.510,0.842,-0.186
13.844,-0.510,0.842,-0.182
13.854,-0.506,0.842,-0.186
13.864,-0.506,0.840,-0.186
13.874,-0.510,0.838,-0.189
13.884,-0.508,0.840,-0.191
13.894,-0.512,0.842,-0.188
13.904,-0.512,0.842,-0.188
13.914,-0.514,0.844,-0.191
13.924,-0.514,0.844,-0.188
13.934,-0.512,0.844,-0.189
13.944,-0.510,0.840,-0.191
13.954,-0.508,0.840,-0.188
13.964,-0.508,0.838,-0.188
13.974,-0.508,0.836,-0.191
13.984,-0.508,0.836,-0.189
13.993,-0.506,0.834,-0.191
14.003,-0.510,0.842,-0.188
14.013,-0.510,0.842,-0.189
14.023,-0.508,0.844,-0.191
14.033,-0.510,0.848,-0.189
14.043,-0.512,0.842,-0.191
14.053,-0.516,0.840,-0.191
14.063,-0.514,0.838,-0.189
14.073,-0.518,0.834,-0.188
14.083,-0.516,0.834,-0.191
14.093,-0.518,0.832,-0.191
14.103,-0.516,0.836,-0.191
14.113,-0.516,0.834,-0.189
14.123,-0.518,0.836,-0.189
14.133,-0.514,0.838,-0.191
14.143,-0.516,0.844,-0.193
14.152,-0.518,0.848,-0.193
14.162,-0.516,0.848,-0.188
14.172,-0.516,0.840,-0.186
14.182,-0.516,0.840,-0.188
14.192,-0.514,0.840,-0.186
14.202,-0.510,0.838,-0.189
14.212,-0.514,0.834,-0.188
14.222,-0.514,0.832,-0.191
14.232,-0.516,0.836,-0.189
14.242,-0.520,0.842,-0.189
14.252,-0.521,0.846,-0.188
14.262,-0.521,0.844,-0.189
14.272,-0.520,0.842,-0.189
14.282,-0.520,0.838,-0.188
14.292,-0.520,0.832,-0.189
14.302,-0.516,0.834,-0.188
14.311,-0.516,0.832,-0.186
14.321,-0.516,0.834,-0.188
14.331,-0.518,0.834,-0.189
14.341,-0.516,0.838,-0.189
14.351,-0.518,0.840,-0.188
14.361,-0.518,0.840,-0.186
14.371,-0.518,0.840,-0.188
14.381,-0.516,0.838,-0.188
14.391,-0.516,0.834,-0.188
14.401,-0.516,0.838,-0.191
14.411,-0.521,0.836,-0.191
14.421,-0.518,0.840,-0.188
14.431,-0.514,0.842,-0.189
14.441,-0.514,0.838,-0.188
14.451,-0.514,0.840,-0.188
14.461,-0.512,0.832,-0.191
14.471,-0.514,0.834,-0.189
14.480,-0.516,0.834,-0.191
14.490,-0.518,0.834,-0.189
14.500,-0.518,0.838,-0.193
14.510,-0.514,0.844,-0.188
14.520,-0.518,0.844,-0.193
14.530,-0.518,0.840,-0.191
14.540,-0.514,0.838,-0.193
14.550,-0.516,0.838,-0.191
14.560,-0.518,0.834,-0.193
14.570,-0.518,0.834,-0.193
14.580,-0.514,0.832,-0.195
14.590,-0.518,0.834,-0.193
14.600,-0.518,0.836,-0.193
14.610,-0.514,0.838,-0.193
14.620,-0.514,0.836,-0.195
14.630,-0.514,0.840,-0.193
14.639,-0.516,0.840,-0.195
14.649,-0.514,0.840,-0.193
14.659,-0.516,0.838,-0.191
14.669,-0.516,0.834,-0.193
14.679,-0.514,0.840,-0.193
14.689,-0.514,0.838,-0.191
14.699,-0.518,0.838,-0.193
14.709,-0.512,0.838,-0.193
14.719,-0.514,0.836,-0.195
14.729,-0.514,0.832,-0.191
14.739,-0.514,0.838,-0.193
14.749,-0.514,0.838,-0.197
14.759,-0.516,0.836,-0.193
14.769,-0.518,0.840,-0.195
14.779,-0.518,0.842,-0.195
14.789,-0.518,0.842,-0.197
14.798,-0.520,0.840,-0.193
14.808,-0.518,0.838,-0.189
14.818,-0.516,0.834,-0.188
14.828,-0.516,0.830,-0.189
14.838,-0.512,0.832,-0.191
14.848,-0.512,0.832,-0.193
14.858,-0.514,0.830,-0.193
14.868,-0.512,0.830,-0.191
14.878,-0.514,0.840,-0.195
14.888,-0.514,0.840,-0.191
14.898,-0.514,0.848,-0.191
14.908,-0.518,0.846,-0.195
14.918,-0.516,0.842,-0.193
14.928,-0.521,0.838,-0.189
14.938,-0.521,0.836,-0.193
14.948,-0.521,0.832,-0.191
14.957,-0.523,0.828,-0.193
14.967,-0.520,0.832,-0.193
14.977,-0.520,0.830,-0.191
14.987,-0.518,0.834,-0.195
14.997,-0.516,0.836,-0.193
15.007,-0.518,0.836,-0.193
15.017,-0.518,0.836,-0.191
15.027,-0.521,0.834,-0.191
15.037,-0.521,0.832,-0.193
15.047,-0.525,0.832,-0.191
15.057,-0.525,0.830,-0.191
15.067,-0.518,0.834,-0.191
15.077,-0.518,0.838,-0.191
15.087,-0.512,0.840,-0.188
15.097,-0.514,0.840,-0.191
15.107,-0.514,0.834,-0.193
15.116,-0.518,0.836,-0.191
15.126,-0.516,0.834,-0.195
15.136,-0.518,0.836,-0.193
15.146,-0.518,0.836,-0.193
15.156,-0.520,0.836,-0.195
15.166,-0.518,0.838,-0.193
15.176,-0.520,0.838,-0.193
15.186,-0.516,0.840,-0.195
15.196,-0.516,0.836,-0.193
15.206,-0.514,0.834,-0.193
15.216,-0.514,0.836,-0.193
15.226,-0.512,0.838,-0.193
15.236,-0.514,0.834,-0.193
15.246,-0.514,0.834,-0.195
15.256,-0.514,0.832,-0.193
15.266,-0.514,0.834,-0.197
15.276,-0.514,0.834,-0.199
15.285,-0.514,0.840,-0.195
15.295,-0.516,0.836,-0.199
15.305,-0.516,0.838,-0.195
15.315,-0.518,0.836,-0.195
15.325,-0.516,0.836,-0.195
15.335,-0.518,0.838,-0.195
15.345,-0.516,0.836,-0.195
15.355,-0.516,0.836,-0.191
15.365,-0.516,0.836,-0.195
15.375,-0.518,0.836,-0.197
15.385,-0.520,0.834,-0.197
15.395,-0.518,0.836,-0.195
15.405,-0.516,0.834,-0.195
15.415,-0.520,0.836,-0.199
15.425,-0.520,0.836,-0.193
15.435,-0.521,0.838,-0.197
15.444,-0.520,0.840,-0.193
15.454,-0.518,0.838,-0.195
15.464,-0.520,0.838,-0.197
15.474,-0.518,0.840,-0.195
15.484,-0.518,0.840,-0.195
15.494,-0.516,0.834,-0.193
15.504,-0.514,0.832,-0.189
15.514,-0.514,0.834,-0.188
15.524,-0.514,0.832,-0.191
15.534,-0.512,0.832,-0.193
15.544,-0.514,0.832,-0.197
15.554,-0.520,0.834,-0.191
15.564,-0.520,0.836,-0.193
15.574,-0.520,0.838,-0.191
15.584,-0.521,0.842,-0.193
15.594,-0.521,0.842,-0.191
15.603,-0.523,0.838,-0.191
15.613,-0.521,0.838,-0.197
15.623,-0.523,0.830,-0.193
15.633,-0.521,0.832,-0.189
15.643,-0.520,0.830,-0.195
15.653,-0.521,0.834,-0.191
15.663,-0.516,0.836,-0.193
15.673,-0.514,0.838,-0.191
15.683,-0.514,0.836,-0.189
15.693,-0.518,0.834,-0.189
15.703,-0.518,0.840,-0.189
15.713,-0.521,0.836,-0.188
15.723,-0.516,0.832,-0.189
15.733,-0.521,0.834,-0.191
15.743,-0.523,0.836,-0.193
15.753,-0.520,0.834,-0.188
15.762,-0.523,0.832,-0.189
15.772,-0.521,0.836,-0.189
15.782,-0.520,0.836,-0.184
15.792,-0.520,0.832,-0.188
15.802,-0.520,0.834,-0.186
15.812,-0.520,0.834,-0.191
15.822,-0.521,0.838,-0.193
15.832,-0.518,0.838,-0.191
15.842,-0.520,0.836,-0.193
15.852,-0.521,0.836,-0.191
15.862,-0.521,0.836,-0.191
15.872,-0.523,0.838,-0.189
15.882,-0.521,0.834,-0.191
15.892,-0.523,0.832,-0.191
15.902,-0.523,0.830,-0.191
15.912,-0.523,0.832,-0.191
15.922,-0.527,0.826,-0.189
15.931,-0.529,0.832,-0.193
15.941,-0.527,0.832,-0.193
15.951,-0.525,0.832,-0.191
15.961,-0.527,0.836,-0.195
15.971,-0.521,0.836,-0.193
15.981,-0.525,0.834,-0.195
15.991,-0.521,0.838,-0.191
16.001,-0.523,0.832,-0.193
16.011,-0.520,0.836,-0.191
16.021,-0.520,0.836,-0.195
16.031,-0.521,0.834,-0.195
16.041,-0.520,0.834,-0.193
16.051,-0.520,0.836,-0.193
16.061,-0.523,0.832,-0.197
16.071,-0.521,0.834,-0.189
16.081,-0.521,0.832,-0.193
16.090,-0.523,0.832,-0.195
16.100,-0.523,0.832,-0.195
16.110,-0.523,0.828,-0.195
16.120,-0.521,0.834,-0.195
16.130,-0.523,0.834,-0.193
16.140,-0.527,0.834,-0.195
16.150,-0.525,0.834,-0.197
16.160,-0.523,0.836,-0.195
16.170,-0.521,0.836,-0.191
16.180,-0.523,0.836,-0.195
16.190,-0.523,0.832,-0.191
16.200,-0.520,0.828,-0.186
16.210,-0.518,0.826,-0.186
16.220,-0.516,0.830,-0.188
16.230,-0.514,0.832,-0.189
16.240,-0.518,0.832,-0.193
16.249,-0.521,0.838,-0.193
16.259,-0.525,0.832,-0.193
16.269,-0.525,0.838,-0.193
16.279,-0.527,0.838,-0.193
16.289,-0.527,0.838,-0.191
16.299,-0.529,0.838,-0.189
16.309,-0.529,0.834,-0.189
16.319,-0.527,0.830,-0.189
16.329,-0.523,0.828,-0.191
16.339,-0.523,0.828,-0.191
16.349,-0.521,0.830,-0.189
16.359,-0.521,0.832,-0.188
16.369,-0.521,0.830,-0.188
16.379,-0.527,0.834,-0.189
16.389,-0.523,0.834,-0.186
16.399,-0.523,0.836,-0.188
16.408,-0.527,0.834,-0.188
16.418,-0.525,0.836,-0.188
16.428,-0.527,0.834,-0.189
16.438,-0.527,0.832,-0.186
16.448,-0.525,0.838,-0.182
16.458,-0.523,0.836,-0.189
16.468,-0.521,0.834,-0.184
16.478,-0.523,0.828,-0.186
16.488,-0.523,0.828,-0.189
16.498,-0.525,0.830,-0.188
16.508,-0.527,0.834,-0.189
16.518,-0.527,0.834,-0.191
16.528,-0.531,0.838,-0.189
16.538,-0.527,0.840,-0.189
16.548,-0.529,0.838,-0.186
16.558,-0.523,0.840,-0.188
16.568,-0.523,0.838,-0.189
16.577,-0.523,0.834,-0.186
16.587,-0.523,0.834,-0.186
16.597,-0.523,0.832,-0.186
16.607,-0.523,0.830,-0.188
16.617,-0.521,0.834,-0.186
16.627,-0.525,0.830,-0.188
16.637,-0.527,0.830,-0.184
16.647,-0.529,0.832,-0.182
16.657,-0.533,0.832,-0.188
16.667,-0.529,0.832,-0.186
16.677,-0.529,0.832,-0.184
16.687,-0.529,0.832,-0.186
16.697,-0.529,0.832,-0.191
16.707,-0.527,0.832,-0.188
16.717,-0.527,0.834,-0.188
16.727,-0.523,0.832,-0.188
16.736,-0.525,0.830,-0.186
16.746,-0.529,0.832,-0.188
16.756,-0.527,0.834,-0.186
16.766,-0.527,0.832,-0.188
16.776,-0.531,0.832,-0.186
16.786,-0.531,0.830,-0.189
16.796,-0.531,0.830,-0.191
16.806,-0.533,0.832,-0.188
16.816,-0.535,0.834,-0.186
16.826,-0.533,0.834,-0.189
16.836,-0.531,0.832,-0.193
16.846,-0.531,0.832,-0.191
16.856,-0.529,0.832,-0.188
16.866,-0.529,0.830,-0.182
16.876,-0.527,0.826,-0.184
16.886,-0.525,0.828,-0.184
16.895,-0.523,0.832,-0.186
16.905,-0.525,0.834,-0.184
16.915,-0.523,0.832,-0.189
16.925,-0.525,0.830,-0.184
16.935,-0.533,0.834,-0.186
16.945,-0.535,0.840,-0.188
16.955,-0.533,0.838,-0.189
16.965,-0.535,0.838,-0.188
16.975,-0.529,0.840,-0.186
16.985,-0.529,0.834,-0.184
16.995,-0.529,0.830,-0.184
17.005,-0.523,0.828,-0.188
17.015,-0.527,0.830,-0.189
17.025,-0.523,0.828,-0.184
17.035,-0.521,0.832,-0.184
17.045,-0.527,0.832,-0.188
17.054,-0.527,0.834,-0.184
17.064,-0.527,0.836,-0.182
17.074,-0.527,0.830,-0.188
17.084,-0.525,0.834,-0.188
17.094,-0.527,0.834,-0.188
17.104,-0.529,0.830,-0.189
17.114,-0.527,0.828,-0.186
17.124,-0.529,0.834,-0.186
17.134,-0.529,0.836,-0.184
17.144,-0.525,0.838,-0.186
17.154,-0.523,0.830,-0.184
17.164,-0.525,0.828,-0.184
17.174,-0.525,0.830,-0.188
17.184,-0.525,0.830,-0.188
17.194,-0.529,0.838,-0.186
17.204,-0.529,0.844,-0.188
17.214,-0.529,0.838,-0.188
17.223,-0.529,0.836,-0.186
17.233,-0.529,0.832,-0.189
17.243,-0.527,0.832,-0.186
17.253,-0.523,0.832,-0.191
17.263,-0.525,0.826,-0.189
17.273,-0.525,0.826,-0.182
17.283,-0.523,0.830,-0.188
17.293,-0.525,0.834,-0.189
17.303,-0.525,0.832,-0.188
17.313,-0.527,0.834,-0.189
17.323,-0.525,0.834,-0.189
17.333,-0.523,0.832,-0.188
17.343,-0.523,0.834,-0.188
17.353,-0.525,0.836,-0.188
17.363,-0.525,0.834,-0.189
17.373,-0.525,0.830,-0.191
17.382,-0.527,0.832,-0.186
17.392,-0.527,0.832,-0.188
17.402,-0.531,0.832,-0.189
17.412,-0.525,0.826,-0.188
17.422,-0.527,0.830,-0.189
17.432,-0.529,0.834,-0.189
17.442,-0.525,0.832,-0.189
17.452,-0.529,0.832,-0.189
17.462,-0.527,0.832,-0.188
17.472,-0.531,0.832,-0.189
17.482,-0.529,0.836,-0.189
17.492,-0.527,0.836,-0.188
17.502,-0.525,0.832,-0.188
17.512,-0.523,0.832,-0.184
17.522,-0.527,0.832,-0.186
17.532,-0.523,0.834,-0.188
17.541,-0.523,0.836,-0.186
17.551,-0.525,0.832,-0.188
17.561,-0.527,0.832,-0.186
17.571,-0.531,0.832,-0.186
17.581,-0.531,0.836,-0.188
17.591,-0.531,0.842,-0.186
17.601,-0.529,0.838,-0.186
17.611,-0.527,0.834,-0.184
17.621,-0.527,0.832,-0.184
17.631,-0.527,0.828,-0.186
17.641,-0.525,0.828,-0.186
17.651,-0.525,0.828,-0.189
17.661,-0.525,0.828,-0.186
17.671,-0.523,0.830,-0.184
17.681,-0.523,0.834,-0.184
17.691,-0.523,0.834,-0.182
17.700,-0.520,0.836,-0.184
17.710,-0.523,0.834,-0.184
17.720,-0.521,0.832,-0.184
17.730,-0.523,0.834,-0.182
17.740,-0.523,0.832,-0.188
17.750,-0.525,0.836,-0.186
17.760,-0.527,0.836,-0.182
17.770,-0.527,0.836,-0.182
17.780,-0.521,0.838,-0.180
17.790,-0.520,0.830,-0.188
17.800,-0.521,0.826,-0.186
17.810,-0.523,0.834,-0.182
17.820,-0.523,0.838,-0.186
17.830,-0.527,0.842,-0.182
17.840,-0.525,0.842,-0.182
17.850,-0.525,0.838,-0.182
17.859,-0.527,0.834,-0.182
17.869,-0.525,0.834,-0.184
17.879,-0.521,0.830,-0.182
17.889,-0.525,0.830,-0.186
17.899,-0.523,0.832,-0.186
17.909,-0.525,0.832,-0.184
17.919,-0.525,0.834,-0.188
17.929,-0.521,0.838,-0.180
17.939,-0.525,0.836,-0.184
17.949,-0.523,0.836,-0.188
17.959,-0.523,0.836,-0.186
17.969,-0.523,0.836,-0.182
17.979,-0.523,0.836,-0.184
17.989,-0.525,0.834,-0.188
17.999,-0.525,0.834,-0.186
18.009,-0.523,0.836,-0.186
18.019,-0.527,0.832,-0.188
18.028,-0.527,0.830,-0.188
18.038,-0.527,0.832,-0.184
18.048,-0.529,0.832,-0.186
18.058,-0.529,0.828,-0.186
18.068,-0.527,0.832,-0.182
18.078,-0.529,0.832,-0.186
18.088,-0.529,0.836,-0.186
18.098,-0.527,0.838,-0.188
18.108,-0.523,0.838,-0.188
18.118,-0.527,0.836,-0.186
18.128,-0.523,0.834,-0.186
18.138,-0.529,0.830,-0.184
18.148,-0.523,0.830,-0.186
18.158,-0.521,0.838,-0.188
18.168,-0.523,0.834,-0.191
18.178,-0.523,0.834,-0.186
18.187,-0.527,0.830,-0.189
18.197,-0.529,0.836,-0.188
18.207,-0.531,0.842,-0.186
18.217,-0.533,0.840,-0.186
18.227,-0.529,0.840,-0.184
18.237,-0.531,0.834,-0.186
18.247,-0.529,0.828,-0.184
18.257,-0.527,0.826,-0.184
18.267,-0.529,0.830,-0.186
18.277,-0.531,0.828,-0.188
18.287,-0.527,0.836,-0.188
18.297,-0.529,0.834,-0.184
18.307,-0.531,0.836,-0.184
18.317,-0.531,0.838,-0.182
18.327,-0.531,0.834,-0.178
18.337,-0.531,0.834,-0.180
18.346,-0.531,0.830,-0.184
18.356,-0.529,0.824,-0.186
18.366,-0.529,0.828,-0.184
18.376,-0.529,0.826,-0.182
18.386,-0.527,0.832,-0.184
18.396,-0.529,0.832,-0.184
18.406,-0.529,0.832,-0.188
18.416,-0.531,0.826,-0.189
18.426,-0.539,0.832,-0.191
18.436,-0.545,0.840,-0.199
18.446,-0.547,0.848,-0.195
18.456,-0.551,0.854,-0.195
18.466,-0.551,0.848,-0.199
18.476,-0.547,0.842,-0.199
18.486,-0.543,0.840,-0.197
18.496,-0.539,0.834,-0.197
18.505,-0.541,0.830,-0.199
18.515,-0.535,0.834,-0.197
18.525,-0.537,0.834,-0.203
18.535,-0.531,0.838,-0.201
18.545,-0.537,0.836,-0.199
18.555,-0.535,0.838,-0.203
18.565,-0.533,0.834,-0.199
18.575,-0.535,0.834,-0.201
18.585,-0.533,0.838,-0.199
18.595,-0.533,0.842,-0.207
18.605,-0.525,0.848,-0.201
18.615,-0.529,0.848,-0.195
18.625,-0.531,0.852,-0.197
18.635,-0.527,0.855,-0.199
18.645,-0.531,0.859,-0.199
18.655,-0.527,0.861,-0.195
18.665,-0.520,0.852,-0.193
18.674,-0.512,0.846,-0.191
18.684,-0.510,0.846,-0.186
18.694,-0.504,0.854,-0.182
18.704,-0.498,0.854,-0.176
18.714,-0.498,0.852,-0.174
18.724,-0.500,0.854,-0.172
18.734,-0.494,0.854,-0.172
18.744,-0.492,0.850,-0.168
18.754,-0.488,0.850,-0.172
18.764,-0.492,0.857,-0.168
18.774,-0.492,0.859,-0.162
18.784,-0.484,0.857,-0.160
18.794,-0.480,0.859,-0.158
18.804,-0.475,0.857,-0.154
18.814,-0.469,0.854,-0.150
18.824,-0.463,0.855,-0.146
18.833,-0.459,0.857,-0.150
18.843,-0.457,0.855,-0.148
18.853,-0.457,0.857,-0.148
18.863,-0.461,0.859,-0.150
18.873,-0.457,0.861,-0.152
18.883,-0.461,0.865,-0.148
18.893,-0.457,0.873,-0.145
18.903,-0.455,0.869,-0.146
18.913,-0.451,0.875,-0.146
18.923,-0.453,0.875,-0.146
18.933,-0.449,0.877,-0.141
18.943,-0.441,0.875,-0.145
18.953,-0.436,0.869,-0.146
18.963,-0.432,0.867,-0.145
18.973,-0.432,0.875,-0.143
18.983,-0.428,0.879,-0.141
18.992,-0.426,0.877,-0.150
19.002,-0.432,0.883,-0.152
19.012,-0.428,0.883,-0.146
19.022,-0.424,0.887,-0.152
19.032,-0.426,0.881,-0.152
19.042,-0.424,0.883,-0.154
19.052,-0.424,0.885,-0.156
19.062,-0.424,0.889,-0.158
19.072,-0.426,0.889,-0.160
19.082,-0.428,0.891,-0.160
19.092,-0.428,0.891,-0.160
19.102,-0.434,0.893,-0.168
19.112,-0.434,0.891,-0.170
19.122,-0.439,0.895,-0.168
19.132,-0.439,0.895,-0.172
19.142,-0.439,0.889,-0.178
19.151,-0.438,0.877,-0.174
19.161,-0.426,0.869,-0.176
19.171,-0.418,0.861,-0.174
19.181,-0.420,0.859,-0.172
19.191,-0.416,0.857,-0.168
19.201,-0.410,0.854,-0.170
19.211,-0.406,0.857,-0.166
19.221,-0.406,0.863,-0.164
19.231,-0.404,0.863,-0.164
19.241,-0.395,0.861,-0.160
19.251,-0.393,0.863,-0.160
19.261,-0.393,0.861,-0.160
19.271,-0.387,0.867,-0.156
19.281,-0.391,0.873,-0.156
19.291,-0.389,0.881,-0.152
19.301,-0.389,0.896,-0.143
19.311,-0.400,0.918,-0.145
19.320,-0.404,0.932,-0.141
19.330,-0.414,0.928,-0.146
19.340,-0.422,0.918,-0.146
19.350,-0.424,0.900,-0.150
19.360,-0.422,0.889,-0.154
19.370,-0.418,0.879,-0.150
19.380,-0.418,0.877,-0.158
19.390,-0.420,0.867,-0.156
19.400,-0.422,0.869,-0.162
19.410,-0.426,0.879,-0.164
19.420,-0.430,0.885,-0.170
19.430,-0.436,0.885,-0.180
19.440,-0.438,0.885,-0.182
19.450,-0.441,0.889,-0.184
19.460,-0.436,0.891,-0.188
19.470,-0.432,0.896,-0.186
19.479,-0.436,0.900,-0.189
19.489,-0.436,0.895,-0.191
19.499,-0.436,0.887,-0.193
19.509,-0.430,0.885,-0.193
19.519,-0.428,0.883,-0.195
19.529,-0.426,0.883,-0.189
19.539,-0.428,0.887,-0.193
19.549,-0.426,0.889,-0.191
19.559,-0.422,0.887,-0.188
19.569,-0.424,0.883,-0.189
19.579,-0.420,0.883,-0.188
19.589,-0.420,0.875,-0.186
19.599,-0.430,0.871,-0.193
19.609,-0.436,0.875,-0.189
19.619,-0.439,0.873,-0.191
19.629,-0.441,0.873,-0.189
19.638,-0.451,0.875,-0.188
19.648,-0.455,0.879,-0.193
19.658,-0.453,0.885,-0.186
19.668,-0.463,0.885,-0.195
19.678,-0.463,0.887,-0.195
19.688,-0.461,0.883,-0.195
19.698,-0.469,0.883,-0.193
19.708,-0.467,0.877,-0.193
19.718,-0.467,0.873,-0.191
19.728,-0.465,0.867,-0.191
19.738,-0.459,0.859,-0.193
19.748,-0.455,0.861,-0.193
19.758,-0.455,0.861,-0.195
19.768,-0.449,0.865,-0.197
19.778,-0.447,0.861,-0.197
19.788,-0.449,0.865,-0.199
19.797,-0.449,0.869,-0.199
19.807,-0.451,0.869,-0.201
19.817,-0.453,0.871,-0.201
19.827,-0.451,0.871,-0.203
19.837,-0.449,0.867,-0.203
19.847,-0.453,0.867,-0.203
19.857,-0.455,0.867,-0.207
19.867,-0.457,0.867,-0.209
19.877,-0.455,0.869,-0.209
19.887,-0.455,0.871,-0.207
19.897,-0.455,0.871,-0.211
19.907,-0.457,0.869,-0.217
19.917,-0.455,0.869,-0.217
19.927,-0.453,0.867,-0.217
19.937,-0.455,0.869,-0.219
19.947,-0.459,0.865,-0.221
19.957,-0.461,0.871,-0.217
19.966,-0.459,0.875,-0.221
19.976,-0.463,0.877,-0.219
19.986,-0.457,0.875,-0.219
19.996,-0.457,0.871,-0.217
20.006,-0.453,0.865,-0.211
20.016,-0.451,0.871,-0.213
20.026,-0.443,0.873,-0.215
20.036,-0.445,0.871,-0.211
20.046,-0.451,0.863,-0.215
20.056,-0.459,0.865,-0.211
20.066,-0.461,0.861,-0.213
20.076,-0.469,0.857,-0.211
20.086,-0.471,0.857,-0.207
20.096,-0.473,0.854,-0.207
20.106,-0.479,0.854,-0.207
20.116,-0.477,0.855,-0.205
20.125,-0.479,0.852,-0.201
20.135,-0.480,0.848,-0.205
20.145,-0.475,0.848,-0.203
20.155,-0.471,0.854,-0.199
20.165,-0.467,0.855,-0.197
20.175,-0.463,0.861,-0.197
20.185,-0.459,0.854,-0.199
20.195,-0.455,0.857,-0.195
20.205,-0.459,0.854,-0.199
20.215,-0.461,0.857,-0.201
20.225,-0.459,0.857,-0.201
20.235,-0.463,0.855,-0.199
20.245,-0.467,0.867,-0.199
20.255,-0.467,0.863,-0.195
20.265,-0.469,0.863,-0.197
20.275,-0.471,0.859,-0.203
20.284,-0.473,0.857,-0.201
20.294,-0.475,0.855,-0.205
20.304,-0.477,0.854,-0.203
20.314,-0.479,0.854,-0.205
20.324,-0.473,0.861,-0.201
20.334,-0.473,0.861,-0.205
20.344,-0.475,0.857,-0.205
20.354,-0.475,0.857,-0.203
20.364,-0.477,0.852,-0.207
20.374,-0.477,0.846,-0.207
20.384,-0.482,0.844,-0.209
20.394,-0.480,0.846,-0.209
20.404,-0.482,0.844,-0.213
20.414,-0.480,0.852,-0.211
20.424,-0.479,0.852,-0.211
20.434,-0.477,0.857,-0.211
20.443,-0.477,0.861,-0.211
20.453,-0.477,0.861,-0.211
20.463,-0.473,0.863,-0.213
20.473,-0.477,0.857,-0.211
20.483,-0.477,0.857,-0.211
20.493,-0.477,0.854,-0.211
20.503,-0.477,0.852,-0.203
20.513,-0.477,0.848,-0.211
20.523,-0.475,0.844,-0.211
20.533,-0.475,0.852,-0.207
20.543,-0.477,0.854,-0.207
20.553,-0.475,0.852,-0.205
20.563,-0.473,0.848,-0.207
20.573,-0.480,0.854,-0.205
20.583,-0.482,0.854,-0.205
20.593,-0.482,0.854,-0.207
20.603,-0.486,0.857,-0.207
20.612,-0.484,0.855,-0.199
20.622,-0.480,0.859,-0.205
20.632,-0.479,0.857,-0.205
20.642,-0.475,0.855,-0.205
20.652,-0.475,0.855,-0.209
20.662,-0.471,0.852,-0.207
20.672,-0.475,0.854,-0.207
20.682,-0.477,0.855,-0.205
20.692,-0.480,0.854,-0.203
20.702,-0.486,0.852,-0.201
20.712,-0.488,0.848,-0.197
20.722,-0.488,0.846,-0.201
20.732,-0.486,0.838,-0.199
20.742,-0.484,0.836,-0.203
20.752,-0.484,0.836,-0.207
20.762,-0.484,0.838,-0.207
20.771,-0.482,0.842,-0.209
20.781,-0.484,0.842,-0.209
20.791,-0.482,0.846,-0.209
20.801,-0.480,0.852,-0.205
20.811,-0.475,0.852,-0.203
20.821,-0.475,0.855,-0.205
20.831,-0.479,0.857,-0.213
20.841,-0.486,0.859,-0.205
20.851,-0.498,0.859,-0.205
20.861,-0.506,0.859,-0.199
20.871,-0.506,0.857,-0.199
20.881,-0.500,0.850,-0.199
20.891,-0.500,0.840,-0.203
20.901,-0.502,0.840,-0.205
20.911,-0.500,0.842,-0.203
20.921,-0.500,0.840,-0.209
20.930,-0.502,0.838,-0.205
20.940,-0.506,0.840,-0.203
20.950,-0.514,0.840,-0.203
20.960,-0.520,0.836,-0.201
20.970,-0.533,0.830,-0.201
20.980,-0.537,0.830,-0.201
20.990,-0.539,0.824,-0.197
21.000,-0.541,0.822,-0.193
21.010,-0.545,0.816,-0.195
21.020,-0.541,0.816,-0.197
21.030,-0.531,0.811,-0.191
21.040,-0.525,0.812,-0.189
21.050,-0.527,0.816,-0.193
21.060,-0.525,0.818,-0.191
21.070,-0.525,0.814,-0.189
21.080,-0.531,0.820,-0.186
21.089,-0.529,0.824,-0.188
21.099,-0.531,0.826,-0.189
21.109,-0.533,0.826,-0.191
21.119,-0.535,0.822,-0.188
21.129,-0.537,0.820,-0.189
21.139,-0.523,0.836,-0.197
21.149,-0.492,0.857,-0.195
21.159,-0.500,0.855,-0.199
21.169,-0.512,0.846,-0.207
21.179,-0.496,0.855,-0.201
21.189,-0.484,0.855,-0.207
21.199,-0.480,0.846,-0.209
21.209,-0.482,0.846,-0.207
21.219,-0.482,0.852,-0.207
21.229,-0.486,0.848,-0.211
21.239,-0.492,0.852,-0.207
21.248,-0.502,0.854,-0.213
21.258,-0.504,0.855,-0.215
21.268,-0.514,0.854,-0.215
21.278,-0.523,0.850,-0.215
21.288,-0.525,0.844,-0.215
21.298,-0.523,0.840,-0.217
21.308,-0.516,0.832,-0.213
21.318,-0.514,0.828,-0.215
21.328,-0.510,0.824,-0.213
21.338,-0.502,0.824,-0.213
21.348,-0.500,0.826,-0.211
21.358,-0.498,0.828,-0.213
21.368,-0.492,0.832,-0.209
21.378,-0.490,0.832,-0.207
21.388,-0.484,0.832,-0.211
21.398,-0.484,0.842,-0.211
21.408,-0.486,0.844,-0.207
21.417,-0.486,0.848,-0.211
21.427,-0.490,0.850,-0.213
21.437,-0.484,0.840,-0.215
21.447,-0.482,0.846,-0.213
21.457,-0.477,0.850,-0.213
21.467,-0.473,0.855,-0.217
21.477,-0.469,0.854,-0.219
21.487,-0.473,0.854,-0.219
21.497,-0.471,0.852,-0.223
21.507,-0.475,0.852,-0.223
21.517,-0.480,0.852,-0.221
21.527,-0.486,0.852,-0.219
21.537,-0.492,0.855,-0.221
21.547,-0.494,0.855,-0.217
21.557,-0.498,0.852,-0.219
21.567,-0.502,0.852,-0.221
21.576,-0.502,0.842,-0.217
21.586,-0.504,0.836,-0.217
21.596,-0.506,0.834,-0.219
21.606,-0.508,0.832,-0.219
21.616,-0.512,0.828,-0.213
21.626,-0.516,0.826,-0.215
21.636,-0.518,0.828,-0.213
21.646,-0.520,0.828,-0.217
21.656,-0.518,0.826,-0.211
21.666,-0.520,0.830,-0.207
21.676,-0.518,0.826,-0.205
21.686,-0.518,0.826,-0.205
21.696,-0.512,0.818,-0.207
21.706,-0.516,0.818,-0.205
21.716,-0.518,0.820,-0.207
21.726,-0.520,0.818,-0.205
21.735,-0.518,0.820,-0.209
21.745,-0.516,0.828,-0.209
21.755,-0.518,0.830,-0.211
21.765,-0.523,0.830,-0.209
21.775,-0.521,0.836,-0.213
21.785,-0.521,0.828,-0.211
21.795,-0.525,0.828,-0.213
21.805,-0.529,0.820,-0.215
21.815,-0.527,0.818,-0.215
21.825,-0.529,0.818,-0.219
21.835,-0.535,0.822,-0.223
21.845,-0.543,0.816,-0.225
21.855,-0.545,0.818,-0.225
21.865,-0.553,0.816,-0.223
21.875,-0.557,0.816,-0.221
21.885,-0.557,0.816,-0.219
21.894,-0.562,0.811,-0.217
21.904,-0.566,0.805,-0.215
21.914,-0.555,0.809,-0.211
21.924,-0.559,0.803,-0.213
21.934,-0.555,0.799,-0.217
21.944,-0.555,0.799,-0.211
21.954,-0.561,0.795,-0.211
21.964,-0.559,0.793,-0.209
21.974,-0.559,0.799,-0.207
21.984,-0.557,0.801,-0.207
21.994,-0.562,0.801,-0.207
22.004,-0.564,0.797,-0.209
22.014,-0.566,0.789,-0.215
22.024,-0.564,0.781,-0.217
22.034,-0.566,0.771,-0.221
22.044,-0.574,0.770,-0.217
22.054,-0.586,0.771,-0.221
22.063,-0.590,0.777,-0.217
22.073,-0.596,0.775,-0.225
22.083,-0.602,0.773,-0.223
22.093,-0.609,0.771,-0.227
22.103,-0.617,0.775,-0.225
22.113,-0.619,0.777,-0.227
22.123,-0.623,0.779,-0.229
22.133,-0.629,0.781,-0.230
22.143,-0.631,0.779,-0.230
22.153,-0.627,0.775,-0.229
22.163,-0.623,0.775,-0.229
22.173,-0.621,0.773,-0.227
22.183,-0.619,0.768,-0.227
22.193,-0.615,0.762,-0.229
22.203,-0.615,0.760,-0.230
22.213,-0.615,0.760,-0.229
22.222,-0.619,0.758,-0.229
22.232,-0.615,0.758,-0.227
22.242,-0.621,0.760,-0.223
22.252,-0.617,0.758,-0.225
22.262,-0.615,0.764,-0.229
22.272,-0.615,0.762,-0.227
22.282,-0.617,0.766,-0.225
22.292,-0.615,0.768,-0.225
22.302,-0.611,0.760,-0.229
22.312,-0.605,0.760,-0.225
22.322,-0.604,0.764,-0.227
22.332,-0.602,0.760,-0.229
22.342,-0.607,0.762,-0.229
22.352,-0.605,0.766,-0.229
22.362,-0.607,0.766,-0.234
22.372,-0.609,0.768,-0.232
22.381,-0.607,0.773,-0.230
22.391,-0.607,0.770,-0.234
22.401,-0.609,0.768,-0.230
22.411,-0.605,0.764,-0.230
22.421,-0.609,0.762,-0.232
22.431,-0.613,0.764,-0.236
22.441,-0.613,0.760,-0.236
22.451,-0.623,0.758,-0.236
22.461,-0.619,0.758,-0.238
22.471,-0.619,0.762,-0.236
22.481,-0.621,0.764,-0.234
22.491,-0.621,0.766,-0.232
22.501,-0.617,0.768,-0.229
22.511,-0.615,0.768,-0.229
22.521,-0.613,0.762,-0.234
22.531,-0.607,0.762,-0.230
22.540,-0.607,0.756,-0.230
22.550,-0.605,0.758,-0.238
22.560,-0.604,0.762,-0.234
22.570,-0.602,0.760,-0.238
22.580,-0.600,0.762,-0.230
22.590,-0.598,0.766,-0.232
22.600,-0.596,0.766,-0.229
22.610,-0.594,0.770,-0.229
22.620,-0.594,0.773,-0.232
22.630,-0.590,0.770,-0.236
22.640,-0.590,0.771,-0.234
22.650,-0.588,0.766,-0.238
22.660,-0.588,0.771,-0.238
22.670,-0.598,0.775,-0.238
22.680,-0.600,0.775,-0.236
22.690,-0.602,0.770,-0.238
22.700,-0.607,0.768,-0.238
22.709,-0.615,0.768,-0.238
22.719,-0.613,0.771,-0.238
22.729,-0.613,0.771,-0.234
22.739,-0.617,0.771,-0.238
22.749,-0.617,0.773,-0.236
22.759,-0.613,0.775,-0.238
22.769,-0.604,0.777,-0.240
22.779,-0.600,0.775,-0.238
22.789,-0.590,0.771,-0.240
22.799,-0.590,0.768,-0.240
22.809,-0.586,0.771,-0.240
22.819,-0.582,0.775,-0.240
22.829,-0.582,0.777,-0.236
22.839,-0.588,0.775,-0.238
22.849,-0.590,0.773,-0.236
22.859,-0.590,0.775,-0.238
22.868,-0.592,0.771,-0.234
22.878,-0.596,0.771,-0.232
22.888,-0.598,0.773,-0.238
22.898,-0.602,0.773,-0.238
22.908,-0.600,0.771,-0.240
22.918,-0.602,0.770,-0.238
22.928,-0.604,0.771,-0.238
22.938,-0.605,0.768,-0.238
22.948,-0.602,0.770,-0.236
22.958,-0.604,0.770,-0.236
22.968,-0.600,0.777,-0.236
22.978,-0.594,0.779,-0.230
22.988,-0.592,0.777,-0.232
22.998,-0.588,0.775,-0.238
23.008,-0.588,0.775,-0.232
23.018,-0.586,0.771,-0.232
23.027,-0.588,0.770,-0.234
23.037,-0.588,0.771,-0.236
23.047,-0.586,0.771,-0.238
23.057,-0.586,0.773,-0.238
23.067,-0.588,0.779,-0.236
23.077,-0.590,0.785,-0.236
23.087,-0.590,0.787,-0.238
23.097,-0.586,0.787,-0.230
23.107,-0.586,0.789,-0.230
23.117,-0.584,0.785,-0.230
23.127,-0.582,0.781,-0.232
23.137,-0.582,0.777,-0.236
23.147,-0.580,0.775,-0.236
23.157,-0.578,0.777,-0.236
23.167,-0.576,0.777,-0.238
23.177,-0.578,0.781,-0.238
23.186,-0.582,0.783,-0.236
23.196,-0.580,0.779,-0.236
23.206,-0.584,0.779,-0.238
23.216,-0.586,0.781,-0.234
23.226,-0.592,0.777,-0.238
23.236,-0.592,0.773,-0.236
23.246,-0.594,0.773,-0.232
23.256,-0.598,0.775,-0.230
23.266,-0.592,0.779,-0.229
23.276,-0.594,0.781,-0.229
23.286,-0.592,0.773,-0.227
23.296,-0.590,0.779,-0.230
23.306,-0.590,0.777,-0.229
23.316,-0.586,0.779,-0.229
23.326,-0.584,0.779,-0.227
23.336,-0.586,0.785,-0.230
23.346,-0.584,0.785,-0.227
23.355,-0.588,0.785,-0.230
23.365,-0.586,0.783,-0.230
23.375,-0.590,0.781,-0.234
23.385,-0.586,0.779,-0.236
23.395,-0.584,0.779,-0.238
23.405,-0.584,0.781,-0.236
23.415,-0.584,0.777,-0.236
23.425,-0.582,0.777,-0.236
23.435,-0.586,0.781,-0.234
23.445,-0.586,0.779,-0.234
23.455,-0.588,0.779,-0.234
23.465,-0.590,0.781,-0.234
23.475,-0.592,0.779,-0.232
23.485,-0.594,0.773,-0.230
23.495,-0.596,0.771,-0.230
23.505,-0.596,0.771,-0.227
23.514,-0.596,0.773,-0.230
23.524,-0.594,0.779,-0.230
23.534,-0.594,0.775,-0.229
23.544,-0.594,0.777,-0.234
23.554,-0.598,0.777,-0.232
23.564,-0.596,0.777,-0.236
23.574,-0.598,0.779,-0.232
23.584,-0.598,0.779,-0.234
23.594,-0.592,0.775,-0.230
23.604,-0.588,0.775,-0.230
23.614,-0.590,0.779,-0.229
23.624,-0.584,0.779,-0.230
23.634,-0.588,0.777,-0.230
23.644,-0.586,0.775,-0.232
23.654,-0.588,0.775,-0.232
23.664,-0.588,0.779,-0.232
23.673,-0.592,0.783,-0.230
23.683,-0.594,0.783,-0.229
23.693,-0.596,0.777,-0.227
23.703,-0.596,0.775,-0.229
23.713,-0.598,0.773,-0.230
23.723,-0.600,0.771,-0.232
23.733,-0.600,0.770,-0.234
23.743,-0.598,0.770,-0.230
23.753,-0.598,0.773,-0.234
23.763,-0.596,0.775,-0.232
23.773,-0.594,0.779,-0.230
23.783,-0.594,0.777,-0.234
23.793,-0.594,0.777,-0.230
23.803,-0.594,0.775,-0.230
23.813,-0.592,0.777,-0.230
23.823,-0.590,0.775,-0.232
23.832,-0.590,0.773,-0.229
23.842,-0.592,0.771,-0.230
23.852,-0.592,0.770,-0.230
23.862,-0.592,0.775,-0.230
23.872,-0.588,0.771,-0.232
23.882,-0.584,0.777,-0.234
23.892,-0.586,0.789,-0.232
23.902,-0.588,0.785,-0.230
23.912,-0.588,0.781,-0.232
23.922,-0.592,0.781,-0.230
23.932,-0.590,0.777,-0.232
23.942,-0.594,0.773,-0.227
23.952,-0.594,0.773,-0.227
23.962,-0.598,0.770,-0.229
23.972,-0.600,0.764,-0.225
23.982,-0.600,0.762,-0.230
23.991,-0.602,0.764,-0.230
24.001,-0.604,0.766,-0.232
24.011,-0.605,0.771,-0.227
24.021,-0.609,0.773,-0.227
24.031,-0.613,0.770,-0.230
24.041,-0.615,0.775,-0.232
24.051,-0.607,0.781,-0.232
24.061,-0.605,0.785,-0.234
24.071,-0.604,0.781,-0.240
24.081,-0.596,0.787,-0.240
24.091,-0.592,0.793,-0.242
24.101,-0.586,0.793,-0.240
24.111,-0.586,0.789,-0.242
24.121,-0.586,0.779,-0.246
24.131,-0.588,0.779,-0.248
24.141,-0.590,0.777,-0.248
24.151,-0.594,0.777,-0.248
24.160,-0.596,0.775,-0.246
24.170,-0.596,0.781,-0.250
24.180,-0.617,0.766,-0.248
24.190,-0.578,0.783,-0.256
24.200,-0.578,0.789,-0.234
24.210,-0.594,0.781,-0.248
24.220,-0.578,0.787,-0.232
24.230,-0.572,0.787,-0.238
24.240,-0.566,0.789,-0.236
24.250,-0.568,0.791,-0.232
24.260,-0.561,0.787,-0.230
24.270,-0.564,0.795,-0.227
24.280,-0.562,0.799,-0.227
24.290,-0.557,0.801,-0.221
24.300,-0.557,0.805,-0.217
24.310,-0.555,0.803,-0.217
24.319,-0.553,0.803,-0.215
24.329,-0.551,0.797,-0.211
24.339,-0.545,0.789,-0.215
24.349,-0.543,0.791,-0.215
24.359,-0.537,0.795,-0.219
24.369,-0.535,0.799,-0.219
24.379,-0.529,0.809,-0.221
24.389,-0.531,0.807,-0.221
24.399,-0.537,0.814,-0.219
24.409,-0.539,0.820,-0.219
24.419,-0.541,0.828,-0.215
24.429,-0.545,0.830,-0.217
24.439,-0.545,0.826,-0.219
24.449,-0.543,0.826,-0.211
24.459,-0.541,0.826,-0.207
24.469,-0.539,0.818,-0.211
24.478,-0.535,0.822,-0.207
24.488,-0.531,0.816,-0.203
24.498,-0.529,0.814,-0.207
24.508,-0.525,0.814,-0.203
24.518,-0.520,0.809,-0.205
24.528,-0.521,0.811,-0.203
24.538,-0.521,0.811,-0.207
24.548,-0.527,0.809,-0.205
24.558,-0.527,0.805,-0.207
24.568,-0.518,0.809,-0.209
24.578,-0.514,0.807,-0.207
24.588,-0.514,0.812,-0.209
24.598,-0.504,0.816,-0.215
24.608,-0.504,0.820,-0.211
24.618,-0.512,0.818,-0.221
24.628,-0.520,0.818,-0.219
24.637,-0.531,0.822,-0.223
24.647,-0.539,0.824,-0.223
24.657,-0.545,0.828,-0.229
24.667,-0.551,0.826,-0.223
24.677,-0.555,0.822,-0.229
24.687,-0.561,0.818,-0.229
24.697,-0.564,0.812,-0.225
24.707,-0.566,0.807,-0.227
24.717,-0.564,0.805,-0.229
24.727,-0.561,0.801,-0.225
24.737,-0.564,0.795,-0.227
24.747,-0.562,0.795,-0.225
24.757,-0.557,0.793,-0.223
24.767,-0.559,0.793,-0.221
24.777,-0.559,0.791,-0.219
24.787,-0.562,0.793,-0.215
24.797,-0.561,0.787,-0.217
24.806,-0.559,0.789,-0.219
24.816,-0.557,0.785,-0.219
24.826,-0.555,0.783,-0.221
24.836,-0.549,0.779,-0.223
24.846,-0.547,0.785,-0.227
24.856,-0.541,0.793,-0.230
24.866,-0.545,0.793,-0.234
24.876,-0.547,0.795,-0.236
24.886,-0.551,0.801,-0.240
24.896,-0.555,0.805,-0.242
24.906,-0.553,0.807,-0.240
24.916,-0.551,0.811,-0.238
24.926,-0.553,0.807,-0.246
24.936,-0.551,0.805,-0.240
24.946,-0.545,0.803,-0.242
24.956,-0.547,0.795,-0.242
24.965,-0.553,0.801,-0.250
24.975,-0.553,0.789,-0.250
24.985,-0.561,0.795,-0.250
24.995,-0.566,0.793,-0.252
25.005,-0.578,0.789,-0.256
25.015,-0.562,0.793,-0.254
25.025,-0.568,0.789,-0.246
25.035,-0.566,0.797,-0.246
25.045,-0.555,0.803,-0.244
25.055,-0.555,0.797,-0.242
25.065,-0.551,0.797,-0.236
25.075,-0.557,0.799,-0.232
25.085,-0.555,0.797,-0.234
25.095,-0.553,0.791,-0.234
25.105,-0.551,0.783,-0.236
25.115,-0.545,0.779,-0.242
25.124,-0.547,0.777,-0.242
25.134,-0.543,0.775,-0.248
25.144,-0.547,0.781,-0.246
25.154,-0.555,0.787,-0.250
25.164,-0.568,0.793,-0.258
25.174,-0.578,0.803,-0.258
25.184,-0.588,0.807,-0.256
25.194,-0.594,0.809,-0.258
25.204,-0.600,0.803,-0.260
25.214,-0.604,0.793,-0.258
25.224,-0.611,0.783,-0.260
25.234,-0.613,0.771,-0.260
25.244,-0.617,0.758,-0.254
25.254,-0.615,0.752,-0.254
25.264,-0.611,0.750,-0.248
25.274,-0.607,0.750,-0.248
25.283,-0.596,0.746,-0.250
25.293,-0.598,0.750,-0.254
25.303,-0.602,0.756,-0.252
25.313,-0.600,0.760,-0.252
25.323,-0.604,0.760,-0.256
25.333,-0.609,0.762,-0.262
25.343,-0.613,0.764,-0.262
25.353,-0.617,0.762,-0.266
25.363,-0.615,0.760,-0.270
25.373,-0.611,0.758,-0.273
25.383,-0.607,0.760,-0.271
25.393,-0.611,0.762,-0.268
25.403,-0.605,0.762,-0.268
25.413,-0.607,0.758,-0.264
25.423,-0.605,0.760,-0.266
25.433,-0.611,0.760,-0.268
25.443,-0.617,0.764,-0.271
25.452,-0.623,0.770,-0.273
25.462,-0.619,0.773,-0.275
25.472,-0.613,0.777,-0.268
25.482,-0.609,0.781,-0.270
25.492,-0.600,0.781,-0.268
25.502,-0.584,0.783,-0.266
25.512,-0.570,0.779,-0.264
25.522,-0.557,0.768,-0.258
25.532,-0.547,0.764,-0.254
25.542,-0.551,0.762,-0.250
25.552,-0.549,0.766,-0.246
25.562,-0.549,0.766,-0.238
25.572,-0.549,0.775,-0.234
25.582,-0.555,0.773,-0.238
25.592,-0.557,0.773,-0.238
25.602,-0.564,0.777,-0.238
25.611,-0.559,0.779,-0.240
25.621,-0.561,0.775,-0.242
25.631,-0.564,0.771,-0.244
25.641,-0.570,0.768,-0.254
25.651,-0.574,0.758,-0.254
25.661,-0.584,0.754,-0.256
25.671,-0.596,0.754,-0.262
25.681,-0.605,0.750,-0.260
25.691,-0.615,0.740,-0.268
25.701,-0.629,0.730,-0.271
25.711,-0.639,0.730,-0.287
25.721,-0.641,0.748,-0.285
25.731,-0.643,0.773,-0.287
25.741,-0.643,0.789,-0.283
25.751,-0.635,0.795,-0.279
25.761,-0.639,0.795,-0.275
25.770,-0.625,0.785,-0.273
25.780,-0.611,0.777,-0.271
25.790,-0.602,0.762,-0.270
25.800,-0.588,0.750,-0.275
25.810,-0.578,0.746,-0.270
25.820,-0.570,0.742,-0.270
25.830,-0.572,0.744,-0.266
25.840,-0.572,0.748,-0.260
25.850,-0.578,0.746,-0.264
25.860,-0.574,0.754,-0.264
25.870,-0.582,0.762,-0.266
25.880,-0.584,0.760,-0.266
25.890,-0.588,0.758,-0.270
25.900,-0.592,0.758,-0.273
25.910,-0.598,0.756,-0.271
25.920,-0.598,0.762,-0.279
25.929,-0.598,0.766,-0.275
25.939,-0.598,0.764,-0.277
25.949,-0.604,0.766,-0.279
25.959,-0.604,0.762,-0.279
25.969,-0.605,0.762,-0.281
25.979,-0.605,0.760,-0.279
25.989,-0.600,0.758,-0.279
25.999,-0.602,0.754,-0.279
26.009,-0.602,0.754,-0.275
26.019,-0.598,0.756,-0.277
26.029,-0.598,0.758,-0.277
26.039,-0.594,0.760,-0.277
26.049,-0.592,0.754,-0.277
26.059,-0.590,0.752,-0.273
26.069,-0.592,0.752,-0.277
26.079,-0.592,0.758,-0.273
26.089,-0.588,0.756,-0.271
26.098,-0.592,0.760,-0.266
26.108,-0.592,0.760,-0.268
26.118,-0.592,0.762,-0.270
26.128,-0.592,0.758,-0.271
26.138,-0.594,0.758,-0.271
26.148,-0.594,0.758,-0.273
26.158,-0.596,0.756,-0.277
26.168,-0.598,0.756,-0.270
26.178,-0.596,0.758,-0.270
26.188,-0.598,0.756,-0.273
26.198,-0.598,0.756,-0.273
26.208,-0.600,0.756,-0.273
26.218,-0.604,0.756,-0.275
26.228,-0.604,0.762,-0.273
26.238,-0.602,0.760,-0.266
26.248,-0.602,0.758,-0.264
26.257,-0.600,0.760,-0.266
26.267,-0.596,0.760,-0.264
26.277,-0.590,0.760,-0.266
26.287,-0.590,0.758,-0.266
26.297,-0.586,0.756,-0.264
26.307,-0.588,0.756,-0.266
26.317,-0.586,0.760,-0.266
26.327,-0.590,0.762,-0.268
26.337,-0.588,0.762,-0.264
26.347,-0.592,0.758,-0.268
26.357,-0.592,0.760,-0.268
26.367,-0.592,0.760,-0.270
26.377,-0.596,0.758,-0.271
26.387,-0.596,0.756,-0.279
26.397,-0.596,0.754,-0.275
26.407,-0.600,0.752,-0.277
26.416,-0.600,0.760,-0.275
26.426,-0.600,0.760,-0.279
26.436,-0.600,0.758,-0.275
26.446,-0.598,0.758,-0.277
26.456,-0.598,0.758,-0.275
26.466,-0.598,0.758,-0.273
26.476,-0.596,0.758,-0.275
26.486,-0.598,0.756,-0.277
26.496,-0.600,0.758,-0.275
26.506,-0.600,0.754,-0.270
26.516,-0.594,0.758,-0.275
26.526,-0.596,0.754,-0.277
26.536,-0.594,0.752,-0.275
26.546,-0.592,0.754,-0.275
26.556,-0.592,0.758,-0.273
26.566,-0.594,0.756,-0.275
26.575,-0.594,0.760,-0.277
26.585,-0.594,0.760,-0.279
26.595,-0.598,0.762,-0.275
26.605,-0.594,0.760,-0.277
26.615,-0.596,0.758,-0.277
26.625,-0.592,0.756,-0.273
26.635,-0.594,0.756,-0.275
26.645,-0.594,0.758,-0.277
26.655,-0.588,0.754,-0.277
26.665,-0.592,0.754,-0.279
26.675,-0.590,0.756,-0.275
26.685,-0.596,0.764,-0.277
26.695,-0.596,0.760,-0.273
26.705,-0.600,0.764,-0.271
26.715,-0.600,0.762,-0.271
26.725,-0.600,0.760,-0.273
26.735,-0.596,0.754,-0.270
26.744,-0.598,0.746,-0.271
26.754,-0.598,0.748,-0.273
26.764,-0.598,0.746,-0.273
26.774,-0.598,0.744,-0.271
26.784,-0.600,0.746,-0.275
26.794,-0.598,0.750,-0.273
26.804,-0.600,0.750,-0.273
26.814,-0.598,0.756,-0.273
26.824,-0.602,0.756,-0.275
26.834,-0.600,0.758,-0.275
26.844,-0.600,0.756,-0.275
26.854,-0.598,0.756,-0.277
26.864,-0.592,0.760,-0.271
26.874,-0.590,0.760,-0.275
26.884,-0.590,0.760,-0.275
26.894,-0.590,0.758,-0.271
26.903,-0.594,0.756,-0.275
26.913,-0.596,0.756,-0.275
26.923,-0.600,0.756,-0.275
26.933,-0.598,0.760,-0.273
26.943,-0.600,0.756,-0.277
26.953,-0.600,0.760,-0.277
26.963,-0.600,0.762,-0.273
26.973,-0.600,0.762,-0.275
26.983,-0.598,0.756,-0.273
26.993,-0.600,0.754,-0.275
27.003,-0.607,0.760,-0.273
27.013,-0.600,0.758,-0.275
27.023,-0.600,0.756,-0.273
27.033,-0.604,0.760,-0.277
27.043,-0.602,0.758,-0.273
27.053,-0.604,0.762,-0.273
27.062,-0.598,0.766,-0.270
27.072,-0.602,0.760,-0.270
27.082,-0.615,0.764,-0.270
27.092,-0.607,0.762,-0.271
27.102,-0.600,0.756,-0.268
27.112,-0.598,0.752,-0.273
27.122,-0.594,0.754,-0.264
27.132,-0.588,0.752,-0.273
27.142,-0.586,0.756,-0.270
27.152,-0.584,0.750,-0.270
27.162,-0.588,0.748,-0.270
27.172,-0.590,0.752,-0.273
27.182,-0.584,0.748,-0.271
27.192,-0.586,0.750,-0.277
27.202,-0.594,0.754,-0.277
27.212,-0.590,0.758,-0.277
27.221,-0.592,0.758,-0.275
27.231,-0.592,0.760,-0.273
27.241,-0.598,0.752,-0.270
27.251,-0.596,0.752,-0.268
27.261,-0.602,0.756,-0.270
27.271,-0.600,0.756,-0.268
27.281,-0.594,0.758,-0.268
27.291,-0.596,0.756,-0.271
27.301,-0.598,0.754,-0.275
27.311,-0.600,0.752,-0.273
27.321,-0.602,0.758,-0.271
27.331,-0.600,0.760,-0.270
27.341,-0.598,0.758,-0.270
27.351,-0.602,0.762,-0.266
27.361,-0.598,0.758,-0.270
27.371,-0.596,0.750,-0.271
27.380,-0.596,0.752,-0.271
27.390,-0.600,0.752,-0.275
27.400,-0.598,0.756,-0.273
27.410,-0.596,0.754,-0.275
27.420,-0.594,0.758,-0.275
27.430,-0.596,0.756,-0.273
27.440,-0.598,0.760,-0.273
27.450,-0.598,0.758,-0.270
27.460,-0.598,0.760,-0.271
27.470,-0.596,0.756,-0.275
27.480,-0.596,0.752,-0.275
27.490,-0.598,0.754,-0.268
27.500,-0.596,0.752,-0.275
27.510,-0.598,0.754,-0.270
27.520,-0.598,0.758,-0.271
27.530,-0.596,0.754,-0.275
27.540,-0.598,0.754,-0.270
27.549,-0.596,0.756,-0.275
27.559,-0.598,0.760,-0.273
27.569,-0.604,0.760,-0.271
27.579,-0.602,0.760,-0.273
27.589,-0.604,0.756,-0.273
27.599,-0.600,0.760,-0.273
27.609,-0.604,0.756,-0.271
27.619,-0.604,0.756,-0.271
27.629,-0.598,0.754,-0.273
27.639,-0.594,0.750,-0.271
27.649,-0.596,0.752,-0.275
27.659,-0.594,0.752,-0.271
27.669,-0.594,0.752,-0.270
27.679,-0.596,0.756,-0.275
27.689,-0.596,0.756,-0.275
27.699,-0.598,0.756,-0.271
27.708,-0.598,0.756,-0.275
27.718,-0.600,0.754,-0.277
27.728,-0.602,0.756,-0.273
27.738,-0.602,0.756,-0.275
27.748,-0.604,0.752,-0.275
27.758,-0.604,0.752,-0.277
27.768,-0.600,0.752,-0.275
27.778,-0.602,0.754,-0.275
27.788,-0.600,0.750,-0.277
27.798,-0.604,0.754,-0.279
27.808,-0.602,0.752,-0.279
27.818,-0.602,0.754,-0.277
27.828,-0.602,0.760,-0.275
27.838,-0.600,0.760,-0.275
27.848,-0.598,0.754,-0.273
27.858,-0.598,0.758,-0.270
27.867,-0.598,0.754,-0.270
27.877,-0.596,0.756,-0.270
27.887,-0.596,0.758,-0.275
27.897,-0.594,0.754,-0.277
27.907,-0.596,0.756,-0.277
27.917,-0.600,0.758,-0.277
27.927,-0.604,0.760,-0.273
27.937,-0.600,0.762,-0.275
27.947,-0.602,0.760,-0.275
27.957,-0.607,0.758,-0.271
27.967,-0.602,0.752,-0.271
27.977,-0.600,0.748,-0.268
27.987,-0.600,0.750,-0.270
27.997,-0.602,0.752,-0.273
28.007,-0.598,0.752,-0.275
28.017,-0.598,0.752,-0.271
28.026,-0.598,0.754,-0.271
28.036,-0.600,0.754,-0.275
28.046,-0.600,0.752,-0.275
28.056,-0.604,0.756,-0.270
28.066,-0.604,0.758,-0.268
28.076,-0.602,0.754,-0.271
28.086,-0.604,0.752,-0.273
28.096,-0.600,0.756,-0.273
28.106,-0.604,0.752,-0.279
28.116,-0.600,0.756,-0.271
28.126,-0.602,0.756,-0.273
28.136,-0.602,0.748,-0.273
28.146,-0.600,0.752,-0.273
28.156,-0.600,0.756,-0.275
28.166,-0.602,0.762,-0.273
28.176,-0.604,0.760,-0.273
28.186,-0.600,0.768,-0.271
28.195,-0.598,0.760,-0.275
28.205,-0.590,0.760,-0.270
28.215,-0.590,0.760,-0.271
28.225,-0.586,0.756,-0.271
28.235,-0.590,0.752,-0.271
28.245,-0.592,0.750,-0.271
28.255,-0.588,0.746,-0.275
28.265,-0.590,0.750,-0.271
28.275,-0.598,0.754,-0.277
28.285,-0.600,0.758,-0.275
28.295,-0.598,0.760,-0.270
28.305,-0.602,0.758,-0.275
28.315,-0.604,0.758,-0.273
28.325,-0.600,0.756,-0.273
28.335,-0.600,0.752,-0.275
28.345,-0.598,0.752,-0.273
28.354,-0.605,0.752,-0.277
28.364,-0.598,0.754,-0.275
28.374,-0.594,0.752,-0.275
28.384,-0.594,0.754,-0.273
28.394,-0.596,0.754,-0.271
28.404,-0.596,0.752,-0.275
28.414,-0.598,0.756,-0.271
28.424,-0.602,0.756,-0.271
28.434,-0.602,0.760,-0.270
28.444,-0.592,0.760,-0.270
28.454,-0.594,0.760,-0.268
28.464,-0.590,0.760,-0.270
28.474,-0.586,0.756,-0.270
28.484,-0.590,0.758,-0.270
28.494,-0.590,0.758,-0.271
28.504,-0.586,0.758,-0.275
28.513,-0.592,0.758,-0.275
28.523,-0.590,0.754,-0.275
28.533,-0.594,0.764,-0.273
28.543,-0.598,0.768,-0.273
28.553,-0.604,0.766,-0.271
28.563,-0.594,0.760,-0.270
28.573,-0.598,0.760,-0.271
28.583,-0.596,0.758,-0.270
28.593,-0.594,0.750,-0.271
28.603,-0.596,0.752,-0.273
28.613,-0.594,0.750,-0.271
28.623,-0.598,0.750,-0.270
28.633,-0.600,0.754,-0.268
28.643,-0.598,0.754,-0.268
28.653,-0.596,0.756,-0.270
28.663,-0.596,0.756,-0.270
28.672,-0.596,0.756,-0.266
28.682,-0.600,0.756,-0.270
28.692,-0.598,0.756,-0.270
28.702,-0.600,0.758,-0.271
28.712,-0.600,0.758,-0.270
28.722,-0.596,0.760,-0.268
28.732,-0.598,0.760,-0.270
28.742,-0.596,0.756,-0.273
28.752,-0.596,0.756,-0.273
28.762,-0.598,0.760,-0.271
28.772,-0.604,0.760,-0.270
28.782,-0.605,0.762,-0.271
28.792,-0.605,0.766,-0.271
28.802,-0.604,0.762,-0.271
28.812,-0.600,0.758,-0.271
28.822,-0.604,0.760,-0.271
28.832,-0.600,0.756,-0.266
28.841,-0.594,0.758,-0.266
28.851,-0.592,0.752,-0.266
28.861,-0.590,0.750,-0.268
28.871,-0.586,0.750,-0.271
28.881,-0.588,0.754,-0.270
28.891,-0.592,0.754,-0.270
28.901,-0.594,0.756,-0.268
28.911,-0.592,0.758,-0.270
28.921,-0.592,0.758,-0.270
28.931,-0.594,0.756,-0.271
28.941,-0.598,0.758,-0.270
28.951,-0.596,0.756,-0.273
28.961,-0.598,0.756,-0.270
28.971,-0.602,0.756,-0.277
28.981,-0.604,0.756,-0.271
28.991,-0.600,0.756,-0.271
29.000,-0.596,0.756,-0.273
29.010,-0.598,0.752,-0.273
29.020,-0.598,0.754,-0.271
29.030,-0.600,0.756,-0.275
29.040,-0.600,0.756,-0.273
29.050,-0.598,0.758,-0.273
29.060,-0.604,0.758,-0.279
29.070,-0.602,0.760,-0.273
29.080,-0.596,0.760,-0.273
29.090,-0.598,0.758,-0.271
29.100,-0.596,0.756,-0.270
29.110,-0.596,0.764,-0.273
29.120,-0.588,0.764,-0.275
29.130,-0.588,0.756,-0.275
29.140,-0.592,0.752,-0.275
29.150,-0.592,0.756,-0.273
29.159,-0.592,0.756,-0.273
29.169,-0.594,0.764,-0.273
29.179,-0.594,0.766,-0.273
29.189,-0.598,0.770,-0.266
29.199,-0.592,0.764,-0.268
29.209,-0.594,0.764,-0.268
29.219,-0.590,0.762,-0.270
29.229,-0.594,0.766,-0.268
29.239,-0.592,0.760,-0.271
29.249,-0.596,0.756,-0.271
29.259,-0.596,0.756,-0.275
29.269,-0.598,0.754,-0.275
29.279,-0.596,0.756,-0.273
29.289,-0.594,0.758,-0.273
29.299,-0.592,0.758,-0.270
29.309,-0.596,0.764,-0.268
29.318,-0.592,0.764,-0.271
29.328,-0.590,0.762,-0.268
29.338,-0.592,0.758,-0.268
29.348,-0.588,0.766,-0.264
29.358,-0.588,0.762,-0.268
29.368,-0.588,0.762,-0.262
29.378,-0.588,0.762,-0.260
29.388,-0.592,0.760,-0.264
29.398,-0.598,0.758,-0.268
29.408,-0.600,0.760,-0.268
29.418,-0.602,0.758,-0.270
29.428,-0.605,0.758,-0.268
29.438,-0.605,0.758,-0.264
29.448,-0.609,0.760,-0.264
29.458,-0.607,0.758,-0.266
29.468,-0.602,0.752,-0.266
29.478,-0.602,0.750,-0.264
29.487,-0.596,0.750,-0.264
29.497,-0.602,0.748,-0.264
29.507,-0.598,0.746,-0.266
29.517,-0.594,0.748,-0.266
29.527,-0.596,0.752,-0.264
29.537,-0.600,0.754,-0.266
29.547,-0.596,0.756,-0.266
29.557,-0.602,0.754,-0.270
29.567,-0.598,0.754,-0.271
29.577,-0.598,0.756,-0.273
29.587,-0.596,0.756,-0.271
29.597,-0.592,0.758,-0.271
29.607,-0.592,0.760,-0.271
29.617,-0.592,0.762,-0.268
29.627,-0.588,0.760,-0.271
29.637,-0.588,0.760,-0.268
29.646,-0.590,0.760,-0.270
29.656,-0.594,0.756,-0.270
29.666,-0.592,0.756,-0.271
29.676,-0.596,0.762,-0.271
29.686,-0.596,0.760,-0.271
29.696,-0.596,0.758,-0.275
29.706,-0.594,0.756,-0.271
29.716,-0.596,0.758,-0.277
29.726,-0.594,0.758,-0.271
29.736,-0.598,0.756,-0.271
29.746,-0.596,0.754,-0.268
29.756,-0.602,0.758,-0.266
29.766,-0.605,0.762,-0.266
29.776,-0.602,0.758,-0.270
29.786,-0.596,0.760,-0.266
29.796,-0.594,0.754,-0.270
29.805,-0.596,0.758,-0.268
29.815,-0.598,0.766,-0.268
29.825,-0.602,0.770,-0.266
29.835,-0.598,0.770,-0.264
29.845,-0.600,0.770,-0.262
29.855,-0.602,0.770,-0.260
29.865,-0.605,0.764,-0.258
29.875,-0.602,0.758,-0.264
29.885,-0.598,0.758,-0.264
29.895,-0.598,0.760,-0.262
29.905,-0.598,0.758,-0.260
29.915,-0.602,0.756,-0.262
29.925,-0.598,0.758,-0.264
29.935,-0.602,0.760,-0.260
29.945,-0.600,0.760,-0.264
29.955,-0.600,0.758,-0.264
29.964,-0.594,0.758,-0.264
29.974,-0.594,0.758,-0.262
29.984,-0.596,0.756,-0.266
29.994,-0.596,0.764,-0.260
30.004,-0.596,0.762,-0.258
30.014,-0.596,0.764,-0.262
30.024,-0.590,0.762,-0.262
30.034,-0.590,0.760,-0.264
30.044,-0.588,0.762,-0.266
30.054,-0.590,0.764,-0.266
30.064,-0.592,0.768,-0.264
30.074,-0.592,0.764,-0.266
30.084,-0.590,0.766,-0.262
30.094,-0.596,0.768,-0.266
30.104,-0.596,0.764,-0.264
30.114,-0.596,0.764,-0.266
30.123,-0.594,0.758,-0.266
30.133,-0.594,0.760,-0.266
30.143,-0.592,0.756,-0.268
30.153,-0.594,0.756,-0.268
30.163,-0.592,0.756,-0.266
30.173,-0.598,0.754,-0.262
30.183,-0.594,0.758,-0.266
30.193,-0.596,0.760,-0.268
30.203,-0.596,0.756,-0.268
30.213,-0.602,0.754,-0.268
30.223,-0.604,0.754,-0.266
30.233,-0.604,0.754,-0.268
30.243,-0.605,0.756,-0.268
30.253,-0.605,0.754,-0.266
30.263,-0.604,0.754,-0.266
30.273,-0.602,0.754,-0.266
30.283,-0.602,0.754,-0.268
30.292,-0.602,0.760,-0.270
30.302,-0.605,0.762,-0.268
30.312,-0.596,0.756,-0.270
30.322,-0.598,0.756,-0.266
30.332,-0.598,0.758,-0.268
30.342,-0.598,0.760,-0.270
30.352,-0.594,0.760,-0.266
30.362,-0.592,0.762,-0.266
30.372,-0.596,0.762,-0.271
30.382,-0.600,0.764,-0.268
30.392,-0.592,0.764,-0.270
30.402,-0.594,0.766,-0.266
30.412,-0.596,0.764,-0.268
30.422,-0.588,0.764,-0.262
30.432,-0.592,0.768,-0.260
30.442,-0.590,0.762,-0.264
30.451,-0.588,0.764,-0.266
30.461,-0.590,0.762,-0.266
30.471,-0.592,0.766,-0.268
30.481,-0.592,0.768,-0.266
30.491,-0.594,0.773,-0.264
30.501,-0.594,0.771,-0.260
30.511,-0.592,0.770,-0.262
30.521,-0.594,0.762,-0.260
30.531,-0.592,0.760,-0.262
30.541,-0.596,0.758,-0.264
30.551,-0.594,0.756,-0.262
30.561,-0.604,0.756,-0.266
30.571,-0.604,0.754,-0.260
30.581,-0.602,0.758,-0.260
30.591,-0.604,0.760,-0.258
30.601,-0.604,0.758,-0.260
30.610,-0.605,0.758,-0.258
30.620,-0.602,0.758,-0.258
30.630,-0.600,0.758,-0.258
30.640,-0.598,0.756,-0.262
30.650,-0.596,0.754,-0.258
30.660,-0.594,0.756,-0.256
30.670,-0.596,0.756,-0.260
30.680,-0.594,0.762,-0.258
30.690,-0.592,0.756,-0.260
30.700,-0.598,0.754,-0.266
30.710,-0.598,0.754,-0.266
30.720,-0.598,0.760,-0.266
30.730,-0.602,0.758,-0.264
30.740,-0.604,0.764,-0.268
30.750,-0.604,0.764,-0.264
30.760,-0.604,0.764,-0.266
30.769,-0.600,0.762,-0.264
30.779,-0.605,0.760,-0.266
30.789,-0.602,0.754,-0.262
30.799,-0.600,0.754,-0.268
30.809,-0.600,0.754,-0.266
30.819,-0.600,0.756,-0.266
30.829,-0.598,0.758,-0.264
30.839,-0.600,0.758,-0.268
30.849,-0.600,0.762,-0.266
30.859,-0.600,0.762,-0.268
30.869,-0.600,0.764,-0.264
30.879,-0.596,0.762,-0.268
30.889,-0.596,0.764,-0.266
30.899,-0.596,0.764,-0.266
30.909,-0.600,0.764,-0.266
30.919,-0.598,0.760,-0.266
30.929,-0.596,0.760,-0.266
30.938,-0.592,0.762,-0.266
30.948,-0.596,0.764,-0.268
30.958,-0.594,0.762,-0.266
30.968,-0.592,0.758,-0.268
30.978,-0.592,0.760,-0.268
30.988,-0.592,0.762,-0.268
30.998,-0.596,0.766,-0.270
31.008,-0.596,0.768,-0.268
31.018,-0.594,0.762,-0.270
31.028,-0.596,0.762,-0.271
31.038,-0.594,0.768,-0.270
31.048,-0.594,0.762,-0.266
31.058,-0.594,0.758,-0.270
31.068,-0.592,0.760,-0.264
31.078,-0.598,0.758,-0.264
31.088,-0.596,0.760,-0.262
31.097,-0.598,0.760,-0.264
31.107,-0.598,0.754,-0.264
31.117,-0.598,0.756,-0.266
31.127,-0.602,0.756,-0.268
31.137,-0.602,0.760,-0.264
31.147,-0.602,0.760,-0.266
31.157,-0.604,0.758,-0.262
31.167,-0.605,0.760,-0.264
31.177,-0.604,0.754,-0.260
31.187,-0.604,0.752,-0.264
31.197,-0.607,0.752,-0.266
31.207,-0.604,0.750,-0.268
31.217,-0.605,0.754,-0.266
31.227,-0.602,0.752,-0.268
31.237,-0.600,0.750,-0.264
31.247,-0.600,0.756,-0.266
31.256,-0.598,0.758,-0.262
31.266,-0.592,0.758,-0.268
31.276,-0.598,0.758,-0.264
31.286,-0.598,0.760,-0.268
31.296,-0.596,0.756,-0.270
31.306,-0.596,0.760,-0.266
31.316,-0.596,0.760,-0.268
31.326,-0.600,0.758,-0.270
31.336,-0.598,0.764,-0.264
31.346,-0.594,0.756,-0.268
31.356,-0.596,0.754,-0.271
31.366,-0.596,0.756,-0.268
31.376,-0.596,0.762,-0.266
31.386,-0.598,0.766,-0.270
31.396,-0.602,0.766,-0.268
31.406,-0.600,0.766,-0.266
31.415,-0.598,0.764,-0.266
31.425,-0.600,0.762,-0.264
31.435,-0.598,0.758,-0.266
31.445,-0.596,0.754,-0.266
31.455,-0.600,0.754,-0.270
31.465,-0.598,0.754,-0.268
31.475,-0.596,0.752,-0.264
31.485,-0.596,0.750,-0.268
31.495,-0.598,0.754,-0.270
31.505,-0.602,0.758,-0.266
31.515,-0.602,0.756,-0.268
31.525,-0.604,0.760,-0.266
31.535,-0.604,0.762,-0.264
31.545,-0.604,0.756,-0.268
31.555,-0.602,0.756,-0.266
31.565,-0.604,0.752,-0.264
31.575,-0.602,0.756,-0.264
31.584,-0.602,0.754,-0.268
31.594,-0.602,0.754,-0.266
31.604,-0.602,0.750,-0.270
31.614,-0.605,0.754,-0.270
31.624,-0.604,0.760,-0.270
31.634,-0.602,0.762,-0.270
31.644,-0.604,0.758,-0.268
31.654,-0.602,0.760,-0.273
31.664,-0.600,0.758,-0.266
31.674,-0.596,0.762,-0.266
31.684,-0.594,0.760,-0.266
31.694,-0.592,0.758,-0.262
31.704,-0.592,0.758,-0.266
31.714,-0.592,0.762,-0.266
31.724,-0.594,0.762,-0.268
31.734,-0.596,0.760,-0.268
31.743,-0.600,0.756,-0.270
31.753,-0.604,0.758,-0.268
31.763,-0.604,0.762,-0.271
31.773,-0.607,0.766,-0.266
31.783,-0.604,0.768,-0.264
31.793,-0.602,0.762,-0.264
31.803,-0.604,0.764,-0.262
31.813,-0.600,0.760,-0.266
31.823,-0.600,0.754,-0.262
31.833,-0.596,0.752,-0.264
31.843,-0.600,0.756,-0.264
31.853,-0.598,0.754,-0.266
31.863,-0.600,0.756,-0.260
31.873,-0.602,0.764,-0.262
31.883,-0.604,0.758,-0.262
31.893,-0.596,0.758,-0.258
31.902,-0.598,0.756,-0.260
31.912,-0.598,0.756,-0.262
31.922,-0.600,0.756,-0.264
31.932,-0.602,0.754,-0.264
31.942,-0.600,0.758,-0.262
31.952,-0.604,0.762,-0.262
31.962,-0.600,0.758,-0.260
31.972,-0.600,0.756,-0.262
31.982,-0.598,0.752,-0.262
31.992,-0.598,0.754,-0.264
32.002,-0.598,0.756,-0.264
32.012,-0.598,0.762,-0.264
32.022,-0.604,0.764,-0.262
32.032,-0.600,0.764,-0.266
32.042,-0.600,0.764,-0.260
32.052,-0.598,0.758,-0.264
32.061,-0.600,0.760,-0.264
32.071,-0.596,0.756,-0.264
32.081,-0.596,0.754,-0.264
32.091,-0.596,0.756,-0.262
32.101,-0.600,0.754,-0.264
32.111,-0.598,0.758,-0.268
32.121,-0.600,0.756,-0.264
32.131,-0.602,0.758,-0.268
32.141,-0.602,0.758,-0.266
32.151,-0.598,0.760,-0.266
32.161,-0.602,0.760,-0.268
32.171,-0.600,0.760,-0.266
32.181,-0.596,0.760,-0.266
32.191,-0.602,0.760,-0.264
32.201,-0.600,0.758,-0.266
32.211,-0.602,0.756,-0.268
32.221,-0.602,0.758,-0.266
32.230,-0.602,0.756,-0.264
32.240,-0.604,0.756,-0.264
32.250,-0.602,0.754,-0.264
32.260,-0.602,0.756,-0.266
32.270,-0.602,0.756,-0.268
32.280,-0.600,0.756,-0.266
32.290,-0.604,0.760,-0.264
32.300,-0.602,0.760,-0.266
32.310,-0.602,0.764,-0.268
32.320,-0.600,0.764,-0.266
32.330,-0.600,0.760,-0.264
32.340,-0.596,0.760,-0.258
32.350,-0.592,0.760,-0.260
32.360,-0.598,0.760,-0.260
32.370,-0.594,0.758,-0.262
32.380,-0.592,0.756,-0.260
32.389,-0.594,0.754,-0.264
32.399,-0.594,0.754,-0.264
32.409,-0.600,0.758,-0.260
32.419,-0.600,0.762,-0.262
32.429,-0.604,0.768,-0.260
32.439,-0.600,0.764,-0.258
32.449,-0.604,0.760,-0.260
32.459,-0.604,0.756,-0.260
32.469,-0.602,0.756,-0.264
32.479,-0.602,0.754,-0.262
32.489,-0.600,0.752,-0.264
32.499,-0.600,0.752,-0.262
32.509,-0.600,0.754,-0.262
32.519,-0.600,0.756,-0.260
32.529,-0.600,0.758,-0.262
32.539,-0.598,0.756,-0.264
32.548,-0.602,0.760,-0.266
32.558,-0.600,0.764,-0.262
32.568,-0.600,0.764,-0.262
32.578,-0.598,0.760,-0.264
32.588,-0.600,0.758,-0.264
32.598,-0.604,0.758,-0.258
32.608,-0.602,0.756,-0.266
32.618,-0.602,0.760,-0.264
32.628,-0.600,0.754,-0.266
32.638,-0.598,0.754,-0.262
32.648,-0.604,0.758,-0.266
32.658,-0.600,0.762,-0.266
32.668,-0.600,0.760,-0.266
32.678,-0.600,0.764,-0.260
32.688,-0.598,0.762,-0.262
32.698,-0.600,0.762,-0.264
32.707,-0.598,0.760,-0.262
32.717,-0.598,0.760,-0.262
32.727,-0.600,0.756,-0.262
32.737,-0.602,0.756,-0.264
32.747,-0.602,0.752,-0.264
32.757,-0.600,0.754,-0.264
32.767,-0.598,0.754,-0.268
32.777,-0.604,0.756,-0.266
32.787,-0.602,0.762,-0.264
32.797,-0.602,0.762,-0.264
32.807,-0.604,0.760,-0.266
32.817,-0.604,0.756,-0.264
32.827,-0.607,0.758,-0.264
32.837,-0.605,0.758,-0.266
32.847,-0.602,0.754,-0.264
32.857,-0.602,0.756,-0.266
32.866,-0.602,0.754,-0.266
32.876,-0.598,0.756,-0.266
32.886,-0.600,0.762,-0.264
32.896,-0.602,0.758,-0.266
32.906,-0.600,0.752,-0.264
32.916,-0.604,0.754,-0.264
32.926,-0.604,0.756,-0.268
32.936,-0.604,0.758,-0.268
32.946,-0.600,0.756,-0.266
32.956,-0.607,0.756,-0.264
32.966,-0.604,0.758,-0.270
32.976,-0.602,0.760,-0.266
32.986,-0.600,0.762,-0.264
32.996,-0.598,0.760,-0.262
33.006,-0.598,0.760,-0.262
33.016,-0.598,0.758,-0.262
33.026,-0.598,0.760,-0.264
33.035,-0.594,0.758,-0.266
33.045,-0.600,0.756,-0.266
33.055,-0.598,0.754,-0.270
33.065,-0.600,0.756,-0.270
33.075,-0.604,0.760,-0.268
33.085,-0.605,0.766,-0.268
33.095,-0.604,0.766,-0.264
33.105,-0.602,0.766,-0.266
33.115,-0.600,0.762,-0.264
33.125,-0.602,0.758,-0.262
33.135,-0.600,0.756,-0.268
33.145,-0.600,0.754,-0.264
33.155,-0.602,0.752,-0.266
33.165,-0.600,0.754,-0.268
33.175,-0.600,0.752,-0.266
33.185,-0.602,0.756,-0.264
33.194,-0.602,0.758,-0.266
33.204,-0.604,0.756,-0.264
33.214,-0.605,0.758,-0.264
33.224,-0.605,0.758,-0.266
33.234,-0.605,0.752,-0.266
33.244,-0.604,0.756,-0.266
33.254,-0.605,0.756,-0.264
33.264,-0.602,0.762,-0.262
33.274,-0.602,0.764,-0.266
33.284,-0.596,0.762,-0.258
33.294,-0.596,0.758,-0.262
33.304,-0.600,0.754,-0.260
33.314,-0.598,0.760,-0.260
33.324,-0.604,0.758,-0.258
33.334,-0.604,0.760,-0.262
33.344,-0.604,0.758,-0.262
33.353,-0.604,0.758,-0.262
33.363,-0.604,0.762,-0.258
33.373,-0.604,0.758,-0.260
33.383,-0.598,0.758,-0.262
33.393,-0.602,0.758,-0.264
33.403,-0.598,0.756,-0.260
33.413,-0.602,0.754,-0.262
33.423,-0.602,0.758,-0.262
33.433,-0.602,0.758,-0.264
33.443,-0.602,0.756,-0.262
33.453,-0.602,0.756,-0.262
33.463,-0.604,0.758,-0.262
33.473,-0.605,0.758,-0.264
33.483,-0.602,0.760,-0.264
33.493,-0.598,0.760,-0.266
33.503,-0.598,0.754,-0.262
33.512,-0.600,0.758,-0.262
33.522,-0.604,0.756,-0.260
33.532,-0.602,0.756,-0.264
33.542,-0.602,0.756,-0.260
33.552,-0.604,0.754,-0.258
33.562,-0.600,0.756,-0.262
33.572,-0.602,0.754,-0.264
33.582,-0.600,0.760,-0.264
33.592,-0.604,0.758,-0.266
33.602,-0.604,0.760,-0.266
33.612,-0.605,0.758,-0.268
33.622,-0.604,0.760,-0.264
33.632,-0.602,0.762,-0.268
33.642,-0.600,0.762,-0.262
33.652,-0.598,0.760,-0.264
33.662,-0.598,0.756,-0.260
33.672,-0.596,0.754,-0.262
33.681,-0.596,0.760,-0.262
33.691,-0.596,0.758,-0.262
33.701,-0.596,0.756,-0.266
33.711,-0.602,0.756,-0.266
33.721,-0.602,0.758,-0.264
33.731,-0.604,0.760,-0.264
33.741,-0.605,0.764,-0.266
33.751,-0.605,0.766,-0.264
33.761,-0.607,0.762,-0.260
33.771,-0.604,0.760,-0.266
33.781,-0.600,0.756,-0.262
33.791,-0.598,0.752,-0.266
33.801,-0.598,0.752,-0.266
33.811,-0.594,0.750,-0.268
33.821,-0.602,0.752,-0.266
33.831,-0.604,0.756,-0.262
33.840,-0.604,0.764,-0.262
33.850,-0.600,0.760,-0.262
33.860,-0.598,0.760,-0.264
33.870,-0.600,0.758,-0.268
33.880,-0.600,0.760,-0.264
33.890,-0.600,0.756,-0.266
33.900,-0.600,0.754,-0.270
33.910,-0.596,0.754,-0.262
33.920,-0.604,0.760,-0.262
33.930,-0.602,0.760,-0.264
33.940,-0.594,0.756,-0.266
33.950,-0.594,0.758,-0.268
33.960,-0.596,0.756,-0.266
33.970,-0.598,0.762,-0.266
33.980,-0.600,0.764,-0.268
33.990,-0.602,0.762,-0.270
33.999,-0.600,0.764,-0.266
34.009,-0.602,0.764,-0.268
34.019,-0.600,0.760,-0.268
34.029,-0.600,0.760,-0.264
34.039,-0.598,0.756,-0.266
34.049,-0.596,0.754,-0.266
34.059,-0.598,0.756,-0.264
34.069,-0.596,0.754,-0.266
34.079,-0.598,0.758,-0.268
34.089,-0.598,0.758,-0.268
34.099,-0.598,0.758,-0.264
34.109,-0.600,0.758,-0.268
34.119,-0.604,0.762,-0.270
34.129,-0.602,0.760,-0.268
34.139,-0.602,0.762,-0.268
34.149,-0.600,0.756,-0.270
34.158,-0.598,0.756,-0.270
34.168,-0.598,0.756,-0.268
34.178,-0.596,0.758,-0.268
34.188,-0.594,0.754,-0.268
34.198,-0.600,0.756,-0.268
34.208,-0.600,0.754,-0.266
34.218,-0.600,0.758,-0.266
34.228,-0.600,0.754,-0.266
34.238,-0.604,0.756,-0.270
34.248,-0.602,0.756,-0.266
34.258,-0.604,0.760,-0.268
34.268,-0.602,0.752,-0.271
34.278,-0.602,0.758,-0.270
34.288,-0.602,0.758,-0.268
34.298,-0.602,0.754,-0.266
34.308,-0.602,0.756,-0.264
34.318,-0.600,0.754,-0.268
34.327,-0.602,0.758,-0.266
34.337,-0.600,0.758,-0.264
34.347,-0.594,0.754,-0.270
34.357,-0.592,0.754,-0.268
34.367,-0.598,0.758,-0.268
34.377,-0.600,0.764,-0.268
34.387,-0.604,0.764,-0.264
34.397,-0.604,0.764,-0.266
34.407,-0.602,0.756,-0.264
34.417,-0.602,0.754,-0.266
34.427,-0.600,0.750,-0.264
34.437,-0.604,0.746,-0.266
34.447,-0.602,0.752,-0.264
34.457,-0.607,0.750,-0.268
34.467,-0.609,0.752,-0.270
34.477,-0.605,0.754,-0.266
34.486,-0.604,0.756,-0.264
34.496,-0.604,0.758,-0.266
34.506,-0.605,0.758,-0.268
34.516,-0.602,0.756,-0.262
34.526,-0.602,0.754,-0.262
34.536,-0.602,0.756,-0.264
34.546,-0.602,0.752,-0.264
34.556,-0.602,0.758,-0.262
34.566,-0.604,0.758,-0.264
34.576,-0.604,0.758,-0.262
34.586,-0.598,0.752,-0.266
34.596,-0.602,0.754,-0.268
34.606,-0.602,0.754,-0.266
34.616,-0.605,0.760,-0.266
34.626,-0.609,0.758,-0.266
34.636,-0.609,0.760,-0.268
34.645,-0.605,0.760,-0.262
34.655,-0.605,0.758,-0.266
34.665,-0.607,0.756,-0.268
34.675,-0.609,0.756,-0.268
34.685,-0.602,0.756,-0.264
34.695,-0.602,0.752,-0.266
34.705,-0.602,0.754,-0.268
34.715,-0.600,0.750,-0.266
34.725,-0.604,0.754,-0.266
34.735,-0.604,0.756,-0.268
34.745,-0.604,0.752,-0.268
34.755,-0.605,0.758,-0.264
34.765,-0.607,0.758,-0.266
34.775,-0.607,0.756,-0.268
34.785,-0.611,0.756,-0.268
34.795,-0.609,0.758,-0.264
34.804,-0.611,0.752,-0.264
34.814,-0.609,0.750,-0.266
34.824,-0.605,0.750,-0.264
34.834,-0.604,0.748,-0.268
34.844,-0.602,0.748,-0.271
34.854,-0.607,0.752,-0.266
34.864,-0.604,0.750,-0.270
34.874,-0.607,0.750,-0.266
34.884,-0.607,0.750,-0.268
34.894,-0.605,0.754,-0.270
34.904,-0.604,0.752,-0.268
34.914,-0.605,0.752,-0.268
34.924,-0.604,0.748,-0.266
34.934,-0.604,0.748,-0.262
34.944,-0.605,0.754,-0.264
34.954,-0.605,0.754,-0.270
34.964,-0.604,0.750,-0.264
34.973,-0.611,0.752,-0.268
34.983,-0.609,0.754,-0.268
34.993,-0.609,0.756,-0.266
35.003,-0.611,0.758,-0.264
35.013,-0.607,0.762,-0.266
35.023,-0.609,0.758,-0.266
35.033,-0.609,0.754,-0.268
35.043,-0.602,0.752,-0.262
35.053,-0.604,0.752,-0.264
35.063,-0.604,0.750,-0.264
35.073,-0.607,0.748,-0.264
35.083,-0.605,0.748,-0.264
35.093,-0.605,0.752,-0.262
35.103,-0.605,0.750,-0.264
35.113,-0.609,0.752,-0.264
35.123,-0.607,0.750,-0.264
35.132,-0.607,0.752,-0.268
35.142,-0.607,0.754,-0.270
35.152,-0.607,0.752,-0.266
35.162,-0.607,0.752,-0.266
35.172,-0.611,0.758,-0.264
35.182,-0.609,0.758,-0.268
35.192,-0.602,0.762,-0.262
35.202,-0.604,0.756,-0.266
35.212,-0.605,0.750,-0.266
35.222,-0.600,0.750,-0.266
35.232,-0.604,0.752,-0.264
35.242,-0.605,0.754,-0.266
35.252,-0.605,0.758,-0.262
35.262,-0.604,0.760,-0.262
35.272,-0.604,0.760,-0.264
35.282,-0.604,0.758,-0.264
35.291,-0.607,0.754,-0.264
35.301,-0.605,0.750,-0.264
35.311,-0.604,0.750,-0.262
35.321,-0.607,0.750,-0.266
35.331,-0.604,0.752,-0.262
35.341,-0.604,0.754,-0.266
35.351,-0.605,0.754,-0.264
35.361,-0.605,0.754,-0.260
35.371,-0.604,0.756,-0.264
35.381,-0.602,0.756,-0.264
35.391,-0.604,0.760,-0.262
35.401,-0.604,0.754,-0.262
35.411,-0.607,0.752,-0.266
35.421,-0.607,0.754,-0.266
35.431,-0.609,0.750,-0.264
35.441,-0.607,0.748,-0.264
35.450,-0.607,0.754,-0.264
35.460,-0.609,0.750,-0.268
35.470,-0.607,0.754,-0.270
35.480,-0.605,0.750,-0.264
35.490,-0.607,0.756,-0.266
35.500,-0.605,0.762,-0.268
35.510,-0.604,0.760,-0.264
35.520,-0.598,0.758,-0.266
35.530,-0.598,0.756,-0.262
35.540,-0.602,0.754,-0.262
35.550,-0.604,0.756,-0.264
35.560,-0.600,0.754,-0.266
35.570,-0.602,0.750,-0.268
35.580,-0.602,0.748,-0.268
35.590,-0.605,0.752,-0.268
35.600,-0.607,0.758,-0.268
35.609,-0.609,0.760,-0.264
35.619,-0.609,0.762,-0.264
35.629,-0.607,0.764,-0.266
35.639,-0.605,0.760,-0.264
35.649,-0.605,0.756,-0.264
35.659,-0.602,0.756,-0.266
35.669,-0.598,0.752,-0.268
35.679,-0.605,0.750,-0.268
35.689,-0.604,0.754,-0.266
35.699,-0.602,0.750,-0.266
35.709,-0.602,0.754,-0.268
35.719,-0.605,0.752,-0.268
35.729,-0.600,0.752,-0.268
35.739,-0.604,0.756,-0.266
35.749,-0.602,0.754,-0.270
35.759,-0.602,0.756,-0.268
35.769,-0.605,0.752,-0.270
35.778,-0.605,0.756,-0.264
35.788,-0.604,0.760,-0.266
35.798,-0.602,0.756,-0.266
35.808,-0.604,0.756,-0.264
35.818,-0.596,0.752,-0.270
35.828,-0.600,0.752,-0.264
35.838,-0.602,0.756,-0.270
35.848,-0.604,0.758,-0.268
35.858,-0.607,0.756,-0.270
35.868,-0.607,0.756,-0.268
35.878,-0.607,0.762,-0.268
35.888,-0.604,0.758,-0.266
35.898,-0.605,0.758,-0.264
35.908,-0.602,0.752,-0.268
35.918,-0.604,0.754,-0.270
35.928,-0.604,0.754,-0.270
35.937,-0.602,0.756,-0.270
35.947,-0.600,0.754,-0.268
35.957,-0.600,0.752,-0.268
35.967,-0.604,0.756,-0.266
35.977,-0.604,0.758,-0.268
35.987,-0.605,0.754,-0.268
35.997,-0.602,0.758,-0.268
36.007,-0.600,0.756,-0.266
36.017,-0.605,0.756,-0.266
36.027,-0.604,0.754,-0.268
36.037,-0.607,0.752,-0.268
36.047,-0.605,0.748,-0.266
36.057,-0.607,0.752,-0.266
36.067,-0.604,0.754,-0.264
36.077,-0.605,0.752,-0.268
36.087,-0.607,0.756,-0.268
36.096,-0.607,0.754,-0.266
36.106,-0.607,0.756,-0.266
36.116,-0.607,0.758,-0.271
36.126,-0.607,0.760,-0.264
36.136,-0.604,0.758,-0.266
36.146,-0.600,0.752,-0.264
36.156,-0.602,0.752,-0.258
36.166,-0.598,0.754,-0.262
36.176,-0.600,0.754,-0.260
36.186,-0.598,0.754,-0.264
36.196,-0.602,0.750,-0.271
36.206,-0.602,0.754,-0.268
36.216,-0.604,0.758,-0.270
36.226,-0.607,0.764,-0.266
36.236,-0.609,0.766,-0.266
36.246,-0.609,0.762,-0.264
36.255,-0.607,0.760,-0.266
36.265,-0.604,0.756,-0.266
36.275,-0.604,0.752,-0.266
36.285,-0.602,0.750,-0.270
36.295,-0.602,0.746,-0.270
36.305,-0.602,0.746,-0.268
36.315,-0.604,0.750,-0.270
36.325,-0.605,0.752,-0.270
36.335,-0.607,0.752,-0.266
36.345,-0.605,0.752,-0.268
36.355,-0.604,0.754,-0.266
36.365,-0.604,0.754,-0.268
36.375,-0.604,0.754,-0.271
36.385,-0.604,0.754,-0.268
36.395,-0.602,0.758,-0.270
36.405,-0.600,0.756,-0.266
36.415,-0.600,0.756,-0.271
36.424,-0.600,0.758,-0.270
36.434,-0.602,0.754,-0.271
36.444,-0.600,0.756,-0.271
36.454,-0.602,0.754,-0.270
36.464,-0.605,0.758,-0.273
36.474,-0.605,0.760,-0.271
36.484,-0.607,0.760,-0.268
36.494,-0.607,0.756,-0.270
36.504,-0.607,0.754,-0.266
36.514,-0.607,0.750,-0.268
36.524,-0.605,0.750,-0.270
36.534,-0.604,0.750,-0.268
36.544,-0.602,0.748,-0.270
36.554,-0.604,0.746,-0.268
36.564,-0.605,0.752,-0.270
36.574,-0.602,0.752,-0.271
36.583,-0.604,0.756,-0.268
36.593,-0.604,0.762,-0.268
36.603,-0.604,0.758,-0.270
36.613,-0.602,0.758,-0.271
36.623,-0.602,0.760,-0.271
36.633,-0.600,0.760,-0.270
36.643,-0.596,0.762,-0.271
36.653,-0.596,0.760,-0.268
36.663,-0.596,0.756,-0.266
36.673,-0.594,0.758,-0.266
36.683,-0.594,0.752,-0.262
36.693,-0.596,0.758,-0.266
36.703,-0.598,0.758,-0.262
36.713,-0.598,0.756,-0.260
36.723,-0.609,0.754,-0.262
36.733,-0.613,0.756,-0.264
36.742,-0.609,0.754,-0.262
36.752,-0.613,0.756,-0.258
36.762,-0.615,0.750,-0.264
36.772,-0.611,0.748,-0.258
36.782,-0.611,0.748,-0.258
36.792,-0.609,0.758,-0.258
36.802,-0.604,0.754,-0.262
36.812,-0.602,0.750,-0.262
36.822,-0.604,0.752,-0.262
36.832,-0.600,0.754,-0.262
36.842,-0.602,0.762,-0.260
36.852,-0.600,0.764,-0.260
36.862,-0.600,0.762,-0.262
36.872,-0.602,0.758,-0.266
36.882,-0.604,0.756,-0.264
36.892,-0.602,0.756,-0.266
36.901,-0.604,0.752,-0.264
36.911,-0.607,0.750,-0.270
36.921,-0.604,0.750,-0.271
36.931,-0.604,0.752,-0.271
36.941,-0.602,0.756,-0.270
36.951,-0.602,0.762,-0.268
36.961,-0.602,0.760,-0.264
36.971,-0.600,0.760,-0.268
36.981,-0.598,0.762,-0.268
36.991,-0.598,0.762,-0.270
37.001,-0.600,0.756,-0.271
37.011,-0.602,0.758,-0.266
37.021,-0.600,0.758,-0.268
37.031,-0.598,0.760,-0.271
37.041,-0.598,0.758,-0.270
37.051,-0.598,0.754,-0.270
37.061,-0.594,0.760,-0.271
37.070,-0.600,0.760,-0.271
37.080,-0.602,0.762,-0.271
37.090,-0.605,0.762,-0.270
37.100,-0.604,0.764,-0.266
37.110,-0.604,0.760,-0.266
37.120,-0.602,0.760,-0.266
37.130,-0.596,0.756,-0.262
37.140,-0.602,0.754,-0.264
37.150,-0.600,0.752,-0.266
37.160,-0.600,0.752,-0.264
37.170,-0.602,0.752,-0.262
37.180,-0.604,0.754,-0.266
37.190,-0.602,0.750,-0.264
37.200,-0.604,0.754,-0.266
37.210,-0.605,0.754,-0.264
37.220,-0.605,0.754,-0.268
37.229,-0.604,0.754,-0.264
37.239,-0.605,0.756,-0.266
37.249,-0.609,0.750,-0.266
37.259,-0.607,0.750,-0.264
37.269,-0.607,0.752,-0.266
37.279,-0.605,0.748,-0.266
37.289,-0.605,0.752,-0.270
37.299,-0.605,0.748,-0.266
37.309,-0.607,0.750,-0.268
37.319,-0.607,0.754,-0.266
37.329,-0.605,0.752,-0.271
37.339,-0.602,0.752,-0.273
37.349,-0.604,0.752,-0.268
37.359,-0.600,0.752,-0.270
37.369,-0.602,0.754,-0.271
37.379,-0.600,0.752,-0.270
37.388,-0.604,0.756,-0.268
37.398,-0.604,0.758,-0.275
37.408,-0.600,0.758,-0.279
37.418,-0.600,0.752,-0.279
37.428,-0.602,0.750,-0.277
37.438,-0.598,0.760,-0.277
37.448,-0.602,0.762,-0.279
37.458,-0.604,0.770,-0.279
37.468,-0.602,0.768,-0.275
37.478,-0.602,0.764,-0.277
37.488,-0.602,0.758,-0.277
37.498,-0.598,0.756,-0.277
37.508,-0.598,0.752,-0.277
37.518,-0.600,0.756,-0.275
37.528,-0.600,0.752,-0.275
37.538,-0.602,0.754,-0.275
37.547,-0.607,0.756,-0.275
37.557,-0.605,0.756,-0.271
37.567,-0.605,0.756,-0.271
37.577,-0.611,0.754,-0.270
37.587,-0.607,0.756,-0.266
37.597,-0.607,0.754,-0.268
37.607,-0.609,0.752,-0.266
37.617,-0.605,0.750,-0.262
37.627,-0.605,0.754,-0.260
37.637,-0.607,0.754,-0.264
37.647,-0.605,0.750,-0.264
37.657,-0.604,0.746,-0.264
37.667,-0.607,0.750,-0.264
37.677,-0.605,0.750,-0.260
37.687,-0.609,0.754,-0.260
37.697,-0.613,0.756,-0.260
37.707,-0.609,0.758,-0.258
37.716,-0.607,0.756,-0.256
37.726,-0.605,0.754,-0.260
37.736,-0.602,0.750,-0.260
37.746,-0.602,0.748,-0.258
37.756,-0.604,0.748,-0.260
37.766,-0.605,0.746,-0.260
37.776,-0.604,0.748,-0.264
37.786,-0.605,0.748,-0.264
37.796,-0.605,0.752,-0.266
37.806,-0.607,0.750,-0.270
37.816,-0.609,0.750,-0.268
37.826,-0.611,0.752,-0.270
37.836,-0.605,0.752,-0.268
37.846,-0.609,0.752,-0.273
37.856,-0.604,0.754,-0.275
37.866,-0.605,0.754,-0.273
37.875,-0.602,0.750,-0.275
37.885,-0.602,0.752,-0.275
37.895,-0.604,0.752,-0.275
37.905,-0.602,0.756,-0.277
37.915,-0.602,0.754,-0.279
37.925,-0.602,0.756,-0.277
37.935,-0.602,0.754,-0.281
37.945,-0.598,0.760,-0.283
37.955,-0.598,0.758,-0.279
37.965,-0.598,0.760,-0.281
37.975,-0.600,0.758,-0.275
37.985,-0.604,0.758,-0.277
37.995,-0.598,0.758,-0.275
38.005,-0.600,0.760,-0.273
38.015,-0.604,0.754,-0.277
38.025,-0.600,0.752,-0.277
38.034,-0.604,0.758,-0.277
38.044,-0.607,0.762,-0.275
38.054,-0.607,0.764,-0.271
38.064,-0.602,0.766,-0.268
38.074,-0.604,0.764,-0.264
38.084,-0.604,0.760,-0.264
38.094,-0.598,0.754,-0.266
38.104,-0.596,0.750,-0.268
38.114,-0.600,0.752,-0.262
38.124,-0.598,0.752,-0.260
38.134,-0.600,0.750,-0.266
38.144,-0.600,0.758,-0.258
38.154,-0.600,0.758,-0.260
38.164,-0.605,0.754,-0.262
38.174,-0.604,0.758,-0.260
38.184,-0.604,0.756,-0.258
38.193,-0.600,0.758,-0.260
38.203,-0.598,0.754,-0.262
38.213,-0.602,0.752,-0.264
38.223,-0.598,0.758,-0.260
38.233,-0.602,0.758,-0.260
38.243,-0.602,0.760,-0.260
38.253,-0.598,0.750,-0.264
38.263,-0.598,0.752,-0.262
38.273,-0.600,0.752,-0.264
38.283,-0.604,0.758,-0.268
38.293,-0.609,0.754,-0.262
38.303,-0.605,0.762,-0.270
38.313,-0.605,0.760,-0.264
38.323,-0.605,0.758,-0.270
38.333,-0.605,0.760,-0.268
38.343,-0.602,0.758,-0.271
38.353,-0.604,0.756,-0.270
38.362,-0.604,0.754,-0.268
38.372,-0.605,0.750,-0.273
38.382,-0.602,0.754,-0.270
38.392,-0.604,0.754,-0.270
38.402,-0.602,0.752,-0.271
38.412,-0.602,0.756,-0.270
38.422,-0.604,0.756,-0.270
38.432,-0.604,0.758,-0.271
38.442,-0.602,0.758,-0.273
38.452,-0.602,0.758,-0.268
38.462,-0.602,0.758,-0.273
38.472,-0.602,0.758,-0.271
38.482,-0.602,0.756,-0.273
38.492,-0.604,0.758,-0.270
38.502,-0.602,0.754,-0.270
38.512,-0.600,0.758,-0.270
38.521,-0.604,0.756,-0.270
38.531,-0.602,0.760,-0.266
38.541,-0.600,0.758,-0.268
38.551,-0.602,0.758,-0.270
38.561,-0.604,0.760,-0.270
38.571,-0.600,0.762,-0.270
38.581,-0.600,0.766,-0.266
38.591,-0.594,0.762,-0.264
38.601,-0.594,0.760,-0.262
38.611,-0.594,0.758,-0.260
38.621,-0.598,0.760,-0.260
38.631,-0.596,0.758,-0.258
38.641,-0.598,0.754,-0.260
38.651,-0.600,0.750,-0.262
38.661,-0.602,0.752,-0.260
38.671,-0.605,0.758,-0.258
38.680,-0.611,0.760,-0.262
38.690,-0.609,0.760,-0.260
38.700,-0.609,0.756,-0.262
38.710,-0.609,0.754,-0.258
38.720,-0.607,0.750,-0.260
38.730,-0.611,0.748,-0.264
38.740,-0.607,0.748,-0.264
38.750,-0.607,0.742,-0.262
38.760,-0.605,0.746,-0.262
38.770,-0.605,0.748,-0.260
38.780,-0.607,0.746,-0.262
38.790,-0.607,0.748,-0.264
38.800,-0.605,0.746,-0.266
38.810,-0.602,0.748,-0.271
38.820,-0.604,0.750,-0.271
38.830,-0.604,0.750,-0.273
38.839,-0.602,0.752,-0.271
38.849,-0.600,0.754,-0.277
38.859,-0.598,0.750,-0.279
38.869,-0.600,0.752,-0.285
38.879,-0.596,0.752,-0.283
38.889,-0.596,0.746,-0.289
38.899,-0.596,0.750,-0.289
38.909,-0.598,0.752,-0.293
38.919,-0.598,0.752,-0.291
38.929,-0.598,0.756,-0.293
38.939,-0.594,0.760,-0.295
38.949,-0.590,0.764,-0.289
38.959,-0.588,0.760,-0.291
38.969,-0.588,0.766,-0.293
38.979,-0.586,0.760,-0.293
38.989,-0.584,0.762,-0.293
38.998,-0.586,0.762,-0.291
39.008,-0.584,0.758,-0.293
39.018,-0.586,0.762,-0.295
39.028,-0.592,0.756,-0.291
39.038,-0.594,0.758,-0.291
39.048,-0.596,0.760,-0.289
39.058,-0.598,0.760,-0.289
39.068,-0.600,0.762,-0.285
39.078,-0.604,0.758,-0.287
39.088,-0.602,0.760,-0.279
39.098,-0.600,0.758,-0.281
39.108,-0.598,0.754,-0.277
39.118,-0.596,0.752,-0.277
39.128,-0.600,0.756,-0.271
39.138,-0.600,0.754,-0.270
39.148,-0.598,0.752,-0.271
39.158,-0.600,0.752,-0.270
39.167,-0.596,0.750,-0.270
39.177,-0.596,0.752,-0.268
39.187,-0.596,0.758,-0.268
39.197,-0.596,0.752,-0.271
39.207,-0.596,0.758,-0.270
39.217,-0.598,0.760,-0.268
39.227,-0.602,0.760,-0.268
39.237,-0.602,0.754,-0.268
39.247,-0.604,0.752,-0.270
39.257,-0.605,0.756,-0.266
39.267,-0.604,0.756,-0.268
39.277,-0.602,0.752,-0.266
39.287,-0.602,0.750,-0.270
39.297,-0.604,0.748,-0.268
39.307,-0.604,0.756,-0.270
39.317,-0.605,0.758,-0.266
39.326,-0.604,0.764,-0.264
39.336,-0.607,0.760,-0.260
39.346,-0.604,0.758,-0.262
39.356,-0.600,0.752,-0.260
39.366,-0.598,0.750,-0.262
39.376,-0.596,0.748,-0.266
39.386,-0.600,0.748,-0.270
39.396,-0.600,0.750,-0.270
39.406,-0.602,0.754,-0.268
39.416,-0.604,0.754,-0.268
39.426,-0.604,0.758,-0.268
39.436,-0.602,0.758,-0.268
39.446,-0.602,0.758,-0.270
39.456,-0.607,0.756,-0.270
39.466,-0.602,0.754,-0.271
39.476,-0.602,0.752,-0.270
39.485,-0.600,0.748,-0.268
39.495,-0.598,0.754,-0.268
39.505,-0.602,0.754,-0.270
39.515,-0.602,0.760,-0.268
39.525,-0.600,0.756,-0.271
39.535,-0.600,0.756,-0.270
39.545,-0.602,0.760,-0.275
39.555,-0.604,0.760,-0.270
39.565,-0.604,0.758,-0.271
39.575,-0.602,0.762,-0.270
39.585,-0.602,0.764,-0.266
39.595,-0.604,0.764,-0.268
39.605,-0.604,0.762,-0.268
39.615,-0.604,0.756,-0.264
39.625,-0.602,0.760,-0.268
39.635,-0.602,0.760,-0.264
39.644,-0.600,0.758,-0.266
39.654,-0.600,0.758,-0.266
39.664,-0.600,0.756,-0.268
39.674,-0.598,0.756,-0.268
39.684,-0.600,0.758,-0.262
39.694,-0.598,0.760,-0.262
39.704,-0.598,0.762,-0.262
39.714,-0.598,0.764,-0.264
39.724,-0.600,0.762,-0.264
39.734,-0.596,0.756,-0.266
39.744,-0.596,0.758,-0.270
39.754,-0.596,0.756,-0.262
39.764,-0.600,0.754,-0.266
39.774,-0.602,0.756,-0.270
39.784,-0.602,0.754,-0.268
39.794,-0.600,0.756,-0.270
39.804,-0.600,0.756,-0.271
39.813,-0.604,0.754,-0.271
39.823,-0.602,0.756,-0.270
39.833,-0.602,0.758,-0.270
39.843,-0.604,0.754,-0.270
39.853,-0.605,0.756,-0.270
39.863,-0.605,0.758,-0.268
39.873,-0.604,0.754,-0.268
39.883,-0.602,0.752,-0.266
39.893,-0.604,0.752,-0.264
39.903,-0.607,0.752,-0.268
39.913,-0.602,0.752,-0.270
39.923,-0.600,0.750,-0.271
39.933,-0.604,0.748,-0.271
39.943,-0.605,0.752,-0.271
39.953,-0.607,0.758,-0.270
39.963,-0.609,0.760,-0.270
39.972,-0.607,0.760,-0.266
39.982,-0.604,0.756,-0.268
39.992,-0.607,0.754,-0.268
40.002,-0.605,0.752,-0.270
40.012,-0.602,0.750,-0.271
40.022,-0.604,0.748,-0.273
40.032,-0.604,0.746,-0.273
40.042,-0.602,0.752,-0.271
40.052,-0.602,0.752,-0.270
40.062,-0.600,0.752,-0.273
40.072,-0.600,0.756,-0.270
40.082,-0.602,0.756,-0.271
40.092,-0.602,0.758,-0.271
40.102,-0.602,0.756,-0.270
40.112,-0.604,0.754,-0.275
40.122,-0.602,0.752,-0.271
40.131,-0.604,0.756,-0.270
40.141,-0.602,0.758,-0.271
40.151,-0.600,0.758,-0.270
40.161,-0.594,0.752,-0.273
40.171,-0.596,0.752,-0.273
40.181,-0.598,0.758,-0.271
40.191,-0.596,0.758,-0.277
40.201,-0.602,0.762,-0.273
40.211,-0.602,0.760,-0.273
40.221,-0.605,0.760,-0.273
40.231,-0.604,0.756,-0.275
40.241,-0.600,0.756,-0.271
40.251,-0.602,0.754,-0.268
40.261,-0.604,0.750,-0.273
40.271,-0.602,0.748,-0.270
40.281,-0.602,0.748,-0.273
40.290,-0.602,0.748,-0.270
40.300,-0.602,0.750,-0.273
40.310,-0.604,0.748,-0.268
40.320,-0.609,0.750,-0.270
40.330,-0.609,0.752,-0.268
40.340,-0.613,0.752,-0.271
40.350,-0.609,0.750,-0.273
40.360,-0.611,0.748,-0.273
40.370,-0.611,0.750,-0.273
40.380,-0.611,0.750,-0.270
40.390,-0.611,0.748,-0.273
40.400,-0.607,0.750,-0.271
40.410,-0.607,0.748,-0.273
40.420,-0.607,0.752,-0.273
40.430,-0.609,0.752,-0.271
40.440,-0.607,0.754,-0.273
40.450,-0.609,0.752,-0.273
40.459,-0.605,0.750,-0.275
40.469,-0.602,0.754,-0.275
40.479,-0.600,0.754,-0.275
40.489,-0.605,0.754,-0.271
40.499,-0.602,0.754,-0.271
40.509,-0.600,0.752,-0.273
40.519,-0.602,0.754,-0.270
40.529,-0.602,0.756,-0.271
40.539,-0.602,0.758,-0.273
40.549,-0.602,0.754,-0.275
40.559,-0.604,0.748,-0.275
40.569,-0.605,0.752,-0.273
40.579,-0.605,0.756,-0.271
40.589,-0.607,0.758,-0.270
40.599,-0.607,0.760,-0.271
40.609,-0.609,0.754,-0.270
40.618,-0.609,0.752,-0.270
40.628,-0.607,0.750,-0.270
40.638,-0.609,0.748,-0.271
40.648,-0.607,0.742,-0.275
40.658,-0.607,0.746,-0.273
40.668,-0.609,0.748,-0.270
40.678,-0.611,0.748,-0.275
40.688,-0.611,0.750,-0.268
40.698,-0.609,0.750,-0.270
40.708,-0.613,0.750,-0.270
40.718,-0.609,0.752,-0.270
40.728,-0.609,0.752,-0.271
40.738,-0.609,0.750,-0.271
40.748,-0.607,0.746,-0.275
40.758,-0.607,0.750,-0.264
40.768,-0.609,0.750,-0.270
40.777,-0.609,0.750,-0.268
40.787,-0.609,0.746,-0.271
40.797,-0.605,0.740,-0.271
40.807,-0.607,0.746,-0.273
40.817,-0.609,0.754,-0.273
40.827,-0.613,0.754,-0.271
40.837,-0.611,0.758,-0.271
40.847,-0.609,0.756,-0.271
40.857,-0.609,0.754,-0.270
40.867,-0.609,0.754,-0.270
40.877,-0.607,0.754,-0.271
40.887,-0.605,0.748,-0.270
40.897,-0.609,0.746,-0.271
40.907,-0.609,0.746,-0.273
40.917,-0.605,0.748,-0.271
40.927,-0.609,0.748,-0.273
40.936,-0.611,0.748,-0.270
40.946,-0.607,0.752,-0.266
40.956,-0.611,0.748,-0.270
40.966,-0.609,0.752,-0.270
40.976,-0.609,0.748,-0.271
40.986,-0.609,0.752,-0.270
40.996,-0.602,0.744,-0.273
41.006,-0.604,0.742,-0.268
41.016,-0.605,0.744,-0.268
41.026,-0.605,0.742,-0.268
41.036,-0.605,0.748,-0.270
41.046,-0.615,0.744,-0.271
41.056,-0.617,0.750,-0.273
41.066,-0.621,0.748,-0.275
41.076,-0.617,0.752,-0.275
41.086,-0.619,0.744,-0.277
41.096,-0.619,0.752,-0.275
41.105,-0.619,0.756,-0.277
41.115,-0.617,0.756,-0.271
41.125,-0.609,0.750,-0.273
41.135,-0.605,0.748,-0.271
41.145,-0.605,0.750,-0.271
41.155,-0.600,0.748,-0.271
41.165,-0.605,0.746,-0.273
41.175,-0.607,0.744,-0.275
41.185,-0.605,0.744,-0.275
41.195,-0.613,0.750,-0.271
41.205,-0.615,0.750,-0.273
41.215,-0.619,0.752,-0.271
41.225,-0.615,0.750,-0.270
41.235,-0.611,0.746,-0.271
41.245,-0.611,0.742,-0.273
41.255,-0.611,0.746,-0.273
41.264,-0.613,0.744,-0.275
41.274,-0.613,0.744,-0.275
41.284,-0.613,0.744,-0.271
41.294,-0.615,0.746,-0.273
41.304,-0.615,0.748,-0.273
41.314,-0.617,0.746,-0.273
41.324,-0.615,0.748,-0.271
41.334,-0.615,0.748,-0.275
41.344,-0.613,0.742,-0.268
41.354,-0.613,0.742,-0.270
41.364,-0.613,0.742,-0.271
41.374,-0.611,0.744,-0.270
41.384,-0.607,0.746,-0.270
41.394,-0.613,0.748,-0.273
41.404,-0.609,0.746,-0.268
41.414,-0.607,0.740,-0.271
41.423,-0.607,0.742,-0.275
41.433,-0.609,0.746,-0.271
41.443,-0.615,0.750,-0.273
41.453,-0.613,0.752,-0.271
41.463,-0.615,0.748,-0.271
41.473,-0.613,0.748,-0.275
41.483,-0.611,0.748,-0.271
41.493,-0.615,0.746,-0.271
41.503,-0.611,0.746,-0.273
41.513,-0.611,0.746,-0.271
41.523,-0.611,0.746,-0.271
41.533,-0.609,0.744,-0.271
41.543,-0.611,0.746,-0.270
41.553,-0.613,0.746,-0.271
41.563,-0.611,0.746,-0.273
41.573,-0.607,0.746,-0.273
41.582,-0.611,0.746,-0.273
41.592,-0.609,0.744,-0.270
41.602,-0.611,0.746,-0.271
41.612,-0.613,0.744,-0.271
41.622,-0.615,0.746,-0.277
41.632,-0.613,0.746,-0.273
41.642,-0.611,0.746,-0.273
41.652,-0.615,0.742,-0.275
41.662,-0.613,0.744,-0.273
41.672,-0.613,0.748,-0.273
41.682,-0.615,0.746,-0.273
41.692,-0.613,0.748,-0.273
41.702,-0.615,0.748,-0.270
41.712,-0.609,0.748,-0.273
41.722,-0.609,0.748,-0.271
41.732,-0.611,0.758,-0.273
41.741,-0.609,0.752,-0.273
41.751,-0.607,0.748,-0.270
41.761,-0.607,0.746,-0.270
41.771,-0.609,0.750,-0.270
41.781,-0.609,0.752,-0.270
41.791,-0.605,0.746,-0.273
41.801,-0.609,0.746,-0.273
41.811,-0.609,0.744,-0.271
41.821,-0.615,0.748,-0.268
41.831,-0.615,0.754,-0.270
41.841,-0.617,0.754,-0.270
41.851,-0.615,0.750,-0.271
41.861,-0.609,0.750,-0.270
41.871,-0.607,0.744,-0.270
41.881,-0.611,0.744,-0.271
41.891,-0.615,0.744,-0.271
41.901,-0.613,0.748,-0.271
41.910,-0.611,0.746,-0.270
41.920,-0.611,0.748,-0.268
41.930,-0.611,0.750,-0.270
41.940,-0.609,0.750,-0.271
41.950,-0.607,0.754,-0.270
41.960,-0.611,0.750,-0.266
41.970,-0.609,0.750,-0.268
41.980,-0.609,0.752,-0.264
41.990,-0.611,0.746,-0.271
42.000,-0.611,0.748,-0.270
42.010,-0.611,0.748,-0.270
42.020,-0.607,0.750,-0.268
42.030,-0.613,0.750,-0.266
42.040,-0.605,0.750,-0.270
42.050,-0.605,0.746,-0.271
42.060,-0.607,0.748,-0.268
42.069,-0.611,0.750,-0.273
42.079,-0.613,0.754,-0.273
42.089,-0.615,0.752,-0.271
42.099,-0.611,0.754,-0.270
42.109,-0.615,0.756,-0.268
42.119,-0.609,0.754,-0.270
42.129,-0.607,0.754,-0.268
42.139,-0.611,0.754,-0.268
42.149,-0.609,0.752,-0.268
42.159,-0.607,0.742,-0.268
42.169,-0.605,0.746,-0.268
42.179,-0.609,0.748,-0.270
42.189,-0.609,0.750,-0.270
42.199,-0.611,0.752,-0.270
42.209,-0.607,0.750,-0.266
42.219,-0.607,0.752,-0.268
42.228,-0.611,0.752,-0.270
42.238,-0.613,0.754,-0.271
42.248,-0.613,0.754,-0.270
42.258,-0.609,0.752,-0.270
42.268,-0.609,0.750,-0.270
42.278,-0.611,0.754,-0.266
42.288,-0.609,0.752,-0.270
42.298,-0.613,0.746,-0.266
42.308,-0.615,0.750,-0.271
42.318,-0.609,0.750,-0.271
42.328,-0.609,0.750,-0.271
42.338,-0.617,0.758,-0.268
42.348,-0.617,0.752,-0.270
42.358,-0.621,0.758,-0.270
42.368,-0.623,0.760,-0.271
42.378,-0.615,0.760,-0.270
42.387,-0.617,0.754,-0.262
42.397,-0.631,0.758,-0.260
42.407,-0.611,0.748,-0.270
42.417,-0.588,0.746,-0.264
42.427,-0.588,0.750,-0.262
42.437,-0.596,0.750,-0.260
42.447,-0.596,0.750,-0.270
42.457,-0.592,0.744,-0.266
42.467,-0.594,0.748,-0.266
42.477,-0.602,0.756,-0.270
42.487,-0.602,0.756,-0.270
42.497,-0.600,0.756,-0.268
42.507,-0.604,0.756,-0.266
42.517,-0.605,0.754,-0.266
42.527,-0.607,0.752,-0.266
42.537,-0.607,0.750,-0.266
42.547,-0.609,0.748,-0.264
42.556,-0.604,0.754,-0.268
42.566,-0.604,0.748,-0.262
42.576,-0.604,0.748,-0.264
42.586,-0.605,0.748,-0.264
42.596,-0.607,0.748,-0.264
42.606,-0.611,0.748,-0.266
42.616,-0.607,0.746,-0.266
42.626,-0.611,0.750,-0.264
42.636,-0.609,0.750,-0.266
42.646,-0.611,0.744,-0.264
42.656,-0.613,0.752,-0.266
42.666,-0.609,0.748,-0.268
42.676,-0.607,0.752,-0.262
42.686,-0.607,0.746,-0.266
42.696,-0.607,0.748,-0.268
42.706,-0.607,0.746,-0.268
42.715,-0.609,0.750,-0.268
42.725,-0.611,0.752,-0.268
42.735,-0.613,0.758,-0.268
42.745,-0.609,0.754,-0.268
42.755,-0.605,0.750,-0.266
42.765,-0.609,0.750,-0.268
42.775,-0.607,0.748,-0.268
42.785,-0.615,0.748,-0.268
42.795,-0.611,0.750,-0.268
42.805,-0.607,0.750,-0.268
42.815,-0.609,0.744,-0.266
42.825,-0.607,0.746,-0.270
42.835,-0.605,0.748,-0.270
42.845,-0.611,0.754,-0.271
42.855,-0.611,0.754,-0.271
42.865,-0.607,0.752,-0.270
42.874,-0.607,0.752,-0.270
42.884,-0.611,0.754,-0.270
42.894,-0.611,0.754,-0.270
42.904,-0.605,0.756,-0.268
42.914,-0.605,0.750,-0.271
42.924,-0.611,0.752,-0.271
42.934,-0.605,0.750,-0.273
42.944,-0.605,0.748,-0.273
42.954,-0.604,0.748,-0.270
42.964,-0.609,0.746,-0.270
42.974,-0.609,0.750,-0.273
42.984,-0.607,0.752,-0.270
42.994,-0.609,0.752,-0.271
43.004,-0.611,0.752,-0.271
43.014,-0.609,0.752,-0.271
43.024,-0.609,0.754,-0.270
43.033,-0.607,0.758,-0.273
43.043,-0.607,0.758,-0.271
43.053,-0.605,0.754,-0.271
43.063,-0.600,0.754,-0.268
43.073,-0.604,0.752,-0.264
43.083,-0.600,0.752,-0.266
43.093,-0.602,0.748,-0.270
43.103,-0.600,0.748,-0.271
43.113,-0.604,0.752,-0.270
43.123,-0.605,0.754,-0.271
43.133,-0.611,0.758,-0.268
43.143,-0.615,0.762,-0.268
43.153,-0.615,0.758,-0.268
43.163,-0.611,0.756,-0.268
43.173,-0.615,0.754,-0.268
43.183,-0.609,0.750,-0.270
43.193,-0.609,0.746,-0.270
43.202,-0.607,0.748,-0.273
43.212,-0.609,0.746,-0.268
43.222,-0.607,0.748,-0.268
43.232,-0.604,0.752,-0.268
43.242,-0.605,0.754,-0.266
43.252,-0.604,0.754,-0.266
43.262,-0.605,0.752,-0.266
43.272,-0.605,0.752,-0.264
43.282,-0.605,0.750,-0.268
43.292,-0.604,0.752,-0.271
43.302,-0.605,0.750,-0.268
43.312,-0.609,0.752,-0.266
43.322,-0.609,0.752,-0.268
43.332,-0.607,0.754,-0.266
43.342,-0.605,0.752,-0.270
43.352,-0.605,0.750,-0.268
43.361,-0.609,0.754,-0.268
43.371,-0.607,0.752,-0.266
43.381,-0.607,0.752,-0.268
43.391,-0.607,0.754,-0.268
43.401,-0.607,0.754,-0.264
43.411,-0.607,0.758,-0.268
43.421,-0.609,0.754,-0.264
43.431,-0.607,0.754,-0.268
43.441,-0.605,0.752,-0.266
43.451,-0.604,0.754,-0.266
43.461,-0.604,0.754,-0.266
43.471,-0.602,0.750,-0.266
43.481,-0.602,0.752,-0.266
43.491,-0.602,0.756,-0.266
43.501,-0.605,0.754,-0.268
43.511,-0.605,0.756,-0.268
43.520,-0.605,0.756,-0.270
43.530,-0.605,0.754,-0.268
43.540,-0.611,0.750,-0.266
43.550,-0.609,0.752,-0.268
43.560,-0.607,0.750,-0.270
43.570,-0.607,0.750,-0.271
43.580,-0.609,0.748,-0.268
43.590,-0.611,0.752,-0.266
43.600,-0.607,0.750,-0.268
43.610,-0.607,0.752,-0.268
43.620,-0.611,0.752,-0.268
43.630,-0.605,0.754,-0.266
43.640,-0.607,0.756,-0.268
43.650,-0.607,0.754,-0.268
43.660,-0.605,0.754,-0.268
43.670,-0.605,0.754,-0.266
43.679,-0.604,0.760,-0.268
43.689,-0.604,0.754,-0.264
43.699,-0.602,0.754,-0.262
43.709,-0.604,0.752,-0.266
43.719,-0.602,0.758,-0.262
43.729,-0.600,0.754,-0.266
43.739,-0.600,0.752,-0.264
43.749,-0.604,0.750,-0.268
43.759,-0.607,0.754,-0.268
43.769,-0.611,0.756,-0.266
43.779,-0.613,0.760,-0.268
43.789,-0.613,0.760,-0.262
43.799,-0.611,0.760,-0.264
43.809,-0.611,0.758,-0.260
43.819,-0.609,0.752,-0.264
43.829,-0.604,0.748,-0.268
43.839,-0.607,0.748,-0.266
43.848,-0.609,0.748,-0.268
43.858,-0.604,0.750,-0.270
43.868,-0.604,0.752,-0.268
43.878,-0.605,0.754,-0.266
43.888,-0.605,0.756,-0.268
43.898,-0.605,0.756,-0.268
43.908,-0.605,0.756,-0.268
43.918,-0.605,0.754,-0.268
43.928,-0.607,0.754,-0.268
43.938,-0.607,0.750,-0.268
43.948,-0.605,0.752,-0.266
43.958,-0.604,0.752,-0.268
43.968,-0.602,0.752,-0.264
43.978,-0.605,0.752,-0.264
43.988,-0.600,0.752,-0.268
43.998,-0.602,0.756,-0.270
44.007,-0.607,0.754,-0.270
44.017,-0.607,0.758,-0.271
44.027,-0.605,0.758,-0.268
44.037,-0.607,0.758,-0.266
44.047,-0.605,0.756,-0.271
44.057,-0.604,0.754,-0.270
44.067,-0.605,0.756,-0.271
44.077,-0.604,0.752,-0.268
44.087,-0.604,0.752,-0.270
44.097,-0.604,0.752,-0.270
44.107,-0.607,0.750,-0.271
44.117,-0.602,0.750,-0.268
44.127,-0.604,0.754,-0.266
44.137,-0.605,0.756,-0.271
44.147,-0.607,0.756,-0.270
44.157,-0.602,0.752,-0.270
44.166,-0.605,0.756,-0.270
44.176,-0.605,0.756,-0.271
44.186,-0.605,0.752,-0.270
44.196,-0.607,0.752,-0.270
44.206,-0.607,0.752,-0.268
44.216,-0.605,0.756,-0.268
44.226,-0.605,0.752,-0.271
44.236,-0.605,0.750,-0.270
44.246,-0.605,0.752,-0.273
44.256,-0.604,0.752,-0.270
44.266,-0.605,0.756,-0.268
44.276,-0.605,0.756,-0.271
44.286,-0.607,0.758,-0.271
44.296,-0.609,0.754,-0.270
44.306,-0.604,0.756,-0.271
44.316,-0.604,0.758,-0.271
44.325,-0.604,0.756,-0.271
44.335,-0.602,0.754,-0.264
44.345,-0.600,0.754,-0.270
44.355,-0.600,0.756,-0.268
44.365,-0.604,0.752,-0.268
44.375,-0.602,0.752,-0.270
44.385,-0.602,0.752,-0.264
44.395,-0.604,0.754,-0.266
44.405,-0.609,0.758,-0.268
44.415,-0.611,0.762,-0.268
44.425,-0.611,0.760,-0.268
44.435,-0.607,0.756,-0.268
44.445,-0.605,0.752,-0.270
44.455,-0.605,0.752,-0.270
44.465,-0.604,0.748,-0.270
44.475,-0.607,0.750,-0.268
44.485,-0.605,0.748,-0.268
44.494,-0.607,0.748,-0.271
44.504,-0.604,0.748,-0.266
44.514,-0.604,0.756,-0.266
44.524,-0.602,0.758,-0.268
44.534,-0.604,0.758,-0.264
44.544,-0.607,0.758,-0.268
44.554,-0.604,0.754,-0.270
44.564,-0.604,0.750,-0.270
44.574,-0.602,0.748,-0.271
44.584,-0.604,0.752,-0.268
44.594,-0.605,0.754,-0.270
44.604,-0.605,0.754,-0.266
44.614,-0.604,0.752,-0.266
44.624,-0.602,0.750,-0.271
44.634,-0.604,0.756,-0.268
44.644,-0.607,0.756,-0.270
44.653,-0.605,0.758,-0.271
44.663,-0.605,0.758,-0.270
44.673,-0.605,0.760,-0.270
44.683,-0.602,0.756,-0.266
44.693,-0.602,0.758,-0.268
44.703,-0.604,0.754,-0.266
44.713,-0.604,0.754,-0.268
44.723,-0.605,0.752,-0.266
44.733,-0.600,0.748,-0.270
44.743,-0.604,0.752,-0.264
44.753,-0.602,0.752,-0.270
44.763,-0.602,0.754,-0.268
44.773,-0.605,0.752,-0.268
44.783,-0.607,0.754,-0.270
44.793,-0.605,0.752,-0.266
44.803,-0.607,0.756,-0.268
44.812,-0.605,0.750,-0.270
44.822,-0.604,0.754,-0.268
44.832,-0.605,0.752,-0.270
44.842,-0.605,0.750,-0.268
44.852,-0.604,0.752,-0.266
44.862,-0.605,0.752,-0.273
44.872,-0.605,0.754,-0.268
44.882,-0.609,0.754,-0.271
44.892,-0.604,0.752,-0.271
44.902,-0.609,0.752,-0.270
44.912,-0.604,0.754,-0.268
44.922,-0.609,0.756,-0.271
44.932,-0.607,0.754,-0.271
44.942,-0.605,0.758,-0.273
44.952,-0.604,0.756,-0.270
44.962,-0.604,0.754,-0.270
44.971,-0.604,0.754,-0.268
44.981,-0.605,0.756,-0.268
44.991,-0.605,0.756,-0.268
45.001,-0.602,0.754,-0.270
45.011,-0.604,0.752,-0.270
45.021,-0.604,0.752,-0.271
45.031,-0.605,0.756,-0.270
45.041,-0.604,0.760,-0.270
45.051,-0.607,0.762,-0.268
45.061,-0.607,0.760,-0.268
45.071,-0.607,0.758,-0.266
45.081,-0.611,0.754,-0.264
45.091,-0.605,0.750,-0.266
45.101,-0.607,0.744,-0.268
45.111,-0.605,0.746,-0.270
45.121,-0.613,0.744,-0.270
45.130,-0.609,0.748,-0.266
45.140,-0.609,0.750,-0.268
45.150,-0.607,0.752,-0.268
45.160,-0.607,0.752,-0.268
45.170,-0.609,0.754,-0.268
45.180,-0.605,0.752,-0.266
45.190,-0.605,0.750,-0.268
45.200,-0.604,0.752,-0.266
45.210,-0.607,0.752,-0.264
45.220,-0.604,0.754,-0.270
45.230,-0.607,0.752,-0.268
45.240,-0.605,0.752,-0.268
45.250,-0.604,0.746,-0.266
45.260,-0.604,0.750,-0.270
45.270,-0.605,0.752,-0.275
45.280,-0.609,0.756,-0.273
45.290,-0.609,0.758,-0.271
45.299,-0.609,0.758,-0.273
45.309,-0.604,0.758,-0.271
45.319,-0.605,0.756,-0.270
45.329,-0.602,0.752,-0.268
45.339,-0.602,0.752,-0.271
45.349,-0.605,0.750,-0.273
45.359,-0.602,0.748,-0.270
45.369,-0.605,0.748,-0.271
45.379,-0.607,0.750,-0.270
45.389,-0.607,0.752,-0.270
45.399,-0.607,0.752,-0.270
45.409,-0.605,0.756,-0.273
45.419,-0.607,0.750,-0.270
45.429,-0.607,0.754,-0.271
45.439,-0.609,0.752,-0.268
45.449,-0.609,0.750,-0.270
45.458,-0.607,0.752,-0.268
45.468,-0.611,0.748,-0.270
45.478,-0.609,0.746,-0.271
45.488,-0.607,0.750,-0.271
45.498,-0.607,0.752,-0.270
45.508,-0.607,0.752,-0.270
45.518,-0.607,0.752,-0.273
45.528,-0.611,0.748,-0.273
45.538,-0.609,0.754,-0.275
45.548,-0.607,0.760,-0.273
45.558,-0.609,0.758,-0.271
45.568,-0.604,0.756,-0.266
45.578,-0.602,0.752,-0.268
45.588,-0.602,0.756,-0.264
45.598,-0.602,0.756,-0.268
45.608,-0.600,0.758,-0.266
45.617,-0.596,0.750,-0.268
45.627,-0.604,0.752,-0.268
45.637,-0.604,0.750,-0.266
45.647,-0.609,0.754,-0.266
45.657,-0.611,0.758,-0.264
45.667,-0.609,0.756,-0.266
45.677,-0.615,0.752,-0.264
45.687,-0.613,0.750,-0.262
45.697,-0.607,0.746,-0.270
45.707,-0.613,0.742,-0.270
45.717,-0.609,0.746,-0.271
45.727,-0.611,0.746,-0.271
45.737,-0.611,0.750,-0.270
45.747,-0.613,0.756,-0.271
45.757,-0.609,0.756,-0.268
45.767,-0.607,0.758,-0.266
45.776,-0.609,0.758,-0.268
45.786,-0.607,0.754,-0.266
45.796,-0.604,0.756,-0.266
45.806,-0.604,0.752,-0.262
45.816,-0.602,0.754,-0.262
45.826,-0.605,0.756,-0.262
45.836,-0.604,0.760,-0.266
45.846,-0.604,0.756,-0.262
45.856,-0.605,0.750,-0.264
45.866,-0.609,0.748,-0.260
45.876,-0.609,0.748,-0.262
45.886,-0.609,0.752,-0.264
45.896,-0.609,0.754,-0.266
45.906,-0.611,0.754,-0.264
45.916,-0.607,0.758,-0.264
45.926,-0.609,0.756,-0.268
45.936,-0.605,0.754,-0.264
45.945,-0.605,0.752,-0.270
45.955,-0.605,0.752,-0.268
45.965,-0.604,0.746,-0.266
45.975,-0.609,0.750,-0.268
45.985,-0.604,0.752,-0.268
45.995,-0.607,0.752,-0.266
46.005,-0.605,0.752,-0.266
46.015,-0.605,0.750,-0.271
46.025,-0.607,0.752,-0.270
46.035,-0.605,0.752,-0.270
46.045,-0.609,0.750,-0.271
46.055,-0.609,0.750,-0.271
46.065,-0.609,0.750,-0.271
46.075,-0.605,0.748,-0.275
46.085,-0.609,0.752,-0.273
46.095,-0.607,0.752,-0.273
46.104,-0.607,0.752,-0.275
46.114,-0.607,0.756,-0.271
46.124,-0.604,0.756,-0.275
46.134,-0.605,0.758,-0.273
46.144,-0.604,0.762,-0.275
46.154,-0.604,0.758,-0.273
46.164,-0.602,0.754,-0.275
46.174,-0.602,0.752,-0.268
46.184,-0.604,0.754,-0.268
46.194,-0.602,0.754,-0.270
46.204,-0.604,0.750,-0.271
46.214,-0.605,0.750,-0.271
46.224,-0.605,0.754,-0.270
46.234,-0.607,0.756,-0.270
46.244,-0.609,0.762,-0.270
46.254,-0.607,0.758,-0.268
46.263,-0.609,0.756,-0.270
46.273,-0.607,0.754,-0.270
46.283,-0.605,0.748,-0.268
46.293,-0.604,0.748,-0.271
46.303,-0.604,0.746,-0.270
46.313,-0.604,0.746,-0.268
46.323,-0.607,0.748,-0.268
46.333,-0.604,0.750,-0.270
46.343,-0.605,0.754,-0.268
46.353,-0.607,0.754,-0.271
46.363,-0.605,0.758,-0.270
46.373,-0.605,0.752,-0.270
46.383,-0.604,0.756,-0.270
46.393,-0.605,0.750,-0.271
46.403,-0.605,0.750,-0.270
46.413,-0.604,0.756,-0.270
46.422,-0.607,0.750,-0.270
46.432,-0.605,0.754,-0.268
46.442,-0.604,0.750,-0.271
46.452,-0.602,0.750,-0.270
46.462,-0.609,0.754,-0.271
46.472,-0.605,0.754,-0.270
46.482,-0.609,0.758,-0.270
46.492,-0.609,0.758,-0.270
46.502,-0.605,0.756,-0.271
46.512,-0.605,0.756,-0.270
46.522,-0.605,0.756,-0.270
46.532,-0.605,0.752,-0.268
46.542,-0.602,0.754,-0.270
46.552,-0.600,0.750,-0.266
46.562,-0.604,0.752,-0.268
46.572,-0.604,0.752,-0.270
46.582,-0.604,0.752,-0.268
46.591,-0.605,0.754,-0.270
46.601,-0.602,0.758,-0.273
46.611,-0.604,0.756,-0.268
46.621,-0.605,0.758,-0.270
46.631,-0.605,0.754,-0.271
46.641,-0.609,0.754,-0.273
46.651,-0.605,0.752,-0.270
46.661,-0.607,0.752,-0.270
46.671,-0.609,0.750,-0.271
46.681,-0.607,0.752,-0.270
46.691,-0.602,0.754,-0.271
46.701,-0.604,0.754,-0.268
46.711,-0.604,0.752,-0.270
46.721,-0.605,0.754,-0.273
46.731,-0.604,0.758,-0.271
46.741,-0.604,0.762,-0.270
46.750,-0.602,0.752,-0.271
46.760,-0.600,0.754,-0.270
46.770,-0.604,0.756,-0.264
46.780,-0.602,0.756,-0.268
46.790,-0.602,0.750,-0.271
46.800,-0.604,0.748,-0.270
46.810,-0.605,0.752,-0.270
46.820,-0.607,0.756,-0.271
46.830,-0.609,0.762,-0.271
46.840,-0.609,0.762,-0.268
46.850,-0.609,0.760,-0.270
46.860,-0.607,0.758,-0.266
46.870,-0.605,0.756,-0.270
46.880,-0.605,0.750,-0.270
46.890,-0.604,0.752,-0.270
46.900,-0.602,0.750,-0.270
46.909,-0.604,0.748,-0.268
46.919,-0.604,0.750,-0.271
46.929,-0.604,0.756,-0.266
46.939,-0.604,0.758,-0.264
46.949,-0.604,0.758,-0.270
46.959,-0.609,0.756,-0.268
46.969,-0.605,0.756,-0.271
46.979,-0.607,0.750,-0.271
46.989,-0.607,0.748,-0.271
46.999,-0.607,0.754,-0.268
47.009,-0.607,0.754,-0.268
47.019,-0.604,0.756,-0.266
47.029,-0.602,0.756,-0.264
47.039,-0.600,0.750,-0.266
47.049,-0.604,0.756,-0.268
