df_hash,22ZHK4.8FYAMK
device,HZ2X61
project_hash,29R7
project_name,istanbul_aydin_university
person_hash,29R7.ZPV5
person_label,V99
date_time_start,2025-11-04_19-09-59.215000_+03
date_time_start_unix,1762268999.215
date_time_end,2025-11-04_19-18-14.354000_+03
length_difference_noticed,no

time,acc_x,acc_y,acc_z
4.402,-0.447,0.908,0.129
4.411,-0.449,0.910,0.133
4.421,-0.449,0.908,0.127
4.431,-0.451,0.908,0.129
4.441,-0.451,0.908,0.131
4.451,-0.453,0.908,0.127
4.461,-0.455,0.908,0.129
4.471,-0.451,0.912,0.127
4.481,-0.457,0.912,0.123
4.491,-0.455,0.908,0.129
4.501,-0.451,0.910,0.127
4.511,-0.447,0.910,0.129
4.521,-0.451,0.910,0.129
4.531,-0.449,0.914,0.127
4.541,-0.447,0.910,0.129
4.551,-0.449,0.910,0.127
4.560,-0.451,0.914,0.127
4.570,-0.451,0.912,0.131
4.580,-0.447,0.908,0.131
4.590,-0.453,0.908,0.129
4.600,-0.451,0.910,0.127
4.610,-0.453,0.910,0.131
4.620,-0.449,0.912,0.129
4.630,-0.453,0.910,0.131
4.640,-0.455,0.912,0.129
4.650,-0.455,0.912,0.127
4.660,-0.453,0.910,0.129
4.670,-0.457,0.914,0.133
4.680,-0.453,0.910,0.131
4.690,-0.453,0.910,0.131
4.700,-0.455,0.908,0.131
4.709,-0.453,0.906,0.129
4.719,-0.455,0.908,0.131
4.729,-0.453,0.904,0.129
4.739,-0.451,0.906,0.129
4.749,-0.453,0.910,0.131
4.759,-0.453,0.910,0.129
4.769,-0.453,0.912,0.131
4.779,-0.455,0.910,0.131
4.789,-0.453,0.912,0.133
4.799,-0.453,0.912,0.127
4.809,-0.453,0.912,0.131
4.819,-0.453,0.910,0.131
4.829,-0.453,0.908,0.133
4.839,-0.449,0.906,0.129
4.849,-0.449,0.912,0.131
4.858,-0.449,0.914,0.131
4.868,-0.449,0.912,0.131
4.878,-0.449,0.908,0.127
4.888,-0.449,0.912,0.127
4.898,-0.451,0.916,0.127
4.908,-0.451,0.916,0.129
4.918,-0.451,0.916,0.131
4.928,-0.451,0.916,0.129
4.938,-0.447,0.912,0.127
4.948,-0.447,0.912,0.133
4.958,-0.447,0.912,0.129
4.968,-0.451,0.910,0.129
4.978,-0.447,0.906,0.133
4.988,-0.453,0.912,0.129
4.998,-0.449,0.914,0.133
5.007,-0.453,0.916,0.129
5.017,-0.449,0.912,0.127
5.027,-0.447,0.914,0.125
5.037,-0.451,0.910,0.129
5.047,-0.451,0.914,0.129
5.057,-0.449,0.912,0.127
5.067,-0.449,0.910,0.125
5.077,-0.449,0.912,0.125
5.087,-0.447,0.914,0.125
5.097,-0.449,0.912,0.129
5.107,-0.449,0.910,0.129
5.117,-0.447,0.912,0.127
5.127,-0.445,0.912,0.123
5.137,-0.445,0.910,0.125
5.147,-0.453,0.912,0.129
5.156,-0.451,0.912,0.129
5.166,-0.449,0.912,0.129
5.176,-0.449,0.908,0.127
5.186,-0.447,0.910,0.127
5.196,-0.449,0.912,0.129
5.206,-0.453,0.912,0.133
5.216,-0.451,0.914,0.131
5.226,-0.449,0.912,0.129
5.236,-0.453,0.910,0.127
5.246,-0.457,0.910,0.127
5.256,-0.455,0.910,0.129
5.266,-0.457,0.912,0.127
5.276,-0.455,0.908,0.127
5.286,-0.455,0.908,0.131
5.296,-0.457,0.910,0.125
5.305,-0.455,0.910,0.127
5.315,-0.455,0.910,0.129
5.325,-0.453,0.910,0.131
5.335,-0.453,0.914,0.125
5.345,-0.453,0.910,0.127
5.355,-0.451,0.910,0.129
5.365,-0.453,0.912,0.129
5.375,-0.451,0.910,0.131
5.385,-0.455,0.912,0.131
5.395,-0.455,0.910,0.129
5.405,-0.455,0.912,0.125
5.415,-0.451,0.906,0.129
5.425,-0.451,0.912,0.129
5.435,-0.455,0.910,0.127
5.445,-0.449,0.910,0.125
5.454,-0.451,0.906,0.125
5.464,-0.453,0.908,0.127
5.474,-0.455,0.912,0.127
5.484,-0.451,0.912,0.129
5.494,-0.453,0.918,0.125
5.504,-0.453,0.918,0.129
5.514,-0.451,0.916,0.129
5.524,-0.449,0.912,0.127
5.534,-0.449,0.910,0.125
5.544,-0.447,0.910,0.125
5.554,-0.445,0.912,0.127
5.564,-0.447,0.914,0.127
5.574,-0.447,0.912,0.125
5.584,-0.447,0.914,0.125
5.594,-0.445,0.914,0.123
5.603,-0.447,0.916,0.129
5.613,-0.449,0.916,0.127
5.623,-0.449,0.912,0.123
5.633,-0.453,0.910,0.127
5.643,-0.451,0.910,0.123
5.653,-0.453,0.912,0.123
5.663,-0.451,0.912,0.125
5.673,-0.449,0.912,0.125
5.683,-0.451,0.912,0.123
5.693,-0.453,0.912,0.123
5.703,-0.451,0.910,0.127
5.713,-0.449,0.910,0.125
5.723,-0.451,0.912,0.125
5.733,-0.451,0.912,0.125
5.743,-0.449,0.914,0.129
5.752,-0.445,0.910,0.129
5.762,-0.447,0.908,0.127
5.772,-0.447,0.908,0.127
5.782,-0.451,0.912,0.129
5.792,-0.451,0.916,0.127
5.802,-0.449,0.916,0.125
5.812,-0.453,0.910,0.125
5.822,-0.453,0.912,0.125
5.832,-0.457,0.914,0.127
5.842,-0.457,0.914,0.125
5.852,-0.453,0.912,0.127
5.862,-0.451,0.912,0.127
5.872,-0.451,0.910,0.125
5.882,-0.453,0.912,0.129
5.892,-0.453,0.906,0.125
5.901,-0.451,0.908,0.125
5.911,-0.453,0.910,0.123
5.921,-0.449,0.912,0.127
5.931,-0.451,0.912,0.129
5.941,-0.449,0.910,0.129
5.951,-0.449,0.914,0.127
5.961,-0.447,0.912,0.125
5.971,-0.451,0.912,0.131
5.981,-0.451,0.916,0.127
5.991,-0.449,0.912,0.129
6.001,-0.447,0.912,0.127
6.011,-0.451,0.914,0.129
6.021,-0.445,0.914,0.129
6.031,-0.447,0.906,0.125
6.041,-0.447,0.908,0.127
6.050,-0.451,0.912,0.127
6.060,-0.447,0.910,0.125
6.070,-0.451,0.914,0.127
6.080,-0.449,0.916,0.127
6.090,-0.449,0.916,0.127
6.100,-0.449,0.918,0.129
6.110,-0.451,0.914,0.131
6.120,-0.449,0.914,0.129
6.130,-0.445,0.910,0.127
6.140,-0.451,0.910,0.127
6.150,-0.449,0.910,0.127
6.160,-0.447,0.910,0.127
6.170,-0.449,0.912,0.127
6.180,-0.449,0.912,0.129
6.190,-0.449,0.914,0.129
6.199,-0.453,0.912,0.127
6.209,-0.449,0.906,0.127
6.219,-0.447,0.910,0.129
6.229,-0.449,0.908,0.127
6.239,-0.449,0.908,0.121
6.249,-0.451,0.910,0.123
6.259,-0.451,0.910,0.125
6.269,-0.453,0.912,0.125
6.279,-0.453,0.916,0.121
6.289,-0.455,0.918,0.129
6.299,-0.453,0.914,0.127
6.309,-0.453,0.912,0.125
6.319,-0.455,0.910,0.123
6.329,-0.449,0.910,0.127
6.339,-0.453,0.908,0.127
6.348,-0.451,0.908,0.129
6.358,-0.447,0.906,0.125
6.368,-0.449,0.908,0.129
6.378,-0.451,0.910,0.125
6.388,-0.451,0.912,0.127
6.398,-0.455,0.914,0.129
6.408,-0.455,0.912,0.125
6.418,-0.455,0.910,0.127
6.428,-0.459,0.912,0.127
6.438,-0.459,0.908,0.131
6.448,-0.461,0.910,0.127
6.458,-0.459,0.910,0.125
6.468,-0.457,0.910,0.127
6.478,-0.455,0.910,0.125
6.488,-0.453,0.910,0.127
6.497,-0.453,0.908,0.127
6.507,-0.451,0.910,0.127
6.517,-0.453,0.910,0.127
6.527,-0.451,0.910,0.129
6.537,-0.451,0.910,0.129
6.547,-0.453,0.914,0.125
6.557,-0.453,0.908,0.129
6.567,-0.455,0.908,0.125
6.577,-0.457,0.908,0.127
6.587,-0.455,0.908,0.131
6.597,-0.455,0.906,0.129
6.607,-0.455,0.914,0.127
6.617,-0.455,0.910,0.131
6.627,-0.451,0.912,0.127
6.637,-0.451,0.904,0.123
6.646,-0.451,0.910,0.129
6.656,-0.455,0.906,0.131
6.666,-0.453,0.912,0.131
6.676,-0.453,0.912,0.129
6.686,-0.451,0.912,0.131
6.696,-0.451,0.910,0.129
6.706,-0.451,0.912,0.129
6.716,-0.449,0.912,0.127
6.726,-0.447,0.908,0.125
6.736,-0.449,0.910,0.125
6.746,-0.451,0.910,0.127
6.756,-0.451,0.912,0.125
6.766,-0.447,0.912,0.129
6.776,-0.447,0.912,0.127
6.786,-0.449,0.916,0.127
6.795,-0.447,0.914,0.127
6.805,-0.447,0.910,0.127
6.815,-0.447,0.910,0.123
6.825,-0.451,0.910,0.129
6.835,-0.449,0.908,0.123
6.845,-0.449,0.912,0.123
6.855,-0.451,0.912,0.123
6.865,-0.451,0.912,0.125
6.875,-0.453,0.912,0.125
6.885,-0.453,0.916,0.123
6.895,-0.451,0.912,0.125
6.905,-0.449,0.910,0.125
6.915,-0.449,0.912,0.123
6.925,-0.449,0.912,0.123
6.935,-0.449,0.912,0.125
6.944,-0.451,0.916,0.127
6.954,-0.453,0.910,0.125
6.964,-0.451,0.914,0.125
6.974,-0.451,0.910,0.125
6.984,-0.447,0.908,0.127
6.994,-0.451,0.908,0.123
7.004,-0.449,0.912,0.127
7.014,-0.451,0.916,0.123
7.024,-0.451,0.910,0.125
7.034,-0.455,0.910,0.125
7.044,-0.457,0.912,0.127
7.054,-0.457,0.914,0.125
7.064,-0.455,0.910,0.125
7.074,-0.457,0.912,0.127
7.083,-0.453,0.910,0.127
7.093,-0.455,0.908,0.123
7.103,-0.453,0.910,0.125
7.113,-0.455,0.906,0.127
7.123,-0.455,0.912,0.125
7.133,-0.455,0.906,0.129
7.143,-0.457,0.908,0.129
7.153,-0.457,0.910,0.127
7.163,-0.457,0.910,0.129
7.173,-0.457,0.908,0.129
7.183,-0.459,0.910,0.129
7.193,-0.457,0.908,0.129
7.203,-0.457,0.908,0.123
7.213,-0.463,0.906,0.129
7.223,-0.461,0.910,0.127
7.232,-0.461,0.912,0.125
7.242,-0.459,0.912,0.127
7.252,-0.453,0.906,0.127
7.262,-0.455,0.904,0.129
7.272,-0.457,0.908,0.127
7.282,-0.451,0.906,0.129
7.292,-0.453,0.910,0.125
7.302,-0.453,0.912,0.125
7.312,-0.453,0.912,0.125
7.322,-0.451,0.912,0.123
7.332,-0.453,0.912,0.125
7.342,-0.453,0.910,0.125
7.352,-0.451,0.910,0.121
7.362,-0.451,0.908,0.125
7.372,-0.449,0.914,0.127
7.381,-0.451,0.912,0.123
7.391,-0.451,0.914,0.125
7.401,-0.451,0.912,0.125
7.411,-0.455,0.912,0.125
7.421,-0.455,0.912,0.127
7.431,-0.457,0.910,0.125
7.441,-0.455,0.910,0.123
7.451,-0.457,0.910,0.123
7.461,-0.455,0.908,0.121
7.471,-0.453,0.908,0.123
7.481,-0.455,0.910,0.125
7.491,-0.455,0.912,0.123
7.501,-0.457,0.912,0.123
7.511,-0.455,0.914,0.123
7.521,-0.457,0.910,0.121
7.530,-0.453,0.912,0.125
7.540,-0.455,0.908,0.125
7.550,-0.453,0.910,0.123
7.560,-0.455,0.912,0.123
7.570,-0.453,0.914,0.125
7.580,-0.453,0.910,0.125
7.590,-0.455,0.910,0.125
7.600,-0.453,0.908,0.125
7.610,-0.453,0.904,0.123
7.620,-0.453,0.906,0.123
7.630,-0.457,0.910,0.127
7.640,-0.457,0.908,0.125
7.650,-0.451,0.912,0.121
7.660,-0.459,0.908,0.123
7.670,-0.457,0.910,0.123
7.679,-0.459,0.912,0.125
7.689,-0.461,0.912,0.127
7.699,-0.457,0.912,0.129
7.709,-0.457,0.912,0.125
7.719,-0.457,0.910,0.125
7.729,-0.457,0.908,0.129
7.739,-0.455,0.906,0.125
7.749,-0.455,0.906,0.123
7.759,-0.455,0.908,0.125
7.769,-0.455,0.912,0.127
7.779,-0.451,0.910,0.125
7.789,-0.453,0.912,0.129
7.799,-0.451,0.912,0.127
7.809,-0.453,0.908,0.129
7.819,-0.459,0.910,0.125
7.828,-0.459,0.910,0.127
7.838,-0.455,0.906,0.129
7.848,-0.455,0.910,0.127
7.858,-0.457,0.912,0.131
7.868,-0.457,0.910,0.127
7.878,-0.453,0.906,0.121
7.888,-0.455,0.910,0.123
7.898,-0.457,0.912,0.131
7.908,-0.457,0.910,0.127
7.918,-0.455,0.910,0.127
7.928,-0.457,0.910,0.127
7.938,-0.453,0.914,0.125
7.948,-0.453,0.912,0.127
7.958,-0.455,0.910,0.127
7.968,-0.453,0.910,0.129
7.977,-0.455,0.906,0.129
7.987,-0.453,0.908,0.125
7.997,-0.451,0.912,0.129
8.007,-0.451,0.912,0.129
8.017,-0.451,0.910,0.127
8.027,-0.453,0.912,0.125
8.037,-0.453,0.910,0.127
8.047,-0.453,0.906,0.125
8.057,-0.455,0.908,0.127
8.067,-0.453,0.910,0.127
8.077,-0.455,0.910,0.125
8.087,-0.457,0.910,0.125
8.097,-0.455,0.914,0.127
8.107,-0.455,0.914,0.123
8.117,-0.457,0.912,0.123
8.126,-0.455,0.910,0.121
8.136,-0.457,0.910,0.123
8.146,-0.455,0.910,0.125
8.156,-0.457,0.908,0.123
8.166,-0.457,0.910,0.125
8.176,-0.457,0.910,0.125
8.186,-0.459,0.910,0.125
8.196,-0.457,0.912,0.125
8.206,-0.457,0.908,0.127
8.216,-0.455,0.906,0.125
8.226,-0.457,0.908,0.123
8.236,-0.457,0.910,0.127
8.246,-0.459,0.910,0.129
8.256,-0.457,0.912,0.127
8.266,-0.459,0.908,0.127
8.275,-0.461,0.906,0.129
8.285,-0.463,0.910,0.121
8.295,-0.463,0.908,0.123
8.305,-0.463,0.908,0.125
8.315,-0.461,0.910,0.125
8.325,-0.461,0.906,0.127
8.335,-0.461,0.908,0.127
8.345,-0.457,0.908,0.129
8.355,-0.459,0.908,0.127
8.365,-0.457,0.906,0.125
8.375,-0.459,0.908,0.129
8.385,-0.455,0.908,0.127
8.395,-0.459,0.910,0.127
8.405,-0.457,0.906,0.129
8.415,-0.453,0.910,0.129
8.424,-0.459,0.908,0.129
8.434,-0.459,0.908,0.125
8.444,-0.461,0.906,0.127
8.454,-0.459,0.904,0.127
8.464,-0.463,0.910,0.127
8.474,-0.459,0.914,0.127
8.484,-0.457,0.906,0.123
8.494,-0.457,0.910,0.125
8.504,-0.457,0.910,0.125
8.514,-0.457,0.914,0.125
8.524,-0.457,0.912,0.123
8.534,-0.457,0.914,0.127
8.544,-0.453,0.914,0.127
8.554,-0.453,0.908,0.125
8.564,-0.455,0.908,0.123
8.573,-0.451,0.910,0.125
8.583,-0.453,0.908,0.129
8.593,-0.451,0.910,0.125
8.603,-0.453,0.910,0.123
8.613,-0.451,0.910,0.129
8.623,-0.449,0.912,0.123
8.633,-0.453,0.914,0.127
8.643,-0.449,0.910,0.129
8.653,-0.455,0.910,0.127
8.663,-0.461,0.912,0.129
8.673,-0.457,0.908,0.127
8.683,-0.457,0.908,0.121
8.693,-0.459,0.908,0.125
8.703,-0.457,0.906,0.123
8.713,-0.455,0.908,0.123
8.722,-0.455,0.908,0.125
8.732,-0.453,0.914,0.127
8.742,-0.451,0.910,0.125
8.752,-0.453,0.912,0.123
8.762,-0.451,0.912,0.129
8.772,-0.451,0.912,0.127
8.782,-0.453,0.910,0.131
8.792,-0.449,0.908,0.129
8.802,-0.451,0.908,0.127
8.812,-0.449,0.908,0.127
8.822,-0.455,0.906,0.127
8.832,-0.457,0.910,0.127
8.842,-0.459,0.910,0.125
8.852,-0.461,0.910,0.127
8.862,-0.459,0.908,0.123
8.871,-0.461,0.904,0.127
8.881,-0.461,0.906,0.125
8.891,-0.461,0.908,0.125
8.901,-0.457,0.910,0.123
8.911,-0.455,0.912,0.125
8.921,-0.455,0.916,0.127
8.931,-0.455,0.910,0.125
8.941,-0.455,0.910,0.127
8.951,-0.451,0.906,0.123
8.961,-0.457,0.910,0.131
8.971,-0.457,0.910,0.127
8.981,-0.459,0.912,0.129
8.991,-0.457,0.912,0.127
9.001,-0.457,0.912,0.129
9.011,-0.459,0.910,0.129
9.020,-0.461,0.912,0.129
9.030,-0.465,0.908,0.127
9.040,-0.461,0.902,0.129
9.050,-0.465,0.906,0.129
9.060,-0.461,0.908,0.129
9.070,-0.459,0.904,0.129
9.080,-0.459,0.900,0.127
9.090,-0.455,0.908,0.129
9.100,-0.459,0.908,0.127
9.110,-0.459,0.908,0.127
9.120,-0.459,0.912,0.129
9.130,-0.461,0.914,0.129
9.140,-0.455,0.910,0.125
9.150,-0.457,0.912,0.125
9.160,-0.457,0.910,0.123
9.169,-0.457,0.908,0.125
9.179,-0.457,0.908,0.125
9.189,-0.451,0.910,0.125
9.199,-0.451,0.910,0.125
9.209,-0.453,0.910,0.127
9.219,-0.457,0.908,0.125
9.229,-0.457,0.906,0.125
9.239,-0.457,0.910,0.121
9.249,-0.461,0.910,0.125
9.259,-0.463,0.906,0.121
9.269,-0.461,0.910,0.121
9.279,-0.461,0.908,0.119
9.289,-0.463,0.910,0.121
9.299,-0.463,0.908,0.119
9.309,-0.463,0.910,0.121
9.318,-0.463,0.912,0.119
9.328,-0.461,0.910,0.123
9.338,-0.459,0.910,0.123
9.348,-0.461,0.908,0.123
9.358,-0.461,0.910,0.125
9.368,-0.459,0.910,0.125
9.378,-0.457,0.906,0.127
9.388,-0.459,0.904,0.123
9.398,-0.459,0.906,0.125
9.408,-0.461,0.912,0.127
9.418,-0.459,0.914,0.129
9.428,-0.461,0.912,0.123
9.438,-0.461,0.906,0.125
9.448,-0.463,0.906,0.121
9.458,-0.463,0.908,0.127
9.467,-0.461,0.910,0.125
9.477,-0.463,0.908,0.125
9.487,-0.461,0.906,0.125
9.497,-0.463,0.908,0.125
9.507,-0.461,0.906,0.125
9.517,-0.457,0.908,0.125
9.527,-0.461,0.906,0.127
9.537,-0.459,0.908,0.125
9.547,-0.461,0.906,0.127
9.557,-0.457,0.908,0.125
9.567,-0.457,0.910,0.125
9.577,-0.455,0.908,0.125
9.587,-0.457,0.908,0.127
9.597,-0.461,0.910,0.123
9.607,-0.461,0.910,0.123
9.616,-0.461,0.908,0.125
9.626,-0.457,0.910,0.127
9.636,-0.459,0.912,0.129
9.646,-0.459,0.906,0.125
9.656,-0.459,0.912,0.127
9.666,-0.463,0.908,0.125
9.676,-0.463,0.910,0.123
9.686,-0.459,0.908,0.127
9.696,-0.459,0.912,0.125
9.706,-0.461,0.916,0.127
9.716,-0.459,0.910,0.125
9.726,-0.459,0.906,0.129
9.736,-0.459,0.908,0.127
9.746,-0.459,0.910,0.127
9.756,-0.457,0.908,0.127
9.765,-0.453,0.906,0.127
9.775,-0.455,0.910,0.131
9.785,-0.455,0.908,0.129
9.795,-0.453,0.910,0.127
9.805,-0.453,0.908,0.129
9.815,-0.457,0.908,0.125
9.825,-0.457,0.908,0.127
9.835,-0.459,0.908,0.127
9.845,-0.461,0.910,0.123
9.855,-0.459,0.908,0.123
9.865,-0.459,0.908,0.125
9.875,-0.457,0.910,0.125
9.885,-0.459,0.910,0.129
9.895,-0.461,0.910,0.127
9.905,-0.457,0.908,0.123
9.914,-0.459,0.906,0.121
9.924,-0.461,0.906,0.121
9.934,-0.457,0.910,0.129
9.944,-0.455,0.904,0.125
9.954,-0.457,0.906,0.127
9.964,-0.455,0.908,0.121
9.974,-0.457,0.912,0.127
9.984,-0.451,0.914,0.129
9.994,-0.451,0.914,0.131
10.004,-0.453,0.910,0.129
10.014,-0.457,0.910,0.129
10.024,-0.457,0.910,0.129
10.034,-0.459,0.914,0.129
10.044,-0.459,0.908,0.127
10.054,-0.463,0.908,0.127
10.063,-0.463,0.910,0.127
10.073,-0.463,0.910,0.127
10.083,-0.459,0.904,0.127
10.093,-0.461,0.904,0.129
10.103,-0.461,0.906,0.127
10.113,-0.459,0.908,0.127
10.123,-0.459,0.908,0.129
10.133,-0.459,0.910,0.129
10.143,-0.453,0.912,0.131
10.153,-0.455,0.910,0.127
10.163,-0.459,0.908,0.129
10.173,-0.461,0.912,0.131
10.183,-0.461,0.910,0.127
10.193,-0.461,0.914,0.125
10.203,-0.467,0.908,0.127
10.212,-0.465,0.906,0.121
10.222,-0.463,0.904,0.125
10.232,-0.463,0.904,0.127
10.242,-0.461,0.906,0.127
10.252,-0.459,0.910,0.129
10.262,-0.457,0.910,0.133
10.272,-0.457,0.910,0.131
10.282,-0.451,0.910,0.135
10.292,-0.451,0.906,0.133
10.302,-0.457,0.908,0.129
10.312,-0.459,0.904,0.131
10.322,-0.459,0.904,0.127
10.332,-0.457,0.906,0.127
10.342,-0.457,0.910,0.127
10.352,-0.455,0.910,0.125
10.361,-0.453,0.908,0.127
10.371,-0.455,0.912,0.129
10.381,-0.453,0.910,0.125
10.391,-0.453,0.914,0.125
10.401,-0.453,0.910,0.127
10.411,-0.453,0.910,0.119
10.421,-0.455,0.910,0.123
10.431,-0.455,0.910,0.125
10.441,-0.455,0.910,0.123
10.451,-0.455,0.914,0.125
10.461,-0.459,0.910,0.123
10.471,-0.459,0.912,0.123
10.481,-0.461,0.908,0.123
10.491,-0.459,0.912,0.123
10.501,-0.457,0.914,0.127
10.510,-0.455,0.910,0.125
10.520,-0.455,0.910,0.127
10.530,-0.457,0.906,0.127
10.540,-0.457,0.910,0.127
10.550,-0.457,0.914,0.129
10.560,-0.459,0.914,0.131
10.570,-0.461,0.904,0.127
10.580,-0.465,0.908,0.127
10.590,-0.461,0.908,0.131
10.600,-0.459,0.910,0.125
10.610,-0.459,0.908,0.129
10.620,-0.461,0.908,0.125
10.630,-0.463,0.906,0.129
10.640,-0.457,0.906,0.125
10.650,-0.461,0.904,0.131
10.659,-0.463,0.906,0.129
10.669,-0.459,0.906,0.129
10.679,-0.463,0.908,0.133
10.689,-0.459,0.910,0.127
10.699,-0.459,0.906,0.131
10.709,-0.459,0.906,0.129
10.719,-0.463,0.908,0.131
10.729,-0.461,0.906,0.129
10.739,-0.465,0.906,0.131
10.749,-0.461,0.908,0.127
10.759,-0.461,0.908,0.129
10.769,-0.457,0.908,0.131
10.779,-0.461,0.904,0.125
10.789,-0.459,0.910,0.127
10.799,-0.459,0.910,0.125
10.808,-0.463,0.910,0.127
10.818,-0.459,0.914,0.127
10.828,-0.461,0.910,0.127
10.838,-0.457,0.914,0.129
10.848,-0.455,0.910,0.129
10.858,-0.453,0.906,0.129
10.868,-0.453,0.904,0.127
10.878,-0.453,0.906,0.129
10.888,-0.451,0.910,0.129
10.898,-0.451,0.908,0.127
10.908,-0.451,0.910,0.129
10.918,-0.455,0.912,0.127
10.928,-0.455,0.912,0.127
10.938,-0.451,0.912,0.127
10.948,-0.453,0.914,0.123
10.957,-0.453,0.912,0.125
10.967,-0.455,0.910,0.125
10.977,-0.453,0.912,0.125
10.987,-0.451,0.912,0.127
10.997,-0.451,0.912,0.125
11.007,-0.453,0.910,0.123
11.017,-0.449,0.910,0.129
11.027,-0.451,0.908,0.129
11.037,-0.451,0.912,0.127
11.047,-0.453,0.912,0.129
11.057,-0.453,0.910,0.123
11.067,-0.453,0.908,0.125
11.077,-0.455,0.910,0.125
11.087,-0.455,0.908,0.125
11.097,-0.457,0.908,0.125
11.106,-0.455,0.914,0.125
11.116,-0.459,0.910,0.127
11.126,-0.461,0.910,0.123
11.136,-0.461,0.914,0.127
11.146,-0.459,0.910,0.129
11.156,-0.457,0.912,0.127
11.166,-0.457,0.912,0.125
11.176,-0.457,0.908,0.125
11.186,-0.461,0.910,0.127
11.196,-0.457,0.906,0.123
11.206,-0.457,0.902,0.123
11.216,-0.463,0.908,0.125
11.226,-0.459,0.908,0.127
11.236,-0.459,0.910,0.127
11.246,-0.457,0.906,0.127
11.255,-0.459,0.908,0.127
11.265,-0.457,0.908,0.123
11.275,-0.461,0.910,0.125
11.285,-0.459,0.908,0.131
11.295,-0.461,0.908,0.129
11.305,-0.457,0.908,0.129
11.315,-0.457,0.912,0.127
11.325,-0.455,0.908,0.127
11.335,-0.457,0.902,0.123
11.345,-0.459,0.906,0.125
11.355,-0.457,0.910,0.125
11.365,-0.461,0.914,0.127
11.375,-0.457,0.912,0.127
11.385,-0.451,0.914,0.125
11.395,-0.455,0.910,0.127
11.404,-0.453,0.910,0.123
11.414,-0.453,0.910,0.125
11.424,-0.455,0.910,0.125
11.434,-0.453,0.908,0.127
11.444,-0.453,0.910,0.127
11.454,-0.451,0.908,0.127
11.464,-0.451,0.910,0.125
11.474,-0.453,0.912,0.125
11.484,-0.455,0.914,0.127
11.494,-0.457,0.910,0.125
11.504,-0.457,0.912,0.125
11.514,-0.455,0.910,0.123
11.524,-0.455,0.906,0.121
11.534,-0.453,0.912,0.123
11.544,-0.453,0.914,0.125
11.553,-0.453,0.910,0.125
11.563,-0.451,0.912,0.125
11.573,-0.451,0.910,0.125
11.583,-0.451,0.912,0.121
11.593,-0.453,0.916,0.125
11.603,-0.455,0.912,0.129
11.613,-0.449,0.906,0.125
11.623,-0.453,0.908,0.123
11.633,-0.453,0.910,0.123
11.643,-0.457,0.910,0.121
11.653,-0.455,0.918,0.125
11.663,-0.459,0.914,0.125
11.673,-0.459,0.912,0.127
11.683,-0.459,0.910,0.125
11.693,-0.457,0.908,0.125
11.702,-0.457,0.908,0.127
11.712,-0.459,0.912,0.125
11.722,-0.455,0.908,0.127
11.732,-0.459,0.908,0.125
11.742,-0.459,0.908,0.125
11.752,-0.457,0.906,0.123
11.762,-0.459,0.908,0.125
11.772,-0.459,0.906,0.125
11.782,-0.459,0.910,0.125
11.792,-0.459,0.908,0.127
11.802,-0.457,0.912,0.127
11.812,-0.461,0.908,0.127
11.822,-0.457,0.910,0.125
11.832,-0.459,0.908,0.125
11.842,-0.461,0.910,0.129
11.851,-0.459,0.908,0.125
11.861,-0.459,0.910,0.123
11.871,-0.453,0.910,0.127
11.881,-0.455,0.906,0.121
11.891,-0.457,0.908,0.125
11.901,-0.457,0.910,0.125
11.911,-0.459,0.914,0.125
11.921,-0.457,0.912,0.125
11.931,-0.461,0.914,0.125
11.941,-0.457,0.912,0.127
11.951,-0.457,0.910,0.127
11.961,-0.457,0.908,0.125
11.971,-0.459,0.908,0.125
11.981,-0.455,0.910,0.125
11.991,-0.455,0.906,0.125
12.000,-0.453,0.908,0.125
12.010,-0.453,0.908,0.127
12.020,-0.457,0.914,0.125
12.030,-0.455,0.912,0.125
12.040,-0.457,0.908,0.127
12.050,-0.457,0.912,0.127
12.060,-0.453,0.908,0.125
12.070,-0.455,0.910,0.123
12.080,-0.451,0.908,0.127
12.090,-0.453,0.910,0.123
12.100,-0.451,0.910,0.123
12.110,-0.453,0.908,0.127
12.120,-0.453,0.912,0.127
12.130,-0.455,0.912,0.123
12.140,-0.453,0.914,0.125
12.149,-0.453,0.910,0.125
12.159,-0.453,0.908,0.125
12.169,-0.453,0.912,0.123
12.179,-0.455,0.912,0.123
12.189,-0.457,0.908,0.127
12.199,-0.453,0.908,0.127
12.209,-0.453,0.906,0.129
12.219,-0.455,0.910,0.127
12.229,-0.459,0.912,0.125
12.239,-0.459,0.912,0.125
12.249,-0.457,0.912,0.125
12.259,-0.465,0.914,0.125
12.269,-0.465,0.914,0.123
12.279,-0.465,0.912,0.125
12.289,-0.463,0.910,0.123
12.298,-0.463,0.908,0.125
12.308,-0.459,0.906,0.121
12.318,-0.463,0.906,0.125
12.328,-0.461,0.904,0.125
12.338,-0.461,0.906,0.129
12.348,-0.457,0.908,0.125
12.358,-0.457,0.904,0.125
12.368,-0.459,0.908,0.125
12.378,-0.457,0.908,0.125
12.388,-0.455,0.908,0.127
12.398,-0.459,0.910,0.123
12.408,-0.457,0.908,0.125
12.418,-0.459,0.910,0.125
12.428,-0.459,0.910,0.125
12.438,-0.459,0.908,0.123
12.447,-0.453,0.906,0.125
12.457,-0.455,0.910,0.127
12.467,-0.453,0.910,0.129
12.477,-0.453,0.906,0.127
12.487,-0.459,0.908,0.127
12.497,-0.461,0.910,0.127
12.507,-0.459,0.910,0.129
12.517,-0.459,0.912,0.129
12.527,-0.457,0.912,0.125
12.537,-0.461,0.910,0.125
12.547,-0.457,0.910,0.125
12.557,-0.459,0.906,0.123
12.567,-0.459,0.906,0.127
12.577,-0.457,0.910,0.127
12.587,-0.451,0.910,0.127
12.596,-0.455,0.908,0.127
12.606,-0.455,0.910,0.125
12.616,-0.451,0.910,0.127
12.626,-0.457,0.908,0.127
12.636,-0.455,0.906,0.123
12.646,-0.457,0.912,0.127
12.656,-0.457,0.912,0.123
12.666,-0.457,0.912,0.125
12.676,-0.459,0.908,0.125
12.686,-0.455,0.910,0.125
12.696,-0.459,0.910,0.125
12.706,-0.457,0.910,0.125
12.716,-0.457,0.910,0.123
12.726,-0.457,0.908,0.123
12.736,-0.459,0.914,0.121
12.745,-0.459,0.912,0.123
12.755,-0.461,0.914,0.123
12.765,-0.459,0.910,0.121
12.775,-0.465,0.908,0.123
12.785,-0.463,0.908,0.121
12.795,-0.463,0.910,0.119
12.805,-0.461,0.908,0.127
12.815,-0.463,0.906,0.123
12.825,-0.459,0.908,0.125
12.835,-0.453,0.908,0.125
12.845,-0.453,0.908,0.127
12.855,-0.453,0.908,0.125
12.865,-0.455,0.914,0.127
12.875,-0.453,0.912,0.127
12.885,-0.455,0.912,0.127
12.894,-0.457,0.908,0.125
12.904,-0.461,0.908,0.125
12.914,-0.461,0.906,0.127
12.924,-0.461,0.906,0.125
12.934,-0.461,0.906,0.125
12.944,-0.461,0.910,0.125
12.954,-0.463,0.910,0.125
12.964,-0.463,0.906,0.127
12.974,-0.457,0.906,0.127
12.984,-0.459,0.906,0.123
12.994,-0.461,0.910,0.129
13.004,-0.461,0.908,0.129
13.014,-0.459,0.908,0.129
13.024,-0.457,0.908,0.129
13.034,-0.457,0.908,0.127
13.043,-0.459,0.908,0.129
13.053,-0.459,0.904,0.127
13.063,-0.463,0.908,0.127
13.073,-0.465,0.908,0.127
13.083,-0.463,0.904,0.125
13.093,-0.461,0.908,0.127
13.103,-0.465,0.910,0.129
13.113,-0.461,0.906,0.129
13.123,-0.463,0.906,0.123
13.133,-0.461,0.906,0.125
13.143,-0.461,0.910,0.125
13.153,-0.461,0.914,0.123
13.163,-0.459,0.912,0.127
13.173,-0.463,0.912,0.129
13.183,-0.457,0.912,0.127
13.192,-0.457,0.910,0.129
13.202,-0.461,0.908,0.125
13.212,-0.457,0.908,0.125
13.222,-0.459,0.906,0.123
13.232,-0.459,0.908,0.127
13.242,-0.455,0.910,0.123
13.252,-0.459,0.910,0.123
13.262,-0.459,0.912,0.127
13.272,-0.455,0.908,0.127
13.282,-0.461,0.908,0.125
13.292,-0.457,0.908,0.127
13.302,-0.459,0.906,0.125
13.312,-0.457,0.912,0.123
13.322,-0.459,0.910,0.121
13.332,-0.461,0.910,0.125
13.341,-0.459,0.908,0.119
13.351,-0.459,0.912,0.121
13.361,-0.459,0.910,0.123
13.371,-0.459,0.908,0.123
13.381,-0.459,0.908,0.127
13.391,-0.461,0.910,0.123
13.401,-0.461,0.910,0.121
13.411,-0.459,0.910,0.127
13.421,-0.459,0.910,0.123
13.431,-0.461,0.910,0.125
13.441,-0.459,0.910,0.127
13.451,-0.457,0.908,0.125
13.461,-0.459,0.908,0.123
13.471,-0.457,0.910,0.123
13.481,-0.461,0.908,0.127
13.490,-0.461,0.908,0.123
13.500,-0.461,0.910,0.125
13.510,-0.453,0.906,0.125
13.520,-0.453,0.906,0.127
13.530,-0.455,0.908,0.125
13.540,-0.457,0.912,0.125
13.550,-0.455,0.912,0.127
13.560,-0.457,0.910,0.125
13.570,-0.459,0.910,0.123
13.580,-0.461,0.910,0.125
13.590,-0.461,0.910,0.125
13.600,-0.463,0.912,0.121
13.610,-0.463,0.908,0.121
13.620,-0.465,0.910,0.123
13.630,-0.463,0.908,0.121
13.639,-0.465,0.908,0.123
13.649,-0.459,0.906,0.125
13.659,-0.461,0.904,0.125
13.669,-0.461,0.906,0.125
13.679,-0.455,0.906,0.127
13.689,-0.459,0.908,0.127
13.699,-0.461,0.910,0.127
13.709,-0.463,0.908,0.127
13.719,-0.463,0.906,0.129
13.729,-0.463,0.908,0.131
13.739,-0.463,0.908,0.127
13.749,-0.465,0.904,0.127
13.759,-0.463,0.904,0.125
13.769,-0.461,0.914,0.127
13.779,-0.461,0.906,0.125
13.788,-0.459,0.906,0.125
13.798,-0.461,0.908,0.125
13.808,-0.459,0.908,0.127
13.818,-0.461,0.910,0.123
13.828,-0.461,0.912,0.127
13.838,-0.459,0.912,0.131
13.848,-0.459,0.910,0.127
13.858,-0.455,0.910,0.125
13.868,-0.455,0.910,0.125
13.878,-0.455,0.906,0.125
13.888,-0.457,0.910,0.125
13.898,-0.455,0.908,0.127
13.908,-0.457,0.912,0.127
13.918,-0.455,0.912,0.125
13.928,-0.457,0.912,0.125
13.937,-0.459,0.910,0.123
13.947,-0.457,0.910,0.125
13.957,-0.455,0.910,0.127
13.967,-0.457,0.908,0.125
13.977,-0.459,0.906,0.125
13.987,-0.455,0.906,0.127
13.997,-0.457,0.908,0.125
14.007,-0.459,0.910,0.123
14.017,-0.455,0.912,0.125
14.027,-0.459,0.912,0.125
14.037,-0.459,0.912,0.127
14.047,-0.457,0.908,0.123
14.057,-0.459,0.908,0.125
14.067,-0.461,0.908,0.121
14.077,-0.463,0.910,0.125
14.086,-0.463,0.910,0.125
14.096,-0.463,0.908,0.125
14.106,-0.461,0.912,0.123
14.116,-0.461,0.908,0.127
14.126,-0.461,0.908,0.125
14.136,-0.463,0.910,0.121
14.146,-0.457,0.904,0.123
14.156,-0.459,0.906,0.127
14.166,-0.459,0.910,0.123
14.176,-0.457,0.908,0.123
14.186,-0.453,0.906,0.125
14.196,-0.453,0.906,0.125
14.206,-0.457,0.910,0.121
14.216,-0.455,0.914,0.123
14.226,-0.453,0.910,0.125
14.235,-0.455,0.910,0.125
14.245,-0.459,0.910,0.125
14.255,-0.459,0.910,0.129
14.265,-0.457,0.906,0.123
14.275,-0.461,0.908,0.123
14.285,-0.459,0.910,0.125
14.295,-0.459,0.908,0.123
14.305,-0.457,0.908,0.125
14.315,-0.457,0.910,0.125
14.325,-0.457,0.908,0.125
14.335,-0.457,0.908,0.125
14.345,-0.459,0.910,0.123
14.355,-0.459,0.910,0.125
14.365,-0.461,0.906,0.125
14.375,-0.461,0.908,0.127
14.384,-0.461,0.908,0.123
14.394,-0.457,0.906,0.123
14.404,-0.465,0.908,0.123
14.414,-0.465,0.908,0.123
14.424,-0.461,0.906,0.123
14.434,-0.461,0.914,0.125
14.444,-0.463,0.914,0.129
14.454,-0.457,0.908,0.129
14.464,-0.461,0.908,0.123
14.474,-0.457,0.912,0.127
14.484,-0.459,0.910,0.127
14.494,-0.455,0.910,0.125
14.504,-0.455,0.912,0.125
14.514,-0.455,0.914,0.129
14.524,-0.453,0.916,0.125
14.533,-0.455,0.912,0.127
14.543,-0.455,0.910,0.123
14.553,-0.457,0.910,0.125
14.563,-0.455,0.910,0.129
14.573,-0.455,0.906,0.127
14.583,-0.455,0.910,0.129
14.593,-0.455,0.908,0.125
14.603,-0.453,0.910,0.129
14.613,-0.455,0.910,0.129
14.623,-0.457,0.910,0.129
14.633,-0.457,0.910,0.129
14.643,-0.459,0.908,0.129
14.653,-0.459,0.906,0.127
14.663,-0.461,0.906,0.125
14.673,-0.461,0.908,0.125
14.682,-0.461,0.908,0.127
14.692,-0.463,0.906,0.127
14.702,-0.465,0.912,0.127
14.712,-0.461,0.910,0.125
14.722,-0.461,0.910,0.127
14.732,-0.461,0.906,0.125
14.742,-0.463,0.908,0.127
14.752,-0.463,0.908,0.127
14.762,-0.459,0.908,0.127
14.772,-0.459,0.908,0.127
14.782,-0.461,0.910,0.125
14.792,-0.459,0.910,0.125
14.802,-0.461,0.910,0.127
14.812,-0.459,0.912,0.129
14.822,-0.457,0.906,0.129
14.831,-0.457,0.906,0.125
14.841,-0.459,0.906,0.127
14.851,-0.459,0.908,0.129
14.861,-0.463,0.912,0.127
14.871,-0.461,0.912,0.129
14.881,-0.463,0.906,0.127
14.891,-0.463,0.908,0.127
14.901,-0.463,0.908,0.127
14.911,-0.461,0.908,0.125
14.921,-0.463,0.908,0.129
14.931,-0.461,0.908,0.125
14.941,-0.459,0.910,0.127
14.951,-0.459,0.906,0.127
14.961,-0.459,0.912,0.125
14.971,-0.457,0.910,0.125
14.980,-0.459,0.908,0.127
14.990,-0.455,0.908,0.129
15.000,-0.457,0.908,0.129
15.010,-0.459,0.910,0.127
15.020,-0.455,0.908,0.127
15.030,-0.457,0.908,0.127
15.040,-0.457,0.908,0.129
15.050,-0.461,0.910,0.129
15.060,-0.463,0.906,0.129
15.070,-0.463,0.906,0.131
15.080,-0.459,0.908,0.129
15.090,-0.463,0.910,0.125
15.100,-0.457,0.908,0.127
15.110,-0.459,0.906,0.127
15.120,-0.457,0.908,0.125
15.129,-0.461,0.910,0.127
15.139,-0.457,0.912,0.129
15.149,-0.453,0.912,0.129
15.159,-0.457,0.912,0.129
15.169,-0.457,0.910,0.125
15.179,-0.455,0.912,0.129
15.189,-0.457,0.910,0.127
15.199,-0.453,0.908,0.125
15.209,-0.459,0.908,0.125
15.219,-0.457,0.908,0.127
15.229,-0.457,0.908,0.125
15.239,-0.457,0.912,0.125
15.249,-0.455,0.910,0.127
15.259,-0.457,0.908,0.129
15.269,-0.457,0.906,0.129
15.278,-0.457,0.910,0.125
15.288,-0.457,0.912,0.129
15.298,-0.461,0.908,0.127
15.308,-0.459,0.912,0.123
15.318,-0.463,0.908,0.125
15.328,-0.461,0.910,0.123
15.338,-0.459,0.910,0.125
15.348,-0.461,0.910,0.127
15.358,-0.457,0.912,0.125
15.368,-0.459,0.910,0.125
15.378,-0.459,0.910,0.123
15.388,-0.459,0.910,0.125
15.398,-0.461,0.910,0.125
15.408,-0.463,0.910,0.127
15.418,-0.459,0.912,0.125
15.427,-0.457,0.910,0.127
15.437,-0.461,0.908,0.125
15.447,-0.459,0.910,0.127
15.457,-0.461,0.910,0.125
15.467,-0.463,0.906,0.129
15.477,-0.459,0.904,0.127
15.487,-0.457,0.906,0.125
15.497,-0.459,0.910,0.127
15.507,-0.455,0.912,0.129
15.517,-0.457,0.908,0.127
15.527,-0.457,0.910,0.123
15.537,-0.461,0.910,0.129
15.547,-0.461,0.912,0.125
15.557,-0.457,0.910,0.125
15.567,-0.459,0.910,0.127
15.576,-0.459,0.910,0.127
15.586,-0.459,0.910,0.125
15.596,-0.459,0.910,0.129
15.606,-0.461,0.910,0.125
15.616,-0.459,0.906,0.125
15.626,-0.461,0.908,0.129
15.636,-0.461,0.912,0.129
15.646,-0.459,0.910,0.127
15.656,-0.457,0.908,0.129
15.666,-0.457,0.906,0.129
15.676,-0.459,0.906,0.127
15.686,-0.459,0.910,0.129
15.696,-0.461,0.906,0.123
15.706,-0.459,0.902,0.127
15.716,-0.459,0.906,0.125
15.725,-0.459,0.910,0.125
15.735,-0.457,0.910,0.127
15.745,-0.453,0.904,0.123
15.755,-0.453,0.912,0.123
15.765,-0.451,0.910,0.123
15.775,-0.451,0.914,0.123
15.785,-0.451,0.914,0.123
15.795,-0.455,0.916,0.123
15.805,-0.455,0.918,0.125
15.815,-0.453,0.916,0.123
15.825,-0.455,0.914,0.125
15.835,-0.453,0.912,0.131
15.845,-0.451,0.908,0.129
15.855,-0.455,0.908,0.129
15.865,-0.457,0.906,0.129
15.874,-0.459,0.908,0.127
15.884,-0.459,0.908,0.127
15.894,-0.463,0.908,0.129
15.904,-0.461,0.912,0.127
15.914,-0.461,0.910,0.127
15.924,-0.461,0.910,0.127
15.934,-0.459,0.908,0.127
15.944,-0.459,0.908,0.125
15.954,-0.457,0.908,0.125
15.964,-0.457,0.910,0.123
15.974,-0.457,0.910,0.123
15.984,-0.457,0.910,0.127
15.994,-0.461,0.910,0.127
16.004,-0.461,0.910,0.127
16.014,-0.463,0.910,0.125
16.023,-0.461,0.906,0.125
16.033,-0.463,0.910,0.121
16.043,-0.463,0.908,0.125
16.053,-0.465,0.912,0.125
16.063,-0.461,0.910,0.129
16.073,-0.457,0.906,0.127
16.083,-0.457,0.904,0.127
16.093,-0.459,0.906,0.129
16.103,-0.461,0.908,0.123
16.113,-0.459,0.912,0.129
16.123,-0.461,0.908,0.131
16.133,-0.461,0.908,0.125
16.143,-0.463,0.908,0.125
16.153,-0.467,0.910,0.127
16.163,-0.467,0.910,0.129
16.172,-0.467,0.908,0.129
16.182,-0.467,0.904,0.129
16.192,-0.467,0.904,0.127
16.202,-0.463,0.904,0.127
16.212,-0.463,0.904,0.127
16.222,-0.465,0.904,0.129
16.232,-0.459,0.904,0.127
16.242,-0.463,0.910,0.129
16.252,-0.461,0.910,0.129
16.262,-0.461,0.910,0.131
16.272,-0.459,0.910,0.129
16.282,-0.459,0.910,0.127
16.292,-0.459,0.910,0.129
16.302,-0.463,0.908,0.133
16.312,-0.461,0.902,0.127
16.321,-0.459,0.908,0.123
16.331,-0.459,0.910,0.131
16.341,-0.461,0.910,0.131
16.351,-0.457,0.908,0.127
16.361,-0.463,0.908,0.123
16.371,-0.461,0.912,0.123
16.381,-0.461,0.910,0.129
16.391,-0.459,0.912,0.125
16.401,-0.459,0.914,0.125
16.411,-0.457,0.912,0.127
16.421,-0.455,0.910,0.123
16.431,-0.455,0.908,0.123
16.441,-0.455,0.908,0.125
16.451,-0.455,0.910,0.127
16.461,-0.457,0.910,0.129
16.470,-0.455,0.910,0.125
16.480,-0.453,0.914,0.125
16.490,-0.453,0.910,0.129
16.500,-0.457,0.912,0.127
16.510,-0.457,0.910,0.129
16.520,-0.455,0.910,0.125
16.530,-0.457,0.908,0.129
16.540,-0.457,0.908,0.127
16.550,-0.459,0.910,0.125
16.560,-0.455,0.912,0.125
16.570,-0.457,0.908,0.129
16.580,-0.459,0.914,0.125
16.590,-0.455,0.912,0.125
16.600,-0.457,0.914,0.131
16.610,-0.455,0.914,0.125
16.619,-0.457,0.910,0.125
16.629,-0.459,0.910,0.125
16.639,-0.457,0.908,0.127
16.649,-0.453,0.912,0.129
16.659,-0.453,0.908,0.129
16.669,-0.453,0.908,0.131
16.679,-0.455,0.902,0.127
16.689,-0.457,0.908,0.127
16.699,-0.459,0.910,0.129
16.709,-0.461,0.914,0.129
16.719,-0.461,0.914,0.123
16.729,-0.465,0.910,0.125
16.739,-0.463,0.910,0.125
16.749,-0.465,0.910,0.125
16.759,-0.465,0.910,0.125
16.768,-0.463,0.908,0.123
16.778,-0.463,0.912,0.123
16.788,-0.463,0.908,0.123
16.798,-0.459,0.906,0.125
16.808,-0.461,0.906,0.123
16.818,-0.461,0.908,0.125
16.828,-0.463,0.910,0.127
16.838,-0.461,0.908,0.129
16.848,-0.461,0.906,0.127
16.858,-0.459,0.908,0.129
16.868,-0.463,0.910,0.127
16.878,-0.461,0.908,0.129
16.888,-0.465,0.906,0.125
16.898,-0.467,0.906,0.127
16.908,-0.465,0.902,0.129
16.917,-0.465,0.910,0.125
16.927,-0.463,0.908,0.127
16.937,-0.461,0.906,0.125
16.947,-0.463,0.910,0.127
16.957,-0.463,0.910,0.125
16.967,-0.461,0.910,0.127
16.977,-0.463,0.908,0.129
16.987,-0.461,0.910,0.127
16.997,-0.457,0.914,0.127
17.007,-0.459,0.910,0.127
17.017,-0.457,0.908,0.127
17.027,-0.457,0.910,0.127
17.037,-0.459,0.908,0.131
17.047,-0.459,0.910,0.127
17.057,-0.459,0.910,0.129
17.066,-0.459,0.912,0.129
17.076,-0.457,0.912,0.125
17.086,-0.459,0.910,0.125
17.096,-0.457,0.912,0.123
17.106,-0.457,0.912,0.125
17.116,-0.455,0.910,0.123
17.126,-0.457,0.912,0.127
17.136,-0.455,0.910,0.125
17.146,-0.457,0.910,0.127
17.156,-0.455,0.910,0.129
17.166,-0.455,0.910,0.127
17.176,-0.453,0.910,0.125
17.186,-0.459,0.910,0.125
17.196,-0.457,0.908,0.127
17.206,-0.457,0.912,0.127
17.215,-0.455,0.912,0.127
17.225,-0.453,0.908,0.125
17.235,-0.455,0.908,0.127
17.245,-0.461,0.912,0.127
17.255,-0.459,0.910,0.131
17.265,-0.461,0.912,0.129
17.275,-0.461,0.914,0.127
17.285,-0.459,0.908,0.131
17.295,-0.461,0.908,0.129
17.305,-0.461,0.906,0.129
17.315,-0.459,0.908,0.129
17.325,-0.459,0.908,0.127
17.335,-0.461,0.910,0.127
17.345,-0.459,0.906,0.131
17.355,-0.461,0.908,0.129
17.364,-0.461,0.910,0.131
17.374,-0.461,0.908,0.129
17.384,-0.463,0.910,0.129
17.394,-0.459,0.910,0.131
17.404,-0.459,0.910,0.133
17.414,-0.461,0.908,0.129
17.424,-0.459,0.912,0.133
17.434,-0.457,0.912,0.131
17.444,-0.459,0.908,0.131
17.454,-0.459,0.908,0.127
17.464,-0.461,0.904,0.129
17.474,-0.463,0.906,0.127
17.484,-0.461,0.910,0.129
17.494,-0.459,0.904,0.127
17.504,-0.461,0.906,0.129
17.513,-0.461,0.908,0.125
17.523,-0.461,0.910,0.129
17.533,-0.461,0.912,0.127
17.543,-0.459,0.914,0.125
17.553,-0.457,0.912,0.129
17.563,-0.457,0.910,0.127
17.573,-0.451,0.910,0.127
17.583,-0.453,0.910,0.129
17.593,-0.453,0.910,0.129
17.603,-0.455,0.910,0.129
17.613,-0.453,0.912,0.125
17.623,-0.455,0.912,0.125
17.633,-0.453,0.910,0.129
17.643,-0.455,0.914,0.125
17.653,-0.457,0.914,0.125
17.662,-0.457,0.914,0.127
17.672,-0.455,0.910,0.127
17.682,-0.459,0.908,0.123
17.692,-0.457,0.910,0.123
17.702,-0.457,0.912,0.125
17.712,-0.453,0.912,0.129
17.722,-0.455,0.912,0.127
17.732,-0.455,0.910,0.125
17.742,-0.457,0.912,0.127
17.752,-0.455,0.914,0.129
17.762,-0.455,0.910,0.129
17.772,-0.455,0.912,0.125
17.782,-0.457,0.912,0.129
17.792,-0.457,0.912,0.129
17.802,-0.455,0.916,0.127
17.811,-0.455,0.914,0.129
17.821,-0.457,0.912,0.125
17.831,-0.461,0.910,0.127
17.841,-0.459,0.908,0.127
17.851,-0.459,0.910,0.129
17.861,-0.459,0.912,0.127
17.871,-0.459,0.908,0.131
17.881,-0.457,0.908,0.129
17.891,-0.459,0.908,0.129
17.901,-0.461,0.904,0.125
17.911,-0.457,0.908,0.127
17.921,-0.461,0.906,0.129
17.931,-0.459,0.910,0.133
17.941,-0.459,0.908,0.131
17.951,-0.455,0.908,0.129
17.960,-0.457,0.908,0.127
17.970,-0.457,0.908,0.131
17.980,-0.459,0.910,0.133
17.990,-0.459,0.910,0.131
18.000,-0.459,0.910,0.131
18.010,-0.457,0.908,0.133
18.020,-0.459,0.910,0.131
18.030,-0.457,0.910,0.133
18.040,-0.457,0.906,0.131
18.050,-0.457,0.908,0.129
18.060,-0.459,0.912,0.131
18.070,-0.459,0.914,0.131
18.080,-0.459,0.914,0.133
18.090,-0.455,0.912,0.129
18.100,-0.455,0.912,0.131
18.109,-0.451,0.912,0.129
18.119,-0.451,0.908,0.131
18.129,-0.451,0.910,0.131
18.139,-0.451,0.910,0.131
18.149,-0.453,0.908,0.133
18.159,-0.449,0.912,0.131
18.169,-0.453,0.912,0.131
18.179,-0.453,0.912,0.131
18.189,-0.455,0.912,0.129
18.199,-0.455,0.916,0.127
18.209,-0.457,0.914,0.133
18.219,-0.457,0.912,0.131
18.229,-0.455,0.912,0.131
18.239,-0.455,0.910,0.127
18.249,-0.455,0.912,0.133
18.258,-0.455,0.912,0.127
18.268,-0.455,0.910,0.127
18.278,-0.455,0.908,0.127
18.288,-0.455,0.910,0.129
18.298,-0.451,0.910,0.131
18.308,-0.451,0.910,0.127
18.318,-0.455,0.906,0.131
18.328,-0.457,0.912,0.127
18.338,-0.459,0.912,0.129
18.348,-0.461,0.914,0.129
18.358,-0.461,0.914,0.131
18.368,-0.459,0.912,0.129
18.378,-0.463,0.910,0.131
18.388,-0.459,0.908,0.127
18.398,-0.457,0.910,0.131
18.407,-0.459,0.908,0.127
18.417,-0.457,0.908,0.127
18.427,-0.459,0.908,0.127
18.437,-0.459,0.908,0.129
18.447,-0.457,0.906,0.129
18.457,-0.459,0.910,0.131
18.467,-0.461,0.908,0.131
18.477,-0.459,0.910,0.127
18.487,-0.459,0.910,0.127
18.497,-0.459,0.910,0.131
18.507,-0.459,0.910,0.129
18.517,-0.461,0.912,0.129
18.527,-0.465,0.908,0.129
18.537,-0.463,0.908,0.129
18.547,-0.459,0.914,0.131
18.556,-0.461,0.914,0.131
18.566,-0.457,0.908,0.131
18.576,-0.455,0.904,0.127
18.586,-0.459,0.908,0.129
18.596,-0.463,0.912,0.131
18.606,-0.457,0.912,0.131
18.616,-0.457,0.912,0.131
18.626,-0.461,0.912,0.129
18.636,-0.459,0.914,0.133
18.646,-0.457,0.914,0.129
18.656,-0.457,0.908,0.131
18.666,-0.457,0.906,0.131
18.676,-0.455,0.908,0.131
18.686,-0.455,0.910,0.131
18.696,-0.451,0.912,0.129
18.705,-0.453,0.910,0.129
18.715,-0.453,0.910,0.131
18.725,-0.457,0.910,0.129
18.735,-0.457,0.912,0.127
18.745,-0.457,0.910,0.127
18.755,-0.455,0.912,0.127
18.765,-0.457,0.910,0.127
18.775,-0.459,0.910,0.129
18.785,-0.457,0.916,0.125
18.795,-0.455,0.912,0.127
18.805,-0.451,0.910,0.127
18.815,-0.455,0.912,0.131
18.825,-0.459,0.914,0.127
18.835,-0.457,0.910,0.127
18.845,-0.455,0.910,0.133
18.854,-0.451,0.908,0.127
18.864,-0.453,0.908,0.131
18.874,-0.455,0.912,0.131
18.884,-0.455,0.912,0.129
18.894,-0.455,0.914,0.131
18.904,-0.455,0.914,0.127
18.914,-0.461,0.912,0.127
18.924,-0.463,0.914,0.127
18.934,-0.463,0.910,0.131
18.944,-0.465,0.910,0.127
18.954,-0.463,0.910,0.129
18.964,-0.463,0.908,0.129
18.974,-0.463,0.908,0.131
18.984,-0.461,0.906,0.129
18.994,-0.461,0.906,0.133
19.003,-0.465,0.904,0.129
19.013,-0.467,0.906,0.131
19.023,-0.463,0.908,0.133
19.033,-0.459,0.908,0.131
19.043,-0.463,0.910,0.131
19.053,-0.459,0.910,0.129
19.063,-0.465,0.906,0.131
19.073,-0.465,0.910,0.127
19.083,-0.465,0.908,0.129
19.093,-0.461,0.906,0.131
19.103,-0.459,0.912,0.131
19.113,-0.459,0.910,0.131
19.123,-0.457,0.904,0.129
19.133,-0.459,0.906,0.131
19.143,-0.459,0.910,0.133
19.152,-0.459,0.914,0.129
19.162,-0.455,0.912,0.127
19.172,-0.453,0.918,0.129
19.182,-0.457,0.912,0.129
19.192,-0.457,0.912,0.131
19.202,-0.457,0.914,0.131
19.212,-0.459,0.908,0.131
19.222,-0.457,0.908,0.131
19.232,-0.457,0.910,0.129
19.242,-0.455,0.908,0.131
19.252,-0.459,0.908,0.133
19.262,-0.457,0.910,0.129
19.272,-0.457,0.912,0.129
19.282,-0.459,0.908,0.131
19.292,-0.457,0.906,0.131
19.301,-0.457,0.906,0.131
19.311,-0.459,0.908,0.133
19.321,-0.463,0.906,0.131
19.331,-0.463,0.908,0.129
19.341,-0.461,0.908,0.129
19.351,-0.461,0.912,0.129
19.361,-0.461,0.912,0.127
19.371,-0.459,0.908,0.129
19.381,-0.459,0.912,0.127
19.391,-0.457,0.912,0.127
19.401,-0.457,0.912,0.129
19.411,-0.459,0.908,0.131
19.421,-0.461,0.914,0.129
19.431,-0.459,0.912,0.129
19.441,-0.459,0.912,0.131
19.450,-0.457,0.908,0.129
19.460,-0.461,0.906,0.127
19.470,-0.457,0.906,0.133
19.480,-0.459,0.912,0.131
19.490,-0.459,0.914,0.131
19.500,-0.463,0.912,0.127
19.510,-0.465,0.906,0.127
19.520,-0.467,0.908,0.131
19.530,-0.467,0.908,0.127
19.540,-0.467,0.908,0.127
19.550,-0.467,0.904,0.127
19.560,-0.465,0.906,0.127
19.570,-0.463,0.906,0.131
19.580,-0.463,0.910,0.127
19.589,-0.465,0.906,0.125
19.599,-0.465,0.904,0.127
19.609,-0.463,0.906,0.129
19.619,-0.463,0.908,0.131
19.629,-0.461,0.908,0.129
19.639,-0.459,0.908,0.129
19.649,-0.461,0.906,0.129
19.659,-0.463,0.908,0.129
19.669,-0.463,0.906,0.129
19.679,-0.465,0.910,0.127
19.689,-0.463,0.908,0.133
19.699,-0.465,0.910,0.127
19.709,-0.465,0.910,0.131
19.719,-0.465,0.912,0.133
19.729,-0.459,0.904,0.131
19.738,-0.461,0.906,0.129
19.748,-0.463,0.908,0.131
19.758,-0.459,0.910,0.129
19.768,-0.463,0.914,0.129
19.778,-0.463,0.908,0.131
19.788,-0.459,0.910,0.131
19.798,-0.463,0.910,0.127
19.808,-0.459,0.910,0.127
19.818,-0.461,0.908,0.129
19.828,-0.459,0.908,0.129
19.838,-0.461,0.910,0.133
19.848,-0.457,0.908,0.129
19.858,-0.459,0.908,0.129
19.868,-0.455,0.910,0.131
19.878,-0.455,0.910,0.129
19.887,-0.457,0.910,0.133
19.897,-0.457,0.908,0.129
19.907,-0.459,0.910,0.129
19.917,-0.457,0.912,0.129
19.927,-0.461,0.908,0.131
19.937,-0.461,0.912,0.129
19.947,-0.461,0.908,0.125
19.957,-0.461,0.910,0.131
19.967,-0.461,0.908,0.129
19.977,-0.461,0.908,0.129
19.987,-0.459,0.910,0.131
19.997,-0.461,0.908,0.129
20.007,-0.463,0.908,0.129
20.017,-0.461,0.906,0.129
20.027,-0.461,0.906,0.127
20.036,-0.461,0.906,0.129
20.046,-0.461,0.908,0.129
20.056,-0.463,0.910,0.131
20.066,-0.461,0.910,0.129
20.076,-0.461,0.910,0.125
20.086,-0.465,0.912,0.129
20.096,-0.465,0.910,0.125
20.106,-0.465,0.910,0.129
20.116,-0.461,0.908,0.129
20.126,-0.459,0.904,0.133
20.136,-0.457,0.904,0.131
20.146,-0.457,0.904,0.131
20.156,-0.459,0.912,0.133
20.166,-0.461,0.910,0.129
20.176,-0.459,0.902,0.129
20.185,-0.459,0.906,0.129
20.195,-0.463,0.912,0.127
20.205,-0.465,0.914,0.127
20.215,-0.467,0.908,0.127
20.225,-0.465,0.910,0.129
20.235,-0.465,0.906,0.127
20.245,-0.463,0.910,0.127
20.255,-0.459,0.908,0.123
20.265,-0.463,0.906,0.125
20.275,-0.467,0.908,0.131
20.285,-0.461,0.910,0.125
20.295,-0.459,0.912,0.129
20.305,-0.457,0.910,0.131
20.315,-0.461,0.910,0.131
20.325,-0.457,0.912,0.129
20.334,-0.459,0.906,0.129
20.344,-0.463,0.910,0.127
20.354,-0.463,0.908,0.131
20.364,-0.465,0.908,0.127
20.374,-0.461,0.906,0.131
20.384,-0.463,0.914,0.127
20.394,-0.459,0.912,0.127
20.404,-0.461,0.908,0.127
20.414,-0.457,0.908,0.127
20.424,-0.459,0.910,0.131
20.434,-0.459,0.912,0.129
20.444,-0.463,0.910,0.131
20.454,-0.459,0.914,0.129
20.464,-0.459,0.910,0.131
20.474,-0.457,0.908,0.131
20.483,-0.459,0.908,0.131
20.493,-0.465,0.910,0.131
20.503,-0.463,0.910,0.129
20.513,-0.461,0.906,0.131
20.523,-0.463,0.908,0.129
20.533,-0.463,0.908,0.129
20.543,-0.463,0.906,0.129
20.553,-0.461,0.908,0.127
20.563,-0.463,0.910,0.129
20.573,-0.463,0.908,0.127
20.583,-0.463,0.910,0.127
20.593,-0.463,0.908,0.127
20.603,-0.461,0.908,0.131
20.613,-0.461,0.908,0.127
20.623,-0.457,0.910,0.125
20.632,-0.461,0.910,0.125
20.642,-0.457,0.908,0.129
20.652,-0.463,0.906,0.127
20.662,-0.461,0.906,0.129
20.672,-0.461,0.912,0.125
20.682,-0.463,0.906,0.127
20.692,-0.463,0.906,0.127
20.702,-0.463,0.912,0.129
20.712,-0.463,0.912,0.125
20.722,-0.463,0.914,0.127
20.732,-0.463,0.912,0.129
20.742,-0.463,0.910,0.129
20.752,-0.465,0.906,0.125
20.762,-0.463,0.910,0.129
20.772,-0.459,0.904,0.125
20.781,-0.459,0.906,0.129
20.791,-0.465,0.904,0.127
20.801,-0.461,0.908,0.129
20.811,-0.465,0.910,0.131
20.821,-0.465,0.912,0.131
20.831,-0.467,0.910,0.131
20.841,-0.467,0.908,0.131
20.851,-0.463,0.908,0.127
20.861,-0.465,0.908,0.125
20.871,-0.465,0.908,0.127
20.881,-0.461,0.908,0.131
20.891,-0.459,0.908,0.131
20.901,-0.461,0.908,0.133
20.911,-0.461,0.910,0.129
20.921,-0.459,0.908,0.131
20.930,-0.461,0.906,0.127
20.940,-0.461,0.910,0.131
20.950,-0.463,0.908,0.131
20.960,-0.463,0.910,0.129
20.970,-0.463,0.908,0.131
20.980,-0.461,0.908,0.129
20.990,-0.465,0.906,0.129
21.000,-0.467,0.908,0.127
21.010,-0.467,0.910,0.131
21.020,-0.463,0.904,0.131
21.030,-0.465,0.908,0.129
21.040,-0.469,0.910,0.131
21.050,-0.461,0.906,0.129
21.060,-0.461,0.904,0.131
21.070,-0.463,0.908,0.131
21.079,-0.463,0.906,0.131
21.089,-0.465,0.910,0.129
21.099,-0.463,0.908,0.131
21.109,-0.461,0.906,0.131
21.119,-0.463,0.906,0.133
21.129,-0.459,0.906,0.133
21.139,-0.457,0.902,0.131
21.149,-0.459,0.900,0.131
21.159,-0.455,0.896,0.127
21.169,-0.449,0.900,0.133
21.179,-0.449,0.912,0.137
21.189,-0.453,0.920,0.139
21.199,-0.459,0.916,0.131
21.209,-0.461,0.914,0.129
21.219,-0.465,0.912,0.125
21.228,-0.471,0.916,0.123
21.238,-0.471,0.912,0.125
21.248,-0.471,0.910,0.121
21.258,-0.469,0.914,0.121
21.268,-0.469,0.910,0.121
21.278,-0.467,0.910,0.123
21.288,-0.459,0.908,0.123
21.298,-0.455,0.912,0.125
21.308,-0.457,0.912,0.123
21.318,-0.455,0.910,0.123
21.328,-0.457,0.910,0.121
21.338,-0.459,0.908,0.125
21.348,-0.463,0.908,0.123
21.358,-0.461,0.914,0.123
21.368,-0.463,0.908,0.125
21.377,-0.465,0.910,0.121
21.387,-0.465,0.912,0.121
21.397,-0.467,0.906,0.123
21.407,-0.465,0.908,0.125
21.417,-0.463,0.910,0.125
21.427,-0.461,0.908,0.127
21.437,-0.461,0.910,0.125
21.447,-0.465,0.908,0.125
21.457,-0.461,0.910,0.127
21.467,-0.459,0.912,0.127
21.477,-0.457,0.912,0.125
21.487,-0.465,0.910,0.127
21.497,-0.467,0.910,0.123
21.507,-0.465,0.910,0.125
21.517,-0.467,0.908,0.125
21.526,-0.463,0.908,0.123
21.536,-0.463,0.908,0.123
21.546,-0.463,0.908,0.125
21.556,-0.459,0.910,0.123
21.566,-0.457,0.906,0.125
21.576,-0.461,0.906,0.127
21.586,-0.461,0.908,0.127
21.596,-0.463,0.908,0.129
21.606,-0.459,0.908,0.127
21.616,-0.463,0.910,0.127
21.626,-0.465,0.906,0.129
21.636,-0.467,0.908,0.125
21.646,-0.465,0.908,0.123
21.656,-0.467,0.908,0.121
21.666,-0.469,0.908,0.127
21.675,-0.467,0.906,0.127
21.685,-0.471,0.912,0.131
21.695,-0.467,0.908,0.129
21.705,-0.465,0.904,0.127
21.715,-0.463,0.906,0.123
21.725,-0.467,0.908,0.127
21.735,-0.465,0.910,0.127
21.745,-0.467,0.912,0.127
21.755,-0.467,0.916,0.129
21.765,-0.465,0.910,0.129
21.775,-0.461,0.906,0.125
21.785,-0.461,0.908,0.125
21.795,-0.461,0.906,0.129
21.805,-0.457,0.906,0.129
21.815,-0.461,0.908,0.129
21.824,-0.459,0.910,0.127
21.834,-0.459,0.910,0.131
21.844,-0.457,0.910,0.131
21.854,-0.459,0.910,0.125
21.864,-0.457,0.910,0.127
21.874,-0.459,0.912,0.127
21.884,-0.459,0.910,0.127
21.894,-0.457,0.910,0.127
21.904,-0.459,0.910,0.125
21.914,-0.457,0.906,0.125
21.924,-0.459,0.908,0.125
21.934,-0.461,0.910,0.127
21.944,-0.463,0.912,0.127
21.954,-0.461,0.912,0.129
21.964,-0.459,0.912,0.123
21.973,-0.461,0.910,0.129
21.983,-0.461,0.910,0.127
21.993,-0.461,0.908,0.123
22.003,-0.463,0.906,0.125
22.013,-0.457,0.912,0.129
22.023,-0.459,0.910,0.127
22.033,-0.459,0.908,0.127
22.043,-0.461,0.906,0.129
22.053,-0.459,0.910,0.125
22.063,-0.459,0.910,0.125
22.073,-0.463,0.914,0.127
22.083,-0.465,0.910,0.125
22.093,-0.465,0.910,0.123
22.103,-0.465,0.910,0.123
22.113,-0.465,0.912,0.129
22.122,-0.467,0.910,0.127
22.132,-0.461,0.910,0.123
22.142,-0.461,0.910,0.125
22.152,-0.461,0.908,0.127
22.162,-0.463,0.908,0.127
22.172,-0.461,0.906,0.127
22.182,-0.463,0.906,0.127
22.192,-0.463,0.908,0.125
22.202,-0.463,0.906,0.129
22.212,-0.463,0.910,0.129
22.222,-0.463,0.910,0.131
22.232,-0.461,0.908,0.129
22.242,-0.463,0.908,0.129
22.252,-0.465,0.910,0.129
22.262,-0.463,0.908,0.127
22.271,-0.467,0.906,0.131
22.281,-0.461,0.904,0.129
22.291,-0.463,0.910,0.127
22.301,-0.461,0.910,0.127
22.311,-0.459,0.906,0.127
22.321,-0.463,0.908,0.125
22.331,-0.461,0.908,0.129
22.341,-0.463,0.912,0.125
22.351,-0.467,0.912,0.133
22.361,-0.463,0.916,0.127
22.371,-0.461,0.912,0.125
22.381,-0.461,0.910,0.125
22.391,-0.457,0.910,0.125
22.401,-0.457,0.906,0.127
22.411,-0.457,0.904,0.127
22.420,-0.457,0.908,0.125
22.430,-0.457,0.910,0.127
22.440,-0.457,0.912,0.127
22.450,-0.459,0.914,0.127
22.460,-0.457,0.912,0.127
22.470,-0.461,0.914,0.125
22.480,-0.459,0.908,0.125
22.490,-0.461,0.906,0.125
22.500,-0.461,0.908,0.125
22.510,-0.461,0.908,0.127
22.520,-0.459,0.910,0.129
22.530,-0.459,0.908,0.127
22.540,-0.459,0.912,0.125
22.550,-0.461,0.912,0.125
22.560,-0.463,0.910,0.123
22.569,-0.459,0.908,0.129
22.579,-0.461,0.910,0.123
22.589,-0.463,0.912,0.123
22.599,-0.461,0.910,0.125
22.609,-0.463,0.908,0.127
22.619,-0.459,0.906,0.125
22.629,-0.459,0.902,0.127
22.639,-0.461,0.906,0.125
22.649,-0.465,0.908,0.127
22.659,-0.463,0.914,0.125
22.669,-0.465,0.910,0.129
22.679,-0.463,0.912,0.125
22.689,-0.467,0.910,0.125
22.699,-0.465,0.908,0.127
22.709,-0.467,0.910,0.129
22.718,-0.467,0.908,0.127
22.728,-0.463,0.908,0.125
22.738,-0.463,0.906,0.127
22.748,-0.461,0.906,0.127
22.758,-0.463,0.906,0.129
22.768,-0.463,0.904,0.129
22.778,-0.465,0.906,0.123
22.788,-0.463,0.910,0.125
22.798,-0.463,0.908,0.125
22.808,-0.465,0.908,0.127
22.818,-0.463,0.908,0.125
22.828,-0.467,0.908,0.125
22.838,-0.465,0.908,0.127
22.848,-0.465,0.910,0.123
22.858,-0.465,0.910,0.127
22.867,-0.465,0.906,0.127
22.877,-0.463,0.910,0.127
22.887,-0.463,0.912,0.129
22.897,-0.461,0.908,0.127
22.907,-0.461,0.902,0.125
22.917,-0.461,0.910,0.129
22.927,-0.463,0.912,0.129
22.937,-0.467,0.910,0.129
22.947,-0.463,0.912,0.127
22.957,-0.461,0.912,0.131
22.967,-0.461,0.910,0.129
22.977,-0.461,0.906,0.129
22.987,-0.461,0.908,0.125
22.997,-0.459,0.906,0.129
23.007,-0.457,0.906,0.127
23.016,-0.459,0.908,0.131
23.026,-0.459,0.910,0.125
23.036,-0.457,0.910,0.129
23.046,-0.455,0.914,0.127
23.056,-0.457,0.910,0.125
23.066,-0.461,0.912,0.129
23.076,-0.457,0.908,0.127
23.086,-0.455,0.910,0.127
23.096,-0.459,0.910,0.125
23.106,-0.461,0.912,0.127
23.116,-0.459,0.910,0.129
23.126,-0.461,0.912,0.123
23.136,-0.461,0.910,0.125
23.146,-0.461,0.912,0.125
23.156,-0.459,0.910,0.125
23.165,-0.461,0.912,0.127
23.175,-0.463,0.912,0.123
23.185,-0.463,0.910,0.127
23.195,-0.457,0.910,0.125
23.205,-0.457,0.906,0.129
23.215,-0.459,0.904,0.127
23.225,-0.461,0.908,0.129
23.235,-0.461,0.910,0.123
23.245,-0.461,0.912,0.127
23.255,-0.463,0.914,0.125
23.265,-0.465,0.912,0.129
23.275,-0.463,0.910,0.125
23.285,-0.465,0.908,0.127
23.295,-0.467,0.908,0.123
23.305,-0.465,0.910,0.125
23.314,-0.463,0.908,0.127
23.324,-0.465,0.910,0.123
23.334,-0.463,0.906,0.125
23.344,-0.465,0.906,0.127
23.354,-0.465,0.910,0.123
23.364,-0.461,0.906,0.129
23.374,-0.463,0.910,0.127
23.384,-0.461,0.908,0.125
23.394,-0.463,0.912,0.127
23.404,-0.461,0.910,0.129
23.414,-0.459,0.910,0.129
23.424,-0.465,0.910,0.125
23.434,-0.463,0.906,0.131
23.444,-0.465,0.906,0.123
23.454,-0.465,0.910,0.127
23.463,-0.463,0.908,0.127
23.473,-0.463,0.912,0.129
23.483,-0.459,0.906,0.125
23.493,-0.461,0.902,0.127
23.503,-0.461,0.908,0.123
23.513,-0.465,0.910,0.125
23.523,-0.461,0.910,0.129
23.533,-0.461,0.912,0.129
23.543,-0.459,0.912,0.129
23.553,-0.461,0.912,0.125
23.563,-0.459,0.910,0.127
23.573,-0.457,0.908,0.127
23.583,-0.461,0.910,0.129
23.593,-0.457,0.908,0.127
23.603,-0.457,0.908,0.127
23.612,-0.455,0.910,0.127
23.622,-0.457,0.908,0.129
23.632,-0.457,0.912,0.129
23.642,-0.461,0.910,0.127
23.652,-0.457,0.912,0.129
23.662,-0.459,0.912,0.125
23.672,-0.457,0.910,0.127
23.682,-0.457,0.910,0.129
23.692,-0.457,0.908,0.127
23.702,-0.459,0.908,0.125
23.712,-0.461,0.908,0.127
23.722,-0.461,0.910,0.127
23.732,-0.461,0.906,0.125
23.742,-0.463,0.912,0.125
23.752,-0.459,0.912,0.127
23.761,-0.461,0.912,0.127
23.771,-0.461,0.912,0.127
23.781,-0.461,0.910,0.125
23.791,-0.461,0.910,0.127
23.801,-0.463,0.908,0.129
23.811,-0.461,0.908,0.123
23.821,-0.459,0.910,0.129
23.831,-0.457,0.904,0.129
23.841,-0.457,0.908,0.129
23.851,-0.463,0.910,0.127
23.861,-0.461,0.914,0.129
23.871,-0.463,0.910,0.133
23.881,-0.465,0.906,0.125
23.891,-0.469,0.908,0.129
23.901,-0.467,0.910,0.129
23.910,-0.467,0.910,0.129
23.920,-0.467,0.908,0.127
23.930,-0.467,0.906,0.129
23.940,-0.463,0.906,0.127
23.950,-0.463,0.906,0.127
23.960,-0.467,0.906,0.125
23.970,-0.463,0.908,0.123
23.980,-0.465,0.908,0.129
23.990,-0.467,0.908,0.129
24.000,-0.463,0.908,0.129
24.010,-0.463,0.908,0.129
24.020,-0.461,0.906,0.131
24.030,-0.463,0.908,0.129
24.040,-0.463,0.910,0.131
24.050,-0.465,0.908,0.127
24.059,-0.465,0.908,0.127
24.069,-0.467,0.910,0.127
24.079,-0.465,0.908,0.129
24.089,-0.465,0.914,0.125
24.099,-0.463,0.906,0.127
24.109,-0.461,0.904,0.127
24.119,-0.459,0.908,0.127
24.129,-0.465,0.912,0.127
24.139,-0.461,0.912,0.125
24.149,-0.461,0.914,0.127
24.159,-0.461,0.914,0.129
24.169,-0.457,0.914,0.125
24.179,-0.459,0.910,0.127
24.189,-0.463,0.912,0.129
24.199,-0.463,0.910,0.127
24.208,-0.457,0.908,0.129
24.218,-0.461,0.908,0.129
24.228,-0.461,0.908,0.127
24.238,-0.463,0.910,0.127
24.248,-0.459,0.914,0.125
24.258,-0.461,0.910,0.129
24.268,-0.459,0.908,0.127
24.278,-0.461,0.910,0.127
24.288,-0.461,0.910,0.129
24.298,-0.459,0.910,0.129
24.308,-0.459,0.908,0.125
24.318,-0.463,0.908,0.127
24.328,-0.461,0.906,0.127
24.338,-0.463,0.908,0.127
24.348,-0.465,0.910,0.127
24.357,-0.463,0.910,0.127
24.367,-0.463,0.908,0.123
24.377,-0.463,0.910,0.127
24.387,-0.465,0.908,0.125
24.397,-0.465,0.912,0.129
24.407,-0.465,0.908,0.125
24.417,-0.465,0.910,0.127
24.427,-0.465,0.906,0.125
24.437,-0.467,0.910,0.129
24.447,-0.463,0.908,0.129
24.457,-0.461,0.906,0.129
24.467,-0.461,0.904,0.125
24.477,-0.461,0.906,0.129
24.487,-0.463,0.908,0.127
24.497,-0.461,0.910,0.125
24.506,-0.465,0.908,0.127
24.516,-0.465,0.910,0.125
24.526,-0.467,0.910,0.125
24.536,-0.469,0.912,0.127
24.546,-0.467,0.910,0.125
24.556,-0.467,0.910,0.125
24.566,-0.463,0.910,0.123
24.576,-0.465,0.910,0.127
24.586,-0.463,0.908,0.127
24.596,-0.465,0.906,0.127
24.606,-0.459,0.910,0.125
24.616,-0.463,0.908,0.125
24.626,-0.465,0.908,0.127
24.636,-0.463,0.910,0.129
24.646,-0.461,0.912,0.127
24.655,-0.461,0.910,0.127
24.665,-0.463,0.912,0.125
24.675,-0.465,0.908,0.125
24.685,-0.469,0.908,0.127
24.695,-0.465,0.910,0.129
24.705,-0.467,0.908,0.129
24.715,-0.463,0.908,0.127
24.725,-0.461,0.904,0.133
24.735,-0.459,0.904,0.129
24.745,-0.461,0.906,0.123
24.755,-0.465,0.910,0.129
24.765,-0.467,0.908,0.125
24.775,-0.465,0.906,0.123
24.785,-0.469,0.910,0.127
24.795,-0.465,0.912,0.125
24.804,-0.467,0.912,0.125
24.814,-0.465,0.910,0.125
24.824,-0.465,0.906,0.125
24.834,-0.465,0.906,0.125
24.844,-0.461,0.906,0.125
24.854,-0.461,0.908,0.127
24.864,-0.461,0.910,0.131
24.874,-0.459,0.910,0.125
24.884,-0.459,0.910,0.125
24.894,-0.459,0.908,0.125
24.904,-0.461,0.910,0.129
24.914,-0.465,0.910,0.127
24.924,-0.463,0.912,0.123
24.934,-0.463,0.908,0.125
24.944,-0.463,0.910,0.127
24.953,-0.463,0.908,0.127
24.963,-0.463,0.906,0.125
24.973,-0.461,0.906,0.125
24.983,-0.465,0.906,0.129
24.993,-0.459,0.908,0.125
25.003,-0.461,0.908,0.127
25.013,-0.465,0.910,0.129
25.023,-0.463,0.908,0.125
25.033,-0.465,0.912,0.127
25.043,-0.465,0.910,0.125
25.053,-0.467,0.910,0.125
25.063,-0.465,0.910,0.125
25.073,-0.469,0.906,0.129
25.083,-0.467,0.908,0.127
25.093,-0.469,0.910,0.125
25.102,-0.465,0.906,0.125
25.112,-0.467,0.904,0.131
25.122,-0.467,0.902,0.129
25.132,-0.465,0.908,0.127
25.142,-0.463,0.910,0.131
25.152,-0.463,0.912,0.125
25.162,-0.465,0.908,0.125
25.172,-0.467,0.908,0.127
25.182,-0.467,0.908,0.125
25.192,-0.469,0.910,0.125
25.202,-0.469,0.904,0.123
25.212,-0.469,0.908,0.125
25.222,-0.471,0.906,0.127
25.232,-0.467,0.902,0.125
25.242,-0.463,0.906,0.125
25.251,-0.463,0.906,0.127
25.261,-0.463,0.904,0.125
25.271,-0.467,0.904,0.127
25.281,-0.467,0.906,0.127
25.291,-0.461,0.912,0.131
25.301,-0.463,0.906,0.127
25.311,-0.467,0.904,0.127
25.321,-0.469,0.904,0.125
25.331,-0.469,0.904,0.127
25.341,-0.473,0.904,0.127
25.351,-0.471,0.906,0.127
25.361,-0.471,0.906,0.125
25.371,-0.469,0.910,0.131
25.381,-0.461,0.902,0.127
25.391,-0.465,0.904,0.127
25.400,-0.463,0.908,0.127
25.410,-0.461,0.908,0.129
25.420,-0.465,0.910,0.129
25.430,-0.459,0.910,0.129
25.440,-0.463,0.912,0.127
25.450,-0.463,0.912,0.127
25.460,-0.459,0.908,0.127
25.470,-0.463,0.910,0.127
25.480,-0.461,0.906,0.125
25.490,-0.463,0.906,0.125
25.500,-0.459,0.908,0.127
25.510,-0.461,0.910,0.129
25.520,-0.463,0.908,0.125
25.530,-0.465,0.908,0.127
25.540,-0.463,0.912,0.125
25.549,-0.461,0.908,0.123
25.559,-0.465,0.910,0.127
25.569,-0.461,0.908,0.125
25.579,-0.465,0.906,0.123
25.589,-0.463,0.904,0.127
25.599,-0.463,0.908,0.123
25.609,-0.465,0.910,0.123
25.619,-0.465,0.908,0.125
25.629,-0.463,0.908,0.123
25.639,-0.467,0.908,0.123
25.649,-0.467,0.910,0.127
25.659,-0.467,0.906,0.125
25.669,-0.467,0.904,0.127
25.679,-0.465,0.908,0.123
25.689,-0.467,0.906,0.125
25.698,-0.467,0.908,0.125
25.708,-0.467,0.908,0.125
25.718,-0.467,0.906,0.123
25.728,-0.467,0.906,0.129
25.738,-0.469,0.906,0.123
25.748,-0.465,0.908,0.127
25.758,-0.465,0.904,0.127
25.768,-0.463,0.902,0.127
25.778,-0.467,0.904,0.127
25.788,-0.465,0.908,0.127
25.798,-0.467,0.910,0.127
25.808,-0.465,0.906,0.127
25.818,-0.469,0.908,0.129
25.828,-0.467,0.910,0.125
25.838,-0.471,0.910,0.125
25.847,-0.471,0.908,0.127
25.857,-0.469,0.908,0.127
25.867,-0.467,0.908,0.127
25.877,-0.471,0.908,0.125
25.887,-0.467,0.906,0.127
25.897,-0.465,0.908,0.129
25.907,-0.465,0.906,0.127
25.917,-0.465,0.908,0.127
25.927,-0.467,0.906,0.125
25.937,-0.465,0.910,0.127
25.947,-0.469,0.904,0.125
25.957,-0.467,0.908,0.127
25.967,-0.467,0.904,0.131
25.977,-0.467,0.908,0.127
25.987,-0.469,0.908,0.127
25.996,-0.469,0.902,0.125
26.006,-0.467,0.904,0.127
26.016,-0.467,0.910,0.129
26.026,-0.465,0.906,0.127
26.036,-0.465,0.902,0.127
26.046,-0.463,0.906,0.127
26.056,-0.467,0.910,0.127
26.066,-0.467,0.906,0.127
26.076,-0.465,0.908,0.127
26.086,-0.463,0.912,0.127
26.096,-0.465,0.912,0.127
26.106,-0.465,0.910,0.129
26.116,-0.463,0.908,0.125
26.126,-0.461,0.908,0.127
26.136,-0.459,0.908,0.127
26.145,-0.461,0.910,0.127
26.155,-0.463,0.910,0.127
26.165,-0.459,0.908,0.127
26.175,-0.463,0.910,0.129
26.185,-0.459,0.910,0.127
26.195,-0.461,0.908,0.125
26.205,-0.465,0.910,0.125
26.215,-0.463,0.906,0.127
26.225,-0.463,0.906,0.125
26.235,-0.463,0.908,0.127
26.245,-0.465,0.912,0.127
26.255,-0.463,0.910,0.129
26.265,-0.463,0.912,0.127
26.275,-0.465,0.908,0.123
26.285,-0.465,0.912,0.125
26.294,-0.463,0.912,0.123
26.304,-0.465,0.912,0.125
26.314,-0.467,0.908,0.125
26.324,-0.465,0.910,0.125
26.334,-0.465,0.910,0.125
26.344,-0.469,0.910,0.127
26.354,-0.467,0.910,0.129
26.364,-0.465,0.910,0.125
26.374,-0.463,0.910,0.131
26.384,-0.463,0.906,0.127
26.394,-0.461,0.902,0.129
26.404,-0.461,0.910,0.127
26.414,-0.465,0.910,0.131
26.424,-0.463,0.908,0.131
26.434,-0.465,0.908,0.127
26.443,-0.467,0.910,0.125
26.453,-0.467,0.912,0.125
26.463,-0.469,0.910,0.123
26.473,-0.467,0.908,0.123
26.483,-0.467,0.912,0.125
26.493,-0.465,0.910,0.125
26.503,-0.465,0.912,0.127
26.513,-0.463,0.908,0.129
26.523,-0.461,0.908,0.129
26.533,-0.461,0.902,0.127
26.543,-0.465,0.906,0.129
26.553,-0.467,0.908,0.127
26.563,-0.467,0.908,0.133
26.573,-0.467,0.908,0.129
26.583,-0.467,0.908,0.133
26.592,-0.469,0.908,0.133
26.602,-0.467,0.908,0.133
26.612,-0.469,0.902,0.135
26.622,-0.467,0.904,0.131
26.632,-0.465,0.906,0.131
26.642,-0.463,0.906,0.133
26.652,-0.463,0.902,0.131
26.662,-0.461,0.906,0.131
26.672,-0.465,0.910,0.133
26.682,-0.465,0.908,0.133
26.692,-0.461,0.912,0.131
26.702,-0.463,0.912,0.135
26.712,-0.463,0.910,0.133
26.722,-0.457,0.912,0.133
26.732,-0.459,0.908,0.135
26.741,-0.461,0.910,0.133
26.751,-0.463,0.908,0.137
26.761,-0.463,0.908,0.133
26.771,-0.461,0.910,0.137
26.781,-0.463,0.908,0.135
26.791,-0.461,0.912,0.137
26.801,-0.461,0.912,0.133
26.811,-0.463,0.908,0.137
26.821,-0.461,0.908,0.133
26.831,-0.465,0.910,0.133
26.841,-0.463,0.910,0.135
26.851,-0.467,0.914,0.131
26.861,-0.469,0.908,0.137
26.871,-0.467,0.908,0.129
26.881,-0.463,0.908,0.129
26.890,-0.465,0.908,0.131
26.900,-0.467,0.906,0.131
26.910,-0.465,0.908,0.131
26.920,-0.465,0.914,0.133
26.930,-0.465,0.908,0.133
26.940,-0.467,0.910,0.133
26.950,-0.465,0.910,0.131
26.960,-0.465,0.906,0.135
26.970,-0.463,0.906,0.135
26.980,-0.459,0.906,0.135
26.990,-0.457,0.902,0.133
27.000,-0.459,0.906,0.131
27.010,-0.457,0.906,0.131
27.020,-0.457,0.910,0.135
27.030,-0.459,0.914,0.135
27.039,-0.463,0.914,0.131
27.049,-0.461,0.910,0.131
27.059,-0.467,0.910,0.133
27.069,-0.467,0.908,0.131
27.079,-0.463,0.906,0.135
27.089,-0.461,0.906,0.133
27.099,-0.461,0.910,0.131
27.109,-0.463,0.908,0.135
27.119,-0.461,0.906,0.133
27.129,-0.461,0.908,0.135
27.139,-0.463,0.908,0.139
27.149,-0.463,0.906,0.137
27.159,-0.461,0.908,0.137
27.169,-0.465,0.908,0.133
27.179,-0.461,0.906,0.133
27.188,-0.463,0.908,0.135
27.198,-0.461,0.908,0.137
27.208,-0.465,0.910,0.137
27.218,-0.467,0.904,0.137
27.228,-0.461,0.908,0.133
27.238,-0.463,0.912,0.139
27.248,-0.459,0.910,0.135
27.258,-0.461,0.908,0.139
27.268,-0.457,0.910,0.135
27.278,-0.461,0.908,0.135
27.288,-0.457,0.908,0.135
27.298,-0.459,0.912,0.133
27.308,-0.459,0.912,0.139
27.318,-0.455,0.914,0.135
27.328,-0.461,0.912,0.135
27.337,-0.459,0.908,0.133
27.347,-0.457,0.908,0.139
27.357,-0.457,0.908,0.137
27.367,-0.455,0.904,0.135
27.377,-0.457,0.908,0.135
27.387,-0.455,0.908,0.135
27.397,-0.455,0.912,0.137
27.407,-0.457,0.910,0.135
27.417,-0.459,0.910,0.135
27.427,-0.461,0.908,0.133
27.437,-0.459,0.908,0.133
27.447,-0.465,0.908,0.129
27.457,-0.465,0.910,0.131
27.467,-0.467,0.912,0.135
27.477,-0.467,0.910,0.133
27.486,-0.467,0.908,0.129
27.496,-0.467,0.910,0.131
27.506,-0.465,0.910,0.131
27.516,-0.465,0.906,0.135
27.526,-0.465,0.908,0.133
27.536,-0.467,0.906,0.133
27.546,-0.469,0.910,0.131
27.556,-0.467,0.906,0.135
27.566,-0.463,0.908,0.133
27.576,-0.461,0.904,0.133
27.586,-0.461,0.906,0.135
27.596,-0.463,0.906,0.135
27.606,-0.465,0.912,0.137
27.616,-0.465,0.912,0.133
27.626,-0.467,0.910,0.131
27.635,-0.469,0.908,0.133
27.645,-0.473,0.910,0.131
27.655,-0.469,0.910,0.133
27.665,-0.469,0.910,0.131
27.675,-0.467,0.904,0.133
27.685,-0.469,0.906,0.131
27.695,-0.469,0.910,0.131
27.705,-0.469,0.906,0.133
27.715,-0.465,0.908,0.133
27.725,-0.463,0.906,0.131
27.735,-0.469,0.906,0.133
27.745,-0.467,0.910,0.133
27.755,-0.465,0.908,0.135
27.765,-0.465,0.906,0.135
27.775,-0.467,0.906,0.133
27.784,-0.467,0.906,0.131
27.794,-0.467,0.908,0.131
27.804,-0.471,0.904,0.129
27.814,-0.465,0.906,0.131
27.824,-0.467,0.908,0.133
27.834,-0.465,0.906,0.135
27.844,-0.463,0.906,0.131
27.854,-0.459,0.906,0.131
27.864,-0.465,0.906,0.131
27.874,-0.465,0.912,0.129
27.884,-0.463,0.910,0.127
27.894,-0.461,0.912,0.131
27.904,-0.465,0.914,0.133
27.914,-0.463,0.912,0.131
27.924,-0.461,0.912,0.127
27.933,-0.461,0.912,0.127
27.943,-0.461,0.906,0.129
27.953,-0.461,0.908,0.131
27.963,-0.457,0.910,0.127
27.973,-0.457,0.910,0.127
27.983,-0.457,0.912,0.129
27.993,-0.457,0.910,0.127
28.003,-0.457,0.912,0.127
28.013,-0.459,0.914,0.127
28.023,-0.463,0.910,0.129
28.033,-0.463,0.912,0.129
28.043,-0.461,0.910,0.127
28.053,-0.461,0.906,0.127
28.063,-0.463,0.906,0.127
28.073,-0.461,0.910,0.129
28.082,-0.463,0.910,0.127
28.092,-0.461,0.908,0.127
28.102,-0.463,0.908,0.125
28.112,-0.463,0.910,0.125
28.122,-0.463,0.910,0.127
28.132,-0.461,0.910,0.127
28.142,-0.463,0.906,0.125
28.152,-0.463,0.910,0.125
28.162,-0.465,0.910,0.131
28.172,-0.461,0.914,0.131
28.182,-0.465,0.910,0.129
28.192,-0.467,0.910,0.131
28.202,-0.463,0.908,0.129
28.212,-0.467,0.910,0.125
28.222,-0.463,0.910,0.129
28.231,-0.465,0.910,0.129
28.241,-0.465,0.908,0.131
28.251,-0.463,0.908,0.127
28.261,-0.465,0.906,0.131
28.271,-0.465,0.904,0.131
28.281,-0.463,0.908,0.131
28.291,-0.465,0.908,0.131
28.301,-0.465,0.908,0.133
28.311,-0.461,0.908,0.129
28.321,-0.467,0.906,0.135
28.331,-0.465,0.908,0.133
28.341,-0.465,0.908,0.135
28.351,-0.467,0.906,0.131
28.361,-0.469,0.908,0.131
28.371,-0.467,0.904,0.133
28.380,-0.465,0.908,0.131
28.390,-0.463,0.908,0.131
28.400,-0.463,0.906,0.133
28.410,-0.461,0.906,0.133
28.420,-0.461,0.910,0.133
28.430,-0.461,0.910,0.133
28.440,-0.463,0.916,0.135
28.450,-0.463,0.912,0.135
28.460,-0.461,0.912,0.135
28.470,-0.459,0.912,0.133
28.480,-0.457,0.908,0.133
28.490,-0.459,0.908,0.135
28.500,-0.461,0.906,0.133
28.510,-0.461,0.908,0.131
28.520,-0.463,0.908,0.135
28.529,-0.463,0.906,0.133
28.539,-0.461,0.910,0.135
28.549,-0.463,0.910,0.135
28.559,-0.465,0.908,0.135
28.569,-0.461,0.908,0.133
28.579,-0.461,0.908,0.131
28.589,-0.459,0.908,0.135
28.599,-0.465,0.910,0.133
28.609,-0.463,0.908,0.133
28.619,-0.461,0.908,0.135
28.629,-0.461,0.906,0.133
28.639,-0.461,0.914,0.129
28.649,-0.461,0.912,0.131
28.659,-0.463,0.910,0.133
28.669,-0.461,0.910,0.131
28.678,-0.457,0.908,0.131
28.688,-0.459,0.908,0.131
28.698,-0.461,0.908,0.131
28.708,-0.459,0.912,0.133
28.718,-0.461,0.912,0.131
28.728,-0.463,0.912,0.131
28.738,-0.465,0.910,0.127
28.748,-0.467,0.912,0.131
28.758,-0.467,0.910,0.133
28.768,-0.465,0.910,0.131
28.778,-0.465,0.910,0.131
28.788,-0.465,0.906,0.133
28.798,-0.463,0.908,0.135
28.808,-0.463,0.908,0.133
28.818,-0.461,0.904,0.135
28.827,-0.461,0.908,0.133
28.837,-0.461,0.904,0.133
28.847,-0.461,0.910,0.133
28.857,-0.459,0.910,0.135
28.867,-0.459,0.912,0.133
28.877,-0.461,0.908,0.133
28.887,-0.463,0.910,0.137
28.897,-0.463,0.912,0.133
28.907,-0.465,0.906,0.135
28.917,-0.461,0.906,0.135
28.927,-0.461,0.910,0.133
28.937,-0.461,0.910,0.135
28.947,-0.465,0.906,0.135
28.957,-0.461,0.910,0.131
28.967,-0.461,0.910,0.137
28.976,-0.465,0.910,0.135
28.986,-0.465,0.912,0.135
28.996,-0.461,0.914,0.135
29.006,-0.461,0.910,0.131
29.016,-0.463,0.912,0.137
29.026,-0.461,0.910,0.135
29.036,-0.459,0.908,0.135
29.046,-0.459,0.908,0.135
29.056,-0.457,0.908,0.139
29.066,-0.453,0.908,0.135
29.076,-0.453,0.908,0.135
29.086,-0.459,0.910,0.135
29.096,-0.463,0.910,0.135
29.106,-0.465,0.914,0.135
29.116,-0.461,0.910,0.131
29.125,-0.465,0.910,0.129
29.135,-0.465,0.908,0.131
29.145,-0.463,0.908,0.131
29.155,-0.465,0.910,0.133
29.165,-0.459,0.908,0.129
29.175,-0.461,0.910,0.133
29.185,-0.459,0.910,0.131
29.195,-0.459,0.910,0.131
29.205,-0.461,0.912,0.131
29.215,-0.455,0.912,0.131
29.225,-0.457,0.910,0.131
29.235,-0.459,0.908,0.133
29.245,-0.459,0.910,0.133
29.255,-0.461,0.914,0.135
29.265,-0.459,0.914,0.135
29.274,-0.463,0.912,0.133
29.284,-0.463,0.910,0.133
29.294,-0.465,0.910,0.135
29.304,-0.465,0.908,0.133
29.314,-0.463,0.906,0.133
29.324,-0.465,0.908,0.133
29.334,-0.463,0.910,0.135
29.344,-0.465,0.904,0.137
29.354,-0.465,0.908,0.133
29.364,-0.459,0.910,0.137
29.374,-0.463,0.906,0.135
29.384,-0.463,0.910,0.135
29.394,-0.459,0.908,0.137
29.404,-0.459,0.912,0.133
29.414,-0.463,0.910,0.135
29.423,-0.463,0.912,0.137
29.433,-0.461,0.912,0.137
29.443,-0.461,0.910,0.133
29.453,-0.461,0.912,0.133
29.463,-0.455,0.910,0.135
29.473,-0.461,0.914,0.135
29.483,-0.455,0.908,0.133
29.493,-0.457,0.904,0.135
29.503,-0.459,0.908,0.137
29.513,-0.461,0.910,0.137
29.523,-0.461,0.912,0.133
29.533,-0.461,0.918,0.135
29.543,-0.461,0.914,0.133
29.553,-0.459,0.912,0.135
29.563,-0.457,0.910,0.135
29.572,-0.461,0.908,0.133
29.582,-0.457,0.910,0.131
29.592,-0.457,0.910,0.131
29.602,-0.457,0.914,0.137
29.612,-0.453,0.912,0.135
29.622,-0.453,0.912,0.135
29.632,-0.453,0.912,0.135
29.642,-0.457,0.910,0.135
29.652,-0.461,0.912,0.135
29.662,-0.457,0.910,0.135
29.672,-0.459,0.910,0.131
29.682,-0.459,0.910,0.131
29.692,-0.459,0.910,0.131
29.702,-0.461,0.908,0.135
29.712,-0.457,0.912,0.135
29.721,-0.461,0.908,0.133
29.731,-0.459,0.910,0.131
29.741,-0.463,0.910,0.131
29.751,-0.461,0.914,0.133
29.761,-0.457,0.912,0.135
29.771,-0.457,0.908,0.133
29.781,-0.459,0.908,0.135
29.791,-0.459,0.910,0.133
29.801,-0.459,0.912,0.135
29.811,-0.461,0.914,0.133
29.821,-0.465,0.912,0.133
29.831,-0.465,0.908,0.133
29.841,-0.469,0.910,0.133
29.851,-0.467,0.908,0.133
29.861,-0.467,0.908,0.135
29.870,-0.465,0.908,0.137
29.880,-0.463,0.904,0.131
29.890,-0.463,0.906,0.135
29.900,-0.461,0.906,0.135
29.910,-0.463,0.908,0.133
29.920,-0.461,0.908,0.133
29.930,-0.461,0.908,0.133
29.940,-0.465,0.910,0.135
29.950,-0.459,0.908,0.137
29.960,-0.461,0.910,0.137
29.970,-0.459,0.908,0.133
29.980,-0.461,0.906,0.135
29.990,-0.467,0.910,0.131
30.000,-0.465,0.904,0.133
30.010,-0.461,0.910,0.133
30.019,-0.461,0.914,0.133
30.029,-0.461,0.912,0.137
30.039,-0.457,0.908,0.133
30.049,-0.461,0.906,0.135
30.059,-0.461,0.910,0.133
30.069,-0.461,0.910,0.133
30.079,-0.461,0.914,0.137
30.089,-0.457,0.914,0.135
30.099,-0.459,0.912,0.133
30.109,-0.459,0.910,0.137
30.119,-0.459,0.912,0.133
30.129,-0.459,0.910,0.135
30.139,-0.459,0.912,0.135
30.149,-0.457,0.908,0.133
30.159,-0.459,0.910,0.133
30.168,-0.457,0.912,0.131
30.178,-0.455,0.912,0.137
30.188,-0.459,0.908,0.133
30.198,-0.457,0.910,0.133
30.208,-0.455,0.912,0.133
30.218,-0.457,0.906,0.135
30.228,-0.455,0.910,0.129
30.238,-0.459,0.910,0.133
30.248,-0.457,0.912,0.131
30.258,-0.461,0.914,0.129
30.268,-0.459,0.910,0.131
30.278,-0.457,0.908,0.129
30.288,-0.457,0.910,0.133
30.298,-0.455,0.912,0.135
30.308,-0.459,0.914,0.131
30.317,-0.459,0.914,0.129
30.327,-0.461,0.914,0.133
30.337,-0.461,0.912,0.131
30.347,-0.461,0.912,0.131
30.357,-0.461,0.910,0.133
30.367,-0.461,0.904,0.131
30.377,-0.463,0.904,0.133
30.387,-0.463,0.910,0.131
30.397,-0.465,0.912,0.129
30.407,-0.469,0.910,0.127
30.417,-0.471,0.904,0.127
30.427,-0.471,0.908,0.129
30.437,-0.473,0.908,0.129
30.447,-0.467,0.908,0.131
30.457,-0.463,0.908,0.129
30.466,-0.465,0.908,0.129
30.476,-0.467,0.910,0.133
30.486,-0.469,0.908,0.129
30.496,-0.469,0.910,0.129
30.506,-0.467,0.908,0.133
30.516,-0.467,0.908,0.131
30.526,-0.467,0.906,0.133
30.536,-0.467,0.908,0.129
30.546,-0.463,0.908,0.133
30.556,-0.463,0.908,0.137
30.566,-0.463,0.904,0.135
30.576,-0.467,0.908,0.133
30.586,-0.471,0.904,0.135
30.596,-0.469,0.904,0.133
30.606,-0.471,0.908,0.135
30.615,-0.469,0.908,0.133
30.625,-0.467,0.902,0.131
30.635,-0.467,0.906,0.133
30.645,-0.469,0.908,0.135
30.655,-0.471,0.908,0.137
30.665,-0.471,0.908,0.133
30.675,-0.467,0.910,0.135
30.685,-0.469,0.908,0.135
30.695,-0.469,0.910,0.137
30.705,-0.465,0.906,0.135
30.715,-0.469,0.902,0.133
30.725,-0.467,0.904,0.133
30.735,-0.469,0.908,0.135
30.745,-0.463,0.906,0.133
30.755,-0.465,0.906,0.133
30.764,-0.467,0.910,0.133
30.774,-0.465,0.910,0.135
30.784,-0.463,0.906,0.135
30.794,-0.463,0.908,0.129
30.804,-0.461,0.910,0.133
30.814,-0.463,0.906,0.131
30.824,-0.463,0.910,0.135
30.834,-0.465,0.910,0.131
30.844,-0.465,0.908,0.129
30.854,-0.467,0.910,0.131
30.864,-0.465,0.910,0.131
30.874,-0.465,0.908,0.127
30.884,-0.463,0.908,0.131
30.894,-0.469,0.912,0.133
30.904,-0.467,0.908,0.129
30.913,-0.467,0.906,0.131
30.923,-0.465,0.910,0.133
30.933,-0.465,0.908,0.133
30.943,-0.463,0.906,0.135
30.953,-0.463,0.908,0.135
30.963,-0.465,0.906,0.137
30.973,-0.459,0.904,0.135
30.983,-0.461,0.904,0.137
30.993,-0.457,0.902,0.139
31.003,-0.461,0.902,0.133
31.013,-0.465,0.908,0.133
31.023,-0.463,0.910,0.133
31.033,-0.469,0.914,0.133
31.043,-0.467,0.908,0.131
31.053,-0.471,0.908,0.125
31.062,-0.477,0.908,0.125
31.072,-0.475,0.910,0.125
31.082,-0.475,0.910,0.123
31.092,-0.473,0.906,0.125
31.102,-0.473,0.908,0.127
31.112,-0.469,0.908,0.125
31.122,-0.467,0.906,0.123
31.132,-0.469,0.902,0.127
31.142,-0.469,0.896,0.123
31.152,-0.473,0.898,0.123
31.162,-0.479,0.902,0.123
31.172,-0.477,0.904,0.125
31.182,-0.477,0.904,0.127
31.192,-0.475,0.904,0.129
31.202,-0.473,0.906,0.131
31.211,-0.473,0.906,0.131
31.221,-0.469,0.908,0.129
31.231,-0.463,0.908,0.131
31.241,-0.467,0.908,0.127
31.251,-0.471,0.904,0.125
31.261,-0.467,0.904,0.127
31.271,-0.465,0.904,0.125
31.281,-0.463,0.914,0.125
31.291,-0.463,0.918,0.127
31.301,-0.463,0.918,0.125
31.311,-0.459,0.916,0.125
31.321,-0.461,0.916,0.127
31.331,-0.455,0.914,0.127
31.341,-0.457,0.914,0.127
31.351,-0.459,0.912,0.125
31.360,-0.461,0.914,0.125
31.370,-0.463,0.910,0.121
31.380,-0.457,0.912,0.123
31.390,-0.461,0.908,0.121
31.400,-0.463,0.912,0.127
31.410,-0.465,0.910,0.123
31.420,-0.467,0.906,0.121
31.430,-0.467,0.910,0.123
31.440,-0.465,0.908,0.119
31.450,-0.469,0.910,0.121
31.460,-0.463,0.914,0.123
31.470,-0.463,0.908,0.121
31.480,-0.465,0.910,0.119
31.490,-0.459,0.914,0.123
31.500,-0.457,0.910,0.123
31.509,-0.459,0.914,0.125
31.519,-0.459,0.914,0.125
31.529,-0.457,0.914,0.123
31.539,-0.457,0.910,0.121
31.549,-0.457,0.910,0.123
31.559,-0.459,0.912,0.123
31.569,-0.463,0.910,0.121
31.579,-0.463,0.910,0.123
31.589,-0.465,0.914,0.121
31.599,-0.463,0.914,0.121
31.609,-0.463,0.914,0.121
31.619,-0.465,0.910,0.121
31.629,-0.463,0.910,0.125
31.639,-0.465,0.908,0.121
31.649,-0.465,0.908,0.125
31.658,-0.467,0.908,0.125
31.668,-0.467,0.908,0.125
31.678,-0.465,0.910,0.127
31.688,-0.461,0.904,0.131
31.698,-0.459,0.902,0.125
31.708,-0.461,0.910,0.129
31.718,-0.461,0.910,0.127
31.728,-0.461,0.910,0.127
31.738,-0.463,0.908,0.127
31.748,-0.463,0.906,0.123
31.758,-0.465,0.910,0.125
31.768,-0.467,0.910,0.127
31.778,-0.469,0.910,0.123
31.788,-0.467,0.910,0.121
31.797,-0.467,0.912,0.123
31.807,-0.469,0.912,0.125
31.817,-0.465,0.908,0.125
31.827,-0.465,0.906,0.123
31.837,-0.467,0.908,0.121
31.847,-0.463,0.910,0.127
31.857,-0.461,0.910,0.125
31.867,-0.461,0.912,0.127
31.877,-0.459,0.912,0.127
31.887,-0.461,0.908,0.127
31.897,-0.465,0.908,0.127
31.907,-0.463,0.910,0.127
31.917,-0.467,0.910,0.129
31.927,-0.463,0.904,0.125
31.937,-0.465,0.910,0.125
31.946,-0.465,0.910,0.129
31.956,-0.463,0.908,0.125
31.966,-0.465,0.906,0.125
31.976,-0.467,0.912,0.125
31.986,-0.465,0.910,0.127
31.996,-0.463,0.912,0.125
32.006,-0.463,0.914,0.125
32.016,-0.459,0.912,0.127
32.026,-0.461,0.910,0.127
32.036,-0.461,0.910,0.129
32.046,-0.459,0.912,0.127
32.056,-0.463,0.906,0.127
32.066,-0.459,0.906,0.127
32.076,-0.461,0.908,0.127
32.086,-0.461,0.908,0.125
32.095,-0.459,0.910,0.129
32.105,-0.461,0.910,0.127
32.115,-0.461,0.910,0.123
32.125,-0.461,0.908,0.127
32.135,-0.463,0.908,0.129
32.145,-0.463,0.908,0.125
32.155,-0.463,0.912,0.125
32.165,-0.465,0.908,0.125
32.175,-0.465,0.910,0.123
32.185,-0.463,0.910,0.127
32.195,-0.463,0.910,0.127
32.205,-0.463,0.908,0.123
32.215,-0.461,0.908,0.127
32.225,-0.463,0.910,0.123
32.235,-0.465,0.908,0.121
32.244,-0.461,0.910,0.125
32.254,-0.463,0.910,0.123
32.264,-0.465,0.914,0.121
32.274,-0.463,0.910,0.117
32.284,-0.463,0.912,0.121
32.294,-0.467,0.912,0.125
32.304,-0.463,0.914,0.123
32.314,-0.467,0.910,0.127
32.324,-0.467,0.908,0.123
32.334,-0.463,0.906,0.125
32.344,-0.463,0.908,0.127
32.354,-0.465,0.910,0.127
32.364,-0.461,0.906,0.125
32.374,-0.465,0.904,0.125
32.384,-0.467,0.902,0.125
32.393,-0.463,0.910,0.127
32.403,-0.463,0.912,0.129
32.413,-0.463,0.910,0.127
32.423,-0.463,0.908,0.129
32.433,-0.461,0.910,0.127
32.443,-0.463,0.910,0.123
32.453,-0.467,0.908,0.125
32.463,-0.463,0.910,0.125
32.473,-0.463,0.910,0.123
32.483,-0.463,0.912,0.127
32.493,-0.463,0.910,0.125
32.503,-0.461,0.908,0.125
32.513,-0.461,0.910,0.125
32.523,-0.461,0.906,0.129
32.533,-0.463,0.908,0.125
32.542,-0.461,0.912,0.127
32.552,-0.461,0.910,0.127
32.562,-0.461,0.914,0.127
32.572,-0.463,0.912,0.127
32.582,-0.461,0.910,0.125
32.592,-0.461,0.910,0.129
32.602,-0.469,0.906,0.127
32.612,-0.461,0.908,0.125
32.622,-0.463,0.912,0.125
32.632,-0.463,0.912,0.129
32.642,-0.463,0.906,0.125
32.652,-0.463,0.904,0.127
32.662,-0.465,0.912,0.125
32.672,-0.467,0.912,0.125
32.682,-0.465,0.910,0.127
32.691,-0.465,0.910,0.127
32.701,-0.461,0.912,0.125
32.711,-0.463,0.912,0.125
32.721,-0.461,0.910,0.125
32.731,-0.463,0.910,0.127
32.741,-0.463,0.908,0.125
32.751,-0.463,0.908,0.127
32.761,-0.459,0.904,0.127
32.771,-0.457,0.910,0.125
32.781,-0.459,0.910,0.133
32.791,-0.459,0.910,0.131
32.801,-0.457,0.910,0.125
32.811,-0.461,0.908,0.123
32.821,-0.463,0.906,0.125
32.831,-0.465,0.912,0.125
32.840,-0.463,0.910,0.121
32.850,-0.467,0.908,0.125
32.860,-0.463,0.910,0.123
32.870,-0.465,0.910,0.127
32.880,-0.463,0.908,0.125
32.890,-0.459,0.910,0.125
32.900,-0.457,0.912,0.123
32.910,-0.461,0.910,0.123
32.920,-0.463,0.910,0.125
32.930,-0.463,0.910,0.125
32.940,-0.463,0.910,0.123
32.950,-0.465,0.910,0.123
32.960,-0.463,0.908,0.123
32.970,-0.467,0.912,0.125
32.980,-0.467,0.910,0.125
32.989,-0.461,0.910,0.125
32.999,-0.465,0.908,0.125
33.009,-0.469,0.908,0.125
33.019,-0.463,0.912,0.129
33.029,-0.461,0.910,0.133
33.039,-0.461,0.906,0.133
33.049,-0.463,0.906,0.133
33.059,-0.461,0.904,0.133
33.069,-0.463,0.910,0.133
33.079,-0.461,0.912,0.131
33.089,-0.463,0.912,0.133
33.099,-0.469,0.910,0.131
33.109,-0.465,0.910,0.129
33.119,-0.469,0.906,0.129
33.129,-0.471,0.908,0.129
33.138,-0.469,0.908,0.123
33.148,-0.471,0.910,0.131
33.158,-0.469,0.906,0.131
33.168,-0.467,0.902,0.131
33.178,-0.467,0.908,0.133
33.188,-0.465,0.906,0.133
33.198,-0.465,0.908,0.133
33.208,-0.469,0.908,0.135
33.218,-0.467,0.910,0.131
33.228,-0.469,0.908,0.131
33.238,-0.471,0.908,0.135
33.248,-0.469,0.908,0.131
33.258,-0.473,0.906,0.129
33.268,-0.471,0.904,0.127
33.278,-0.465,0.902,0.127
33.287,-0.467,0.908,0.129
33.297,-0.467,0.912,0.133
33.307,-0.467,0.908,0.129
33.317,-0.465,0.908,0.127
33.327,-0.467,0.910,0.129
33.337,-0.465,0.910,0.133
33.347,-0.465,0.916,0.127
33.357,-0.467,0.910,0.129
33.367,-0.467,0.912,0.131
33.377,-0.463,0.910,0.131
33.387,-0.467,0.908,0.131
33.397,-0.465,0.904,0.131
33.407,-0.469,0.904,0.129
33.417,-0.465,0.908,0.129
33.427,-0.469,0.906,0.127
33.436,-0.465,0.906,0.127
33.446,-0.463,0.908,0.125
33.456,-0.461,0.910,0.127
33.466,-0.465,0.908,0.127
33.476,-0.463,0.910,0.123
33.486,-0.461,0.910,0.125
33.496,-0.459,0.912,0.125
33.506,-0.463,0.910,0.125
33.516,-0.461,0.908,0.125
33.526,-0.459,0.910,0.125
33.536,-0.457,0.912,0.123
33.546,-0.457,0.910,0.121
33.556,-0.459,0.910,0.121
33.566,-0.463,0.916,0.121
33.576,-0.463,0.910,0.119
33.585,-0.461,0.914,0.123
33.595,-0.465,0.912,0.125
33.605,-0.463,0.914,0.123
33.615,-0.465,0.916,0.127
33.625,-0.463,0.912,0.123
33.635,-0.459,0.908,0.125
33.645,-0.465,0.910,0.125
33.655,-0.465,0.904,0.123
33.665,-0.463,0.908,0.127
33.675,-0.461,0.908,0.127
33.685,-0.463,0.904,0.125
33.695,-0.461,0.904,0.125
33.705,-0.463,0.908,0.125
33.715,-0.465,0.910,0.131
33.725,-0.463,0.912,0.127
33.734,-0.465,0.910,0.123
33.744,-0.467,0.908,0.125
33.754,-0.467,0.912,0.129
33.764,-0.467,0.910,0.127
33.774,-0.463,0.910,0.129
33.784,-0.465,0.908,0.125
33.794,-0.463,0.910,0.123
33.804,-0.463,0.910,0.127
33.814,-0.463,0.908,0.129
33.824,-0.465,0.906,0.127
33.834,-0.467,0.906,0.129
33.844,-0.467,0.904,0.123
33.854,-0.465,0.906,0.129
33.864,-0.469,0.908,0.125
33.874,-0.467,0.910,0.125
33.883,-0.465,0.906,0.127
33.893,-0.467,0.908,0.125
33.903,-0.469,0.910,0.127
33.913,-0.467,0.912,0.123
33.923,-0.469,0.906,0.125
33.933,-0.467,0.912,0.125
33.943,-0.467,0.914,0.127
33.953,-0.465,0.910,0.123
33.963,-0.465,0.908,0.123
33.973,-0.463,0.910,0.125
33.983,-0.465,0.912,0.125
33.993,-0.465,0.910,0.127
34.003,-0.463,0.912,0.125
34.013,-0.465,0.914,0.129
34.023,-0.461,0.916,0.127
34.032,-0.461,0.910,0.123
34.042,-0.461,0.910,0.125
34.052,-0.461,0.908,0.127
34.062,-0.459,0.910,0.127
34.072,-0.461,0.908,0.127
34.082,-0.461,0.908,0.129
34.092,-0.459,0.908,0.129
34.102,-0.459,0.910,0.127
34.112,-0.459,0.910,0.129
34.122,-0.461,0.910,0.127
34.132,-0.461,0.910,0.127
34.142,-0.463,0.906,0.127
34.152,-0.467,0.908,0.125
34.162,-0.463,0.908,0.127
34.172,-0.465,0.910,0.127
34.181,-0.461,0.912,0.125
34.191,-0.463,0.910,0.123
34.201,-0.463,0.910,0.127
34.211,-0.463,0.912,0.125
34.221,-0.463,0.908,0.127
34.231,-0.463,0.908,0.127
34.241,-0.463,0.908,0.127
34.251,-0.463,0.906,0.123
34.261,-0.465,0.908,0.125
34.271,-0.463,0.906,0.123
34.281,-0.461,0.908,0.127
34.291,-0.463,0.908,0.125
34.301,-0.465,0.908,0.119
34.311,-0.463,0.914,0.123
34.321,-0.467,0.912,0.125
34.330,-0.465,0.910,0.123
34.340,-0.467,0.910,0.125
34.350,-0.467,0.908,0.125
34.360,-0.471,0.910,0.121
34.370,-0.467,0.910,0.125
34.380,-0.463,0.912,0.127
34.390,-0.465,0.910,0.127
34.400,-0.467,0.908,0.125
34.410,-0.469,0.908,0.127
34.420,-0.467,0.904,0.127
34.430,-0.465,0.904,0.123
34.440,-0.467,0.906,0.129
34.450,-0.463,0.910,0.127
34.460,-0.463,0.908,0.129
34.470,-0.463,0.912,0.129
34.479,-0.461,0.912,0.127
34.489,-0.463,0.908,0.125
34.499,-0.459,0.910,0.127
34.509,-0.461,0.910,0.125
34.519,-0.463,0.910,0.127
34.529,-0.463,0.906,0.125
34.539,-0.463,0.916,0.125
34.549,-0.463,0.912,0.127
34.559,-0.459,0.910,0.121
34.569,-0.461,0.910,0.127
34.579,-0.459,0.910,0.125
34.589,-0.461,0.912,0.125
34.599,-0.461,0.914,0.127
34.609,-0.457,0.916,0.125
34.619,-0.457,0.912,0.127
34.628,-0.459,0.910,0.123
34.638,-0.459,0.912,0.127
34.648,-0.461,0.908,0.125
34.658,-0.459,0.912,0.123
34.668,-0.457,0.912,0.125
34.678,-0.455,0.912,0.123
34.688,-0.457,0.910,0.125
34.698,-0.459,0.912,0.125
34.708,-0.457,0.914,0.125
34.718,-0.461,0.914,0.125
34.728,-0.461,0.912,0.121
34.738,-0.457,0.912,0.121
34.748,-0.463,0.912,0.125
34.758,-0.461,0.912,0.123
34.768,-0.455,0.912,0.121
34.777,-0.463,0.912,0.123
34.787,-0.463,0.910,0.121
34.797,-0.461,0.910,0.123
34.807,-0.461,0.914,0.123
34.817,-0.463,0.910,0.121
34.827,-0.465,0.912,0.125
34.837,-0.465,0.910,0.123
34.847,-0.465,0.908,0.123
34.857,-0.463,0.908,0.125
34.867,-0.467,0.908,0.123
34.877,-0.469,0.908,0.127
34.887,-0.465,0.914,0.123
34.897,-0.467,0.910,0.125
34.907,-0.467,0.908,0.127
34.917,-0.471,0.908,0.125
34.926,-0.471,0.912,0.127
34.936,-0.469,0.912,0.127
34.946,-0.469,0.906,0.125
34.956,-0.465,0.908,0.121
34.966,-0.469,0.908,0.127
34.976,-0.465,0.912,0.125
34.986,-0.467,0.908,0.123
34.996,-0.465,0.908,0.125
35.006,-0.465,0.906,0.127
35.016,-0.461,0.908,0.127
35.026,-0.463,0.906,0.127
35.036,-0.463,0.910,0.129
35.046,-0.463,0.912,0.127
35.056,-0.461,0.908,0.125
35.066,-0.463,0.910,0.127
35.075,-0.467,0.910,0.125
35.085,-0.465,0.910,0.125
35.095,-0.461,0.906,0.123
35.105,-0.461,0.910,0.125
35.115,-0.461,0.910,0.127
35.125,-0.461,0.902,0.123
35.135,-0.461,0.908,0.123
35.145,-0.467,0.910,0.123
35.155,-0.469,0.914,0.125
35.165,-0.465,0.918,0.125
35.175,-0.463,0.918,0.125
35.185,-0.463,0.910,0.125
35.195,-0.461,0.908,0.125
35.205,-0.461,0.910,0.125
35.215,-0.461,0.910,0.125
35.224,-0.457,0.912,0.123
35.234,-0.457,0.912,0.129
35.244,-0.455,0.912,0.125
35.254,-0.461,0.914,0.125
35.264,-0.459,0.910,0.127
35.274,-0.461,0.910,0.125
35.284,-0.461,0.908,0.125
35.294,-0.463,0.912,0.125
35.304,-0.465,0.910,0.123
35.314,-0.463,0.912,0.125
35.324,-0.465,0.908,0.121
35.334,-0.463,0.912,0.123
35.344,-0.461,0.910,0.121
35.354,-0.463,0.912,0.125
35.364,-0.461,0.908,0.125
35.373,-0.459,0.912,0.121
35.383,-0.459,0.910,0.123
35.393,-0.461,0.914,0.123
35.403,-0.459,0.912,0.125
35.413,-0.459,0.908,0.123
35.423,-0.459,0.906,0.121
35.433,-0.461,0.910,0.121
35.443,-0.459,0.916,0.125
35.453,-0.459,0.914,0.123
35.463,-0.463,0.914,0.123
35.473,-0.463,0.912,0.123
35.483,-0.467,0.910,0.125
35.493,-0.467,0.912,0.121
35.503,-0.465,0.910,0.127
35.513,-0.465,0.910,0.125
35.522,-0.463,0.910,0.125
35.532,-0.465,0.910,0.125
35.542,-0.465,0.906,0.127
35.552,-0.465,0.906,0.123
35.562,-0.467,0.908,0.125
35.572,-0.465,0.910,0.125
35.582,-0.465,0.908,0.123
35.592,-0.463,0.912,0.123
35.602,-0.465,0.910,0.125
35.612,-0.463,0.912,0.131
35.622,-0.463,0.912,0.125
35.632,-0.465,0.908,0.127
35.642,-0.465,0.910,0.127
35.652,-0.467,0.908,0.127
35.662,-0.463,0.910,0.123
35.671,-0.461,0.912,0.127
35.681,-0.459,0.906,0.129
35.691,-0.459,0.906,0.125
35.701,-0.463,0.906,0.125
35.711,-0.469,0.910,0.125
35.721,-0.461,0.914,0.123
35.731,-0.463,0.914,0.127
35.741,-0.465,0.914,0.125
35.751,-0.461,0.912,0.127
35.761,-0.459,0.912,0.125
35.771,-0.459,0.910,0.125
35.781,-0.461,0.910,0.125
35.791,-0.461,0.908,0.125
35.801,-0.459,0.912,0.125
35.811,-0.459,0.908,0.123
35.820,-0.459,0.912,0.125
35.830,-0.457,0.912,0.125
35.840,-0.457,0.910,0.125
35.850,-0.459,0.912,0.125
35.860,-0.459,0.912,0.125
35.870,-0.459,0.910,0.121
35.880,-0.459,0.910,0.121
35.890,-0.463,0.912,0.127
35.900,-0.465,0.912,0.123
35.910,-0.463,0.912,0.123
35.920,-0.459,0.910,0.121
35.930,-0.463,0.912,0.125
35.940,-0.461,0.912,0.127
35.950,-0.459,0.914,0.125
35.960,-0.459,0.912,0.129
35.969,-0.461,0.910,0.127
35.979,-0.459,0.910,0.125
35.989,-0.459,0.910,0.129
35.999,-0.459,0.910,0.125
36.009,-0.459,0.908,0.131
36.019,-0.461,0.912,0.127
36.029,-0.457,0.906,0.121
36.039,-0.463,0.914,0.127
36.049,-0.467,0.914,0.127
36.059,-0.469,0.914,0.127
36.069,-0.465,0.912,0.127
36.079,-0.467,0.912,0.123
36.089,-0.471,0.910,0.123
36.099,-0.471,0.910,0.127
36.109,-0.469,0.908,0.127
36.118,-0.471,0.906,0.125
36.128,-0.469,0.910,0.125
36.138,-0.469,0.906,0.123
36.148,-0.469,0.908,0.125
36.158,-0.467,0.908,0.127
36.168,-0.467,0.908,0.123
36.178,-0.467,0.908,0.127
36.188,-0.461,0.908,0.129
36.198,-0.461,0.908,0.127
36.208,-0.459,0.910,0.125
36.218,-0.463,0.910,0.123
36.228,-0.467,0.910,0.129
36.238,-0.465,0.910,0.127
36.248,-0.467,0.910,0.129
36.258,-0.467,0.906,0.125
36.267,-0.469,0.914,0.127
36.277,-0.467,0.910,0.127
36.287,-0.465,0.906,0.125
36.297,-0.461,0.910,0.127
36.307,-0.465,0.908,0.127
36.317,-0.465,0.910,0.127
36.327,-0.463,0.916,0.129
36.337,-0.463,0.910,0.131
36.347,-0.459,0.910,0.129
36.357,-0.461,0.912,0.127
36.367,-0.463,0.908,0.125
36.377,-0.463,0.908,0.129
36.387,-0.465,0.908,0.125
36.397,-0.463,0.912,0.125
36.407,-0.463,0.912,0.129
36.416,-0.461,0.912,0.127
36.426,-0.463,0.910,0.127
36.436,-0.461,0.912,0.127
36.446,-0.459,0.910,0.127
36.456,-0.463,0.906,0.125
36.466,-0.465,0.910,0.125
36.476,-0.461,0.912,0.127
36.486,-0.461,0.912,0.125
36.496,-0.461,0.908,0.125
36.506,-0.463,0.910,0.129
36.516,-0.463,0.906,0.123
36.526,-0.465,0.910,0.125
36.536,-0.465,0.906,0.121
36.546,-0.463,0.910,0.121
36.556,-0.463,0.912,0.121
36.565,-0.467,0.912,0.119
36.575,-0.465,0.910,0.123
36.585,-0.459,0.914,0.121
36.595,-0.459,0.916,0.123
36.605,-0.457,0.912,0.119
36.615,-0.461,0.910,0.123
36.625,-0.461,0.910,0.123
36.635,-0.459,0.914,0.123
36.645,-0.461,0.910,0.125
36.655,-0.459,0.910,0.123
36.665,-0.459,0.908,0.125
36.675,-0.465,0.912,0.125
36.685,-0.465,0.916,0.123
36.695,-0.463,0.914,0.123
36.705,-0.467,0.910,0.123
36.714,-0.467,0.910,0.125
36.724,-0.467,0.910,0.127
36.734,-0.469,0.910,0.125
36.744,-0.467,0.910,0.121
36.754,-0.467,0.908,0.125
36.764,-0.469,0.904,0.125
36.774,-0.465,0.906,0.123
36.784,-0.467,0.906,0.125
36.794,-0.469,0.906,0.123
36.804,-0.465,0.910,0.127
36.814,-0.467,0.912,0.123
36.824,-0.465,0.910,0.121
36.834,-0.461,0.912,0.125
36.844,-0.465,0.910,0.123
36.854,-0.465,0.910,0.125
36.863,-0.467,0.910,0.125
36.873,-0.467,0.910,0.123
36.883,-0.469,0.908,0.121
36.893,-0.467,0.906,0.123
36.903,-0.469,0.914,0.127
36.913,-0.465,0.910,0.129
36.923,-0.463,0.908,0.125
36.933,-0.463,0.906,0.125
36.943,-0.465,0.910,0.123
36.953,-0.467,0.910,0.123
36.963,-0.469,0.906,0.125
36.973,-0.467,0.912,0.123
36.983,-0.465,0.914,0.125
36.993,-0.463,0.910,0.123
37.003,-0.465,0.910,0.125
37.012,-0.463,0.910,0.125
37.022,-0.461,0.910,0.125
37.032,-0.463,0.910,0.127
37.042,-0.461,0.910,0.125
37.052,-0.459,0.910,0.127
37.062,-0.467,0.910,0.127
37.072,-0.463,0.908,0.125
37.082,-0.463,0.908,0.127
37.092,-0.463,0.908,0.127
37.102,-0.463,0.906,0.123
37.112,-0.461,0.910,0.127
37.122,-0.465,0.908,0.123
37.132,-0.463,0.912,0.123
37.142,-0.463,0.910,0.125
37.152,-0.465,0.910,0.127
37.161,-0.461,0.910,0.125
37.171,-0.463,0.910,0.125
37.181,-0.461,0.914,0.125
37.191,-0.463,0.910,0.125
37.201,-0.463,0.906,0.125
37.211,-0.461,0.908,0.123
37.221,-0.467,0.910,0.123
37.231,-0.467,0.912,0.121
37.241,-0.461,0.912,0.125
37.251,-0.463,0.910,0.121
37.261,-0.465,0.912,0.123
37.271,-0.467,0.914,0.123
37.281,-0.467,0.914,0.121
37.291,-0.469,0.910,0.123
37.301,-0.465,0.910,0.123
37.310,-0.465,0.910,0.123
37.320,-0.467,0.908,0.125
37.330,-0.461,0.910,0.125
37.340,-0.463,0.910,0.123
37.350,-0.463,0.906,0.123
37.360,-0.461,0.906,0.125
37.370,-0.461,0.914,0.127
37.380,-0.463,0.912,0.127
37.390,-0.463,0.912,0.125
37.400,-0.463,0.908,0.125
37.410,-0.465,0.910,0.127
37.420,-0.467,0.910,0.125
37.430,-0.469,0.914,0.123
37.440,-0.467,0.910,0.127
37.450,-0.467,0.912,0.123
37.459,-0.465,0.910,0.121
37.469,-0.465,0.912,0.125
37.479,-0.469,0.904,0.125
37.489,-0.467,0.906,0.125
37.499,-0.463,0.906,0.127
37.509,-0.465,0.910,0.127
37.519,-0.467,0.910,0.127
37.529,-0.463,0.908,0.127
37.539,-0.465,0.910,0.127
37.549,-0.467,0.906,0.125
37.559,-0.471,0.908,0.129
37.569,-0.471,0.906,0.127
37.579,-0.471,0.908,0.125
37.589,-0.471,0.906,0.127
37.599,-0.465,0.908,0.125
37.608,-0.469,0.912,0.125
37.618,-0.467,0.908,0.127
37.628,-0.465,0.902,0.125
37.638,-0.469,0.906,0.127
37.648,-0.467,0.910,0.125
37.658,-0.469,0.914,0.127
37.668,-0.465,0.910,0.129
37.678,-0.463,0.912,0.127
37.688,-0.463,0.910,0.127
37.698,-0.461,0.908,0.127
37.708,-0.463,0.912,0.125
37.718,-0.459,0.910,0.127
37.728,-0.461,0.910,0.129
37.738,-0.459,0.908,0.127
37.748,-0.461,0.912,0.127
37.757,-0.461,0.908,0.125
37.767,-0.459,0.908,0.123
37.777,-0.463,0.910,0.129
37.787,-0.461,0.912,0.125
37.797,-0.463,0.910,0.123
37.807,-0.463,0.912,0.127
37.817,-0.465,0.910,0.127
37.827,-0.461,0.912,0.127
37.837,-0.465,0.908,0.127
37.847,-0.465,0.908,0.125
37.857,-0.465,0.906,0.125
37.867,-0.463,0.910,0.123
37.877,-0.463,0.910,0.125
37.887,-0.463,0.910,0.123
37.897,-0.465,0.910,0.121
37.906,-0.463,0.910,0.125
37.916,-0.465,0.912,0.121
37.926,-0.465,0.910,0.125
37.936,-0.465,0.910,0.129
37.946,-0.467,0.912,0.123
37.956,-0.465,0.910,0.123
37.966,-0.467,0.908,0.123
37.976,-0.467,0.910,0.123
37.986,-0.471,0.910,0.123
37.996,-0.469,0.910,0.121
38.006,-0.467,0.910,0.125
38.016,-0.471,0.912,0.121
38.026,-0.467,0.912,0.123
38.036,-0.465,0.910,0.123
38.046,-0.467,0.910,0.127
38.055,-0.467,0.908,0.123
38.065,-0.467,0.908,0.125
38.075,-0.465,0.910,0.129
38.085,-0.465,0.904,0.127
38.095,-0.463,0.904,0.123
38.105,-0.461,0.912,0.125
38.115,-0.463,0.912,0.125
38.125,-0.465,0.912,0.125
38.135,-0.465,0.908,0.125
38.145,-0.467,0.910,0.127
38.155,-0.469,0.912,0.125
38.165,-0.471,0.912,0.123
38.175,-0.469,0.906,0.125
38.185,-0.465,0.910,0.123
38.195,-0.469,0.908,0.123
38.204,-0.465,0.908,0.123
38.214,-0.463,0.906,0.125
38.224,-0.465,0.906,0.123
38.234,-0.465,0.908,0.125
38.244,-0.465,0.912,0.125
38.254,-0.469,0.910,0.125
38.264,-0.467,0.914,0.125
38.274,-0.467,0.912,0.125
38.284,-0.467,0.908,0.125
38.294,-0.463,0.908,0.123
38.304,-0.463,0.908,0.123
38.314,-0.465,0.908,0.125
38.324,-0.465,0.908,0.125
38.334,-0.467,0.908,0.127
38.344,-0.467,0.916,0.125
38.353,-0.465,0.912,0.127
38.363,-0.465,0.904,0.123
38.373,-0.465,0.914,0.125
38.383,-0.463,0.906,0.125
38.393,-0.463,0.908,0.123
38.403,-0.465,0.910,0.129
38.413,-0.463,0.914,0.127
38.423,-0.461,0.914,0.125
38.433,-0.463,0.912,0.127
38.443,-0.461,0.912,0.127
38.453,-0.461,0.910,0.129
38.463,-0.463,0.910,0.125
38.473,-0.461,0.908,0.127
38.483,-0.459,0.908,0.127
38.493,-0.461,0.912,0.123
38.502,-0.461,0.910,0.127
38.512,-0.461,0.910,0.125
38.522,-0.465,0.912,0.123
38.532,-0.463,0.910,0.123
38.542,-0.463,0.908,0.123
38.552,-0.465,0.910,0.123
38.562,-0.467,0.910,0.121
38.572,-0.465,0.910,0.127
38.582,-0.465,0.908,0.125
38.592,-0.467,0.910,0.125
38.602,-0.465,0.906,0.125
38.612,-0.465,0.908,0.125
38.622,-0.465,0.910,0.123
38.632,-0.465,0.910,0.125
38.642,-0.467,0.908,0.125
38.651,-0.467,0.906,0.125
38.661,-0.467,0.910,0.123
38.671,-0.469,0.910,0.125
38.681,-0.469,0.910,0.125
38.691,-0.469,0.908,0.121
38.701,-0.469,0.912,0.125
38.711,-0.467,0.908,0.123
38.721,-0.469,0.912,0.127
38.731,-0.469,0.912,0.123
38.741,-0.465,0.910,0.123
38.751,-0.467,0.910,0.125
38.761,-0.469,0.908,0.127
38.771,-0.465,0.914,0.127
38.781,-0.465,0.910,0.125
38.791,-0.463,0.908,0.125
38.800,-0.461,0.906,0.127
38.810,-0.467,0.908,0.127
38.820,-0.465,0.912,0.127
38.830,-0.465,0.914,0.127
38.840,-0.465,0.912,0.127
38.850,-0.467,0.912,0.127
38.860,-0.467,0.910,0.123
38.870,-0.467,0.912,0.125
38.880,-0.465,0.912,0.125
38.890,-0.469,0.910,0.123
38.900,-0.467,0.908,0.125
38.910,-0.467,0.912,0.127
38.920,-0.467,0.908,0.127
38.930,-0.469,0.908,0.127
38.940,-0.465,0.910,0.123
38.949,-0.463,0.912,0.127
38.959,-0.465,0.912,0.127
38.969,-0.469,0.912,0.129
38.979,-0.465,0.912,0.129
38.989,-0.463,0.908,0.129
38.999,-0.467,0.906,0.127
39.009,-0.465,0.906,0.127
39.019,-0.467,0.908,0.127
39.029,-0.471,0.906,0.127
39.039,-0.465,0.906,0.125
39.049,-0.467,0.914,0.127
39.059,-0.467,0.912,0.127
39.069,-0.465,0.906,0.125
39.079,-0.463,0.910,0.125
39.089,-0.465,0.910,0.127
39.098,-0.467,0.910,0.127
39.108,-0.465,0.912,0.123
39.118,-0.463,0.914,0.129
39.128,-0.463,0.912,0.127
39.138,-0.461,0.914,0.123
39.148,-0.459,0.914,0.127
39.158,-0.465,0.912,0.129
39.168,-0.461,0.910,0.125
39.178,-0.459,0.910,0.127
39.188,-0.463,0.910,0.123
39.198,-0.461,0.908,0.127
39.208,-0.461,0.910,0.125
39.218,-0.459,0.908,0.127
39.228,-0.465,0.910,0.125
39.238,-0.461,0.908,0.127
39.247,-0.469,0.910,0.125
39.257,-0.465,0.912,0.125
39.267,-0.465,0.912,0.125
39.277,-0.469,0.912,0.125
39.287,-0.467,0.910,0.125
39.297,-0.463,0.908,0.125
39.307,-0.463,0.910,0.127
39.317,-0.465,0.910,0.127
39.327,-0.465,0.908,0.125
39.337,-0.467,0.910,0.127
39.347,-0.463,0.910,0.127
39.357,-0.465,0.910,0.125
39.367,-0.467,0.910,0.123
39.377,-0.467,0.906,0.125
39.387,-0.469,0.912,0.125
39.396,-0.469,0.910,0.123
39.406,-0.467,0.910,0.123
39.416,-0.467,0.912,0.123
39.426,-0.467,0.910,0.127
39.436,-0.467,0.908,0.127
39.446,-0.467,0.908,0.125
39.456,-0.467,0.910,0.129
39.466,-0.467,0.906,0.129
39.476,-0.463,0.906,0.131
39.486,-0.463,0.904,0.129
39.496,-0.463,0.906,0.127
39.506,-0.467,0.908,0.131
39.516,-0.469,0.910,0.131
39.526,-0.473,0.910,0.127
39.536,-0.467,0.908,0.127
39.545,-0.469,0.908,0.129
39.555,-0.469,0.906,0.131
39.565,-0.467,0.908,0.131
39.575,-0.467,0.906,0.129
39.585,-0.469,0.910,0.127
39.595,-0.465,0.908,0.125
39.605,-0.461,0.908,0.129
39.615,-0.463,0.908,0.129
39.625,-0.465,0.910,0.129
39.635,-0.463,0.910,0.127
39.645,-0.465,0.910,0.131
39.655,-0.463,0.908,0.127
39.665,-0.463,0.910,0.127
39.675,-0.465,0.910,0.129
39.685,-0.467,0.908,0.129
39.694,-0.467,0.908,0.129
39.704,-0.469,0.910,0.125
39.714,-0.471,0.908,0.125
39.724,-0.467,0.910,0.125
39.734,-0.467,0.914,0.127
39.744,-0.465,0.912,0.125
39.754,-0.467,0.904,0.125
39.764,-0.467,0.906,0.125
39.774,-0.465,0.908,0.125
39.784,-0.467,0.912,0.127
39.794,-0.465,0.914,0.129
39.804,-0.465,0.914,0.131
39.814,-0.463,0.914,0.131
39.824,-0.457,0.912,0.129
39.834,-0.461,0.910,0.127
39.843,-0.457,0.914,0.129
39.853,-0.457,0.912,0.129
39.863,-0.455,0.910,0.127
39.873,-0.459,0.910,0.127
39.883,-0.459,0.910,0.127
39.893,-0.461,0.912,0.125
39.903,-0.461,0.912,0.129
39.913,-0.463,0.908,0.127
39.923,-0.461,0.912,0.129
39.933,-0.461,0.910,0.127
39.943,-0.461,0.906,0.125
39.953,-0.461,0.908,0.125
39.963,-0.461,0.910,0.127
39.973,-0.459,0.908,0.127
39.983,-0.461,0.910,0.125
39.992,-0.459,0.908,0.127
40.002,-0.461,0.914,0.123
40.012,-0.461,0.910,0.125
40.022,-0.463,0.910,0.123
40.032,-0.463,0.914,0.123
40.042,-0.465,0.912,0.123
40.052,-0.467,0.912,0.123
40.062,-0.463,0.914,0.125
40.072,-0.467,0.912,0.127
40.082,-0.467,0.910,0.123
40.092,-0.463,0.908,0.121
40.102,-0.465,0.910,0.123
40.112,-0.463,0.910,0.123
40.122,-0.467,0.910,0.129
40.132,-0.461,0.908,0.127
40.141,-0.463,0.910,0.127
40.151,-0.461,0.908,0.125
40.161,-0.465,0.912,0.127
40.171,-0.469,0.918,0.127
40.181,-0.467,0.914,0.127
40.191,-0.465,0.912,0.129
40.201,-0.465,0.912,0.125
40.211,-0.465,0.910,0.129
40.221,-0.469,0.912,0.125
40.231,-0.469,0.912,0.125
40.241,-0.467,0.908,0.125
40.251,-0.465,0.906,0.129
40.261,-0.465,0.910,0.127
40.271,-0.463,0.908,0.127
40.281,-0.465,0.906,0.125
40.290,-0.465,0.908,0.127
40.300,-0.465,0.908,0.131
40.310,-0.463,0.904,0.129
40.320,-0.465,0.906,0.129
40.330,-0.463,0.910,0.129
40.340,-0.463,0.908,0.129
40.350,-0.465,0.912,0.131
40.360,-0.465,0.912,0.127
40.370,-0.469,0.908,0.129
40.380,-0.467,0.904,0.125
40.390,-0.469,0.908,0.127
40.400,-0.467,0.910,0.129
40.410,-0.467,0.906,0.125
40.420,-0.467,0.904,0.127
40.430,-0.465,0.910,0.127
40.439,-0.463,0.912,0.131
40.449,-0.465,0.914,0.127
40.459,-0.461,0.918,0.129
40.469,-0.463,0.916,0.127
40.479,-0.459,0.914,0.129
40.489,-0.459,0.912,0.127
40.499,-0.459,0.914,0.123
40.509,-0.461,0.912,0.129
40.519,-0.457,0.910,0.127
40.529,-0.455,0.912,0.131
40.539,-0.457,0.914,0.129
40.549,-0.457,0.914,0.129
40.559,-0.461,0.912,0.129
40.569,-0.457,0.916,0.131
40.579,-0.457,0.912,0.129
40.588,-0.461,0.908,0.131
40.598,-0.459,0.910,0.131
40.608,-0.461,0.910,0.131
40.618,-0.459,0.912,0.131
40.628,-0.463,0.910,0.131
40.638,-0.463,0.910,0.131
40.648,-0.461,0.914,0.127
40.658,-0.461,0.912,0.129
40.668,-0.461,0.912,0.127
40.678,-0.463,0.908,0.131
40.688,-0.461,0.910,0.131
40.698,-0.461,0.910,0.131
40.708,-0.465,0.910,0.129
40.718,-0.463,0.910,0.131
40.728,-0.463,0.908,0.129
40.737,-0.463,0.908,0.127
40.747,-0.463,0.908,0.129
40.757,-0.463,0.908,0.129
40.767,-0.463,0.912,0.129
40.777,-0.463,0.916,0.127
40.787,-0.463,0.914,0.131
40.797,-0.465,0.912,0.129
40.807,-0.467,0.910,0.131
40.817,-0.467,0.912,0.129
40.827,-0.467,0.914,0.129
40.837,-0.467,0.916,0.127
40.847,-0.465,0.912,0.129
40.857,-0.467,0.908,0.129
40.867,-0.465,0.908,0.129
40.877,-0.463,0.906,0.129
40.886,-0.463,0.908,0.129
40.896,-0.461,0.908,0.129
40.906,-0.461,0.908,0.131
40.916,-0.461,0.910,0.131
40.926,-0.461,0.912,0.133
40.936,-0.461,0.910,0.131
40.946,-0.461,0.912,0.131
40.956,-0.463,0.910,0.129
40.966,-0.465,0.910,0.129
40.976,-0.463,0.910,0.127
40.986,-0.465,0.908,0.129
40.996,-0.463,0.908,0.131
41.006,-0.459,0.910,0.129
41.016,-0.461,0.912,0.127
41.026,-0.461,0.908,0.125
41.035,-0.461,0.912,0.125
41.045,-0.461,0.912,0.131
41.055,-0.463,0.916,0.131
41.065,-0.461,0.918,0.131
41.075,-0.457,0.912,0.129
41.085,-0.459,0.912,0.129
41.095,-0.459,0.910,0.129
41.105,-0.459,0.908,0.129
41.115,-0.459,0.914,0.131
41.125,-0.459,0.912,0.131
41.135,-0.459,0.910,0.133
41.145,-0.459,0.912,0.129
41.155,-0.459,0.912,0.127
41.165,-0.461,0.912,0.129
41.175,-0.461,0.914,0.129
41.184,-0.463,0.910,0.127
41.194,-0.459,0.914,0.125
41.204,-0.459,0.914,0.127
41.214,-0.459,0.910,0.127
41.224,-0.459,0.914,0.127
41.234,-0.459,0.914,0.127
41.244,-0.457,0.914,0.123
41.254,-0.457,0.914,0.123
41.264,-0.459,0.916,0.127
41.274,-0.459,0.914,0.127
41.284,-0.459,0.910,0.127
41.294,-0.459,0.910,0.125
41.304,-0.459,0.912,0.125
41.314,-0.463,0.910,0.127
41.324,-0.463,0.912,0.129
41.333,-0.461,0.910,0.131
41.343,-0.461,0.910,0.129
41.353,-0.463,0.908,0.129
41.363,-0.461,0.908,0.129
41.373,-0.461,0.912,0.127
41.383,-0.461,0.914,0.127
41.393,-0.463,0.912,0.129
41.403,-0.467,0.914,0.129
41.413,-0.467,0.914,0.131
41.423,-0.465,0.914,0.131
41.433,-0.467,0.912,0.127
41.443,-0.465,0.912,0.129
41.453,-0.461,0.910,0.129
41.463,-0.461,0.906,0.127
41.473,-0.461,0.908,0.129
41.482,-0.461,0.908,0.131
41.492,-0.459,0.908,0.131
41.502,-0.459,0.910,0.131
41.512,-0.463,0.912,0.131
41.522,-0.457,0.914,0.131
41.532,-0.461,0.912,0.131
41.542,-0.459,0.912,0.133
41.552,-0.461,0.910,0.129
41.562,-0.459,0.910,0.129
41.572,-0.461,0.912,0.127
41.582,-0.461,0.914,0.127
41.592,-0.455,0.912,0.129
41.602,-0.459,0.916,0.129
41.612,-0.455,0.916,0.133
41.622,-0.457,0.908,0.125
41.631,-0.461,0.912,0.127
41.641,-0.461,0.916,0.129
41.651,-0.461,0.914,0.129
41.661,-0.457,0.916,0.129
41.671,-0.457,0.916,0.131
41.681,-0.459,0.918,0.133
41.691,-0.459,0.910,0.131
41.701,-0.455,0.914,0.133
41.711,-0.457,0.910,0.133
41.721,-0.455,0.912,0.131
41.731,-0.457,0.914,0.129
41.741,-0.455,0.912,0.131
41.751,-0.457,0.914,0.131
41.761,-0.457,0.916,0.125
41.771,-0.457,0.910,0.129
41.780,-0.457,0.910,0.129
41.790,-0.455,0.910,0.127
41.800,-0.457,0.914,0.127
41.810,-0.459,0.912,0.127
41.820,-0.459,0.914,0.125
41.830,-0.455,0.914,0.127
41.840,-0.457,0.916,0.127
41.850,-0.457,0.916,0.129
41.860,-0.459,0.914,0.125
41.870,-0.461,0.912,0.125
41.880,-0.463,0.916,0.129
41.890,-0.461,0.910,0.127
41.900,-0.463,0.912,0.129
41.910,-0.461,0.910,0.127
41.920,-0.463,0.910,0.125
41.929,-0.463,0.914,0.127
41.939,-0.465,0.910,0.129
41.949,-0.461,0.906,0.127
41.959,-0.465,0.908,0.127
41.969,-0.465,0.912,0.127
41.979,-0.463,0.914,0.129
41.989,-0.465,0.916,0.129
41.999,-0.465,0.912,0.127
42.009,-0.469,0.912,0.127
42.019,-0.465,0.914,0.129
42.029,-0.469,0.912,0.127
42.039,-0.463,0.912,0.127
42.049,-0.465,0.910,0.127
42.059,-0.463,0.910,0.129
42.069,-0.463,0.910,0.127
42.078,-0.463,0.908,0.127
42.088,-0.461,0.912,0.127
42.098,-0.457,0.910,0.129
42.108,-0.457,0.916,0.129
42.118,-0.463,0.912,0.131
42.128,-0.461,0.912,0.131
42.138,-0.461,0.914,0.129
42.148,-0.461,0.912,0.129
42.158,-0.461,0.912,0.131
42.168,-0.461,0.914,0.127
42.178,-0.463,0.912,0.129
42.188,-0.463,0.910,0.131
42.198,-0.461,0.912,0.131
42.208,-0.461,0.912,0.129
42.218,-0.461,0.914,0.129
42.227,-0.459,0.906,0.127
42.237,-0.457,0.912,0.129
42.247,-0.461,0.910,0.127
42.257,-0.459,0.914,0.131
42.267,-0.461,0.916,0.131
42.277,-0.457,0.916,0.129
42.287,-0.457,0.914,0.131
42.297,-0.457,0.914,0.129
42.307,-0.459,0.912,0.127
42.317,-0.455,0.914,0.127
42.327,-0.455,0.912,0.127
42.337,-0.455,0.912,0.131
42.347,-0.455,0.914,0.131
42.357,-0.453,0.914,0.129
42.367,-0.455,0.914,0.127
42.376,-0.457,0.916,0.127
42.386,-0.457,0.912,0.129
42.396,-0.457,0.914,0.131
42.406,-0.455,0.912,0.127
42.416,-0.457,0.916,0.127
42.426,-0.457,0.912,0.127
42.436,-0.457,0.912,0.125
42.446,-0.457,0.912,0.129
42.456,-0.459,0.914,0.129
42.466,-0.457,0.912,0.125
42.476,-0.459,0.914,0.123
42.486,-0.457,0.916,0.125
42.496,-0.457,0.918,0.125
42.506,-0.459,0.916,0.129
42.516,-0.457,0.914,0.125
42.525,-0.459,0.914,0.125
42.535,-0.461,0.912,0.125
42.545,-0.457,0.914,0.125
42.555,-0.455,0.910,0.127
42.565,-0.457,0.908,0.129
42.575,-0.459,0.910,0.125
42.585,-0.461,0.914,0.129
42.595,-0.457,0.918,0.127
42.605,-0.459,0.912,0.129
42.615,-0.461,0.910,0.127
42.625,-0.461,0.910,0.127
42.635,-0.463,0.910,0.127
42.645,-0.465,0.910,0.127
42.655,-0.463,0.912,0.125
42.665,-0.463,0.914,0.127
42.674,-0.463,0.912,0.121
42.684,-0.465,0.912,0.121
42.694,-0.461,0.908,0.123
42.704,-0.461,0.910,0.123
42.714,-0.463,0.914,0.125
42.724,-0.461,0.910,0.123
42.734,-0.459,0.914,0.123
42.744,-0.457,0.914,0.127
42.754,-0.459,0.914,0.123
42.764,-0.457,0.912,0.125
42.774,-0.461,0.912,0.123
42.784,-0.463,0.914,0.125
42.794,-0.463,0.912,0.123
42.804,-0.461,0.914,0.127
42.814,-0.463,0.912,0.125
42.823,-0.461,0.914,0.121
42.833,-0.461,0.910,0.121
42.843,-0.461,0.908,0.121
42.853,-0.459,0.908,0.125
42.863,-0.463,0.910,0.125
42.873,-0.461,0.914,0.127
42.883,-0.459,0.916,0.125
42.893,-0.461,0.916,0.123
42.903,-0.457,0.914,0.127
42.913,-0.459,0.914,0.121
42.923,-0.457,0.914,0.121
42.933,-0.461,0.914,0.123
42.943,-0.455,0.914,0.121
42.953,-0.457,0.910,0.121
42.963,-0.455,0.912,0.127
42.972,-0.457,0.914,0.125
42.982,-0.455,0.914,0.123
42.992,-0.455,0.914,0.129
43.002,-0.457,0.910,0.123
43.012,-0.459,0.914,0.123
43.022,-0.461,0.914,0.125
43.032,-0.459,0.910,0.123
43.042,-0.461,0.910,0.123
43.052,-0.463,0.910,0.123
43.062,-0.459,0.912,0.125
43.072,-0.461,0.910,0.123
43.082,-0.459,0.912,0.121
43.092,-0.463,0.914,0.123
43.102,-0.459,0.914,0.119
43.112,-0.463,0.914,0.121
43.121,-0.465,0.916,0.119
43.131,-0.463,0.916,0.119
43.141,-0.465,0.914,0.121
43.151,-0.461,0.912,0.121
43.161,-0.461,0.918,0.125
43.171,-0.467,0.916,0.123
43.181,-0.461,0.916,0.121
43.191,-0.461,0.918,0.125
43.201,-0.461,0.906,0.125
43.211,-0.457,0.910,0.127
43.221,-0.459,0.912,0.127
43.231,-0.459,0.916,0.131
43.241,-0.457,0.910,0.129
43.251,-0.457,0.908,0.129
43.261,-0.459,0.906,0.131
43.270,-0.459,0.912,0.127
43.280,-0.459,0.912,0.125
43.290,-0.461,0.910,0.129
43.300,-0.461,0.910,0.131
43.310,-0.457,0.908,0.129
43.320,-0.459,0.908,0.123
43.330,-0.461,0.910,0.125
43.340,-0.465,0.906,0.123
43.350,-0.465,0.912,0.119
43.360,-0.465,0.912,0.125
43.370,-0.471,0.914,0.127
43.380,-0.469,0.914,0.127
43.390,-0.469,0.914,0.127
43.400,-0.469,0.910,0.127
43.410,-0.467,0.906,0.125
43.419,-0.469,0.906,0.123
43.429,-0.471,0.906,0.123
43.439,-0.467,0.904,0.123
43.449,-0.471,0.908,0.121
43.459,-0.469,0.912,0.123
43.469,-0.463,0.912,0.125
43.479,-0.467,0.910,0.123
43.489,-0.465,0.910,0.123
43.499,-0.461,0.912,0.123
43.509,-0.463,0.916,0.121
43.519,-0.459,0.920,0.125
43.529,-0.459,0.916,0.123
43.539,-0.453,0.910,0.127
43.549,-0.457,0.912,0.129
43.559,-0.459,0.912,0.127
43.568,-0.457,0.912,0.125
43.578,-0.457,0.910,0.127
43.588,-0.457,0.912,0.121
43.598,-0.457,0.912,0.125
43.608,-0.457,0.916,0.125
43.618,-0.459,0.912,0.127
43.628,-0.459,0.912,0.125
43.638,-0.463,0.912,0.131
43.648,-0.459,0.910,0.125
43.658,-0.461,0.910,0.125
43.668,-0.459,0.908,0.125
43.678,-0.457,0.912,0.127
43.688,-0.461,0.910,0.127
43.698,-0.459,0.910,0.125
43.708,-0.459,0.912,0.127
43.717,-0.461,0.910,0.127
43.727,-0.459,0.910,0.129
43.737,-0.465,0.910,0.125
43.747,-0.461,0.910,0.125
43.757,-0.467,0.912,0.123
43.767,-0.465,0.914,0.123
43.777,-0.467,0.912,0.121
43.787,-0.467,0.914,0.123
43.797,-0.469,0.916,0.121
43.807,-0.465,0.914,0.125
43.817,-0.463,0.912,0.121
43.827,-0.463,0.910,0.123
43.837,-0.465,0.910,0.129
43.847,-0.463,0.910,0.129
43.857,-0.463,0.910,0.127
43.866,-0.461,0.908,0.125
43.876,-0.461,0.910,0.123
43.886,-0.463,0.912,0.125
43.896,-0.465,0.912,0.125
43.906,-0.463,0.914,0.127
43.916,-0.465,0.908,0.129
43.926,-0.465,0.910,0.127
43.936,-0.467,0.912,0.125
43.946,-0.465,0.912,0.123
43.956,-0.465,0.908,0.129
43.966,-0.463,0.910,0.125
43.976,-0.463,0.912,0.129
43.986,-0.467,0.912,0.127
43.996,-0.463,0.906,0.127
44.005,-0.463,0.910,0.129
44.015,-0.461,0.912,0.129
44.025,-0.461,0.908,0.127
44.035,-0.467,0.912,0.127
44.045,-0.459,0.912,0.131
44.055,-0.459,0.910,0.127
44.065,-0.461,0.912,0.127
44.075,-0.461,0.910,0.127
44.085,-0.463,0.912,0.129
44.095,-0.465,0.908,0.125
44.105,-0.463,0.908,0.127
44.115,-0.463,0.910,0.123
44.125,-0.463,0.916,0.125
44.135,-0.461,0.914,0.129
44.145,-0.461,0.906,0.125
44.155,-0.461,0.910,0.127
44.164,-0.461,0.912,0.125
44.174,-0.461,0.914,0.125
44.184,-0.459,0.914,0.127
44.194,-0.461,0.914,0.127
44.204,-0.459,0.916,0.125
44.214,-0.459,0.914,0.121
44.224,-0.459,0.914,0.127
44.234,-0.457,0.912,0.123
44.244,-0.459,0.914,0.125
44.254,-0.459,0.912,0.129
44.264,-0.459,0.910,0.127
44.274,-0.459,0.912,0.125
44.284,-0.461,0.912,0.125
44.294,-0.461,0.910,0.123
44.303,-0.461,0.912,0.127
44.313,-0.459,0.912,0.123
44.323,-0.461,0.912,0.125
44.333,-0.459,0.908,0.127
44.343,-0.463,0.912,0.125
44.353,-0.465,0.912,0.125
44.363,-0.463,0.910,0.123
44.373,-0.463,0.912,0.125
44.383,-0.459,0.912,0.123
44.393,-0.463,0.912,0.125
44.403,-0.461,0.912,0.127
44.413,-0.461,0.912,0.123
44.423,-0.463,0.910,0.123
44.433,-0.463,0.912,0.123
44.443,-0.459,0.910,0.125
44.452,-0.463,0.912,0.121
44.462,-0.467,0.914,0.121
44.472,-0.461,0.912,0.125
44.482,-0.463,0.912,0.123
44.492,-0.463,0.910,0.119
44.502,-0.465,0.912,0.121
44.512,-0.461,0.914,0.123
44.522,-0.463,0.914,0.121
44.532,-0.463,0.914,0.121
44.542,-0.461,0.914,0.127
44.552,-0.465,0.914,0.125
44.562,-0.461,0.912,0.125
44.572,-0.455,0.908,0.123
44.582,-0.457,0.908,0.127
44.592,-0.459,0.914,0.123
44.601,-0.457,0.916,0.127
44.611,-0.459,0.912,0.127
44.621,-0.461,0.910,0.129
44.631,-0.465,0.914,0.125
44.641,-0.467,0.914,0.125
44.651,-0.463,0.912,0.125
44.661,-0.463,0.912,0.123
44.671,-0.465,0.914,0.121
44.681,-0.461,0.914,0.121
44.691,-0.461,0.910,0.125
44.701,-0.459,0.912,0.125
44.711,-0.461,0.910,0.127
44.721,-0.461,0.914,0.125
44.731,-0.461,0.910,0.131
44.741,-0.459,0.910,0.127
44.750,-0.463,0.912,0.129
44.760,-0.463,0.912,0.127
44.770,-0.461,0.910,0.129
44.780,-0.463,0.912,0.127
44.790,-0.465,0.910,0.125
44.800,-0.467,0.908,0.127
44.810,-0.463,0.910,0.127
44.820,-0.461,0.914,0.127
44.830,-0.463,0.914,0.129
44.840,-0.465,0.910,0.125
44.850,-0.459,0.912,0.127
44.860,-0.461,0.916,0.127
44.870,-0.461,0.912,0.127
44.880,-0.463,0.914,0.127
44.890,-0.461,0.916,0.129
44.899,-0.459,0.918,0.127
44.909,-0.457,0.914,0.127
44.919,-0.459,0.910,0.125
44.929,-0.455,0.910,0.125
44.939,-0.459,0.910,0.127
44.949,-0.461,0.912,0.127
44.959,-0.459,0.914,0.123
44.969,-0.459,0.912,0.129
44.979,-0.461,0.914,0.129
44.989,-0.461,0.914,0.127
44.999,-0.461,0.910,0.125
45.009,-0.461,0.912,0.123
45.019,-0.463,0.914,0.125
45.029,-0.461,0.912,0.127
45.039,-0.463,0.910,0.125
45.048,-0.459,0.914,0.125
45.058,-0.463,0.912,0.125
45.068,-0.461,0.912,0.123
45.078,-0.461,0.914,0.127
45.088,-0.461,0.914,0.125
45.098,-0.461,0.912,0.125
45.108,-0.461,0.912,0.125
45.118,-0.459,0.912,0.123
45.128,-0.463,0.910,0.125
45.138,-0.463,0.914,0.125
45.148,-0.463,0.912,0.125
45.158,-0.463,0.908,0.125
45.168,-0.463,0.914,0.125
45.178,-0.461,0.910,0.127
45.188,-0.461,0.914,0.127
45.197,-0.459,0.916,0.125
45.207,-0.463,0.912,0.125
45.217,-0.463,0.910,0.127
45.227,-0.461,0.912,0.127
45.237,-0.461,0.914,0.127
45.247,-0.457,0.912,0.129
45.257,-0.459,0.908,0.131
45.267,-0.459,0.914,0.129
45.277,-0.465,0.912,0.125
45.287,-0.465,0.916,0.127
45.297,-0.463,0.910,0.129
45.307,-0.465,0.910,0.127
45.317,-0.467,0.910,0.127
45.327,-0.463,0.912,0.125
45.337,-0.465,0.910,0.127
45.346,-0.467,0.912,0.125
45.356,-0.465,0.910,0.127
45.366,-0.463,0.910,0.129
45.376,-0.463,0.910,0.127
45.386,-0.463,0.914,0.129
45.396,-0.461,0.910,0.123
45.406,-0.461,0.910,0.129
45.416,-0.459,0.912,0.131
45.426,-0.459,0.912,0.129
45.436,-0.461,0.910,0.129
45.446,-0.461,0.914,0.127
45.456,-0.461,0.914,0.131
45.466,-0.463,0.912,0.129
45.476,-0.467,0.912,0.125
45.486,-0.467,0.908,0.125
45.495,-0.463,0.906,0.125
45.505,-0.465,0.914,0.123
45.515,-0.463,0.912,0.125
45.525,-0.461,0.908,0.123
45.535,-0.465,0.910,0.123
45.545,-0.463,0.914,0.121
45.555,-0.465,0.912,0.123
45.565,-0.465,0.918,0.129
45.575,-0.463,0.918,0.129
45.585,-0.459,0.916,0.127
45.595,-0.455,0.914,0.127
45.605,-0.455,0.914,0.125
45.615,-0.457,0.910,0.127
45.625,-0.459,0.910,0.127
45.635,-0.455,0.912,0.127
45.644,-0.461,0.912,0.131
45.654,-0.457,0.912,0.127
45.664,-0.461,0.912,0.127
45.674,-0.459,0.914,0.125
45.684,-0.461,0.912,0.125
45.694,-0.461,0.910,0.125
45.704,-0.463,0.912,0.127
45.714,-0.461,0.912,0.127
45.724,-0.463,0.912,0.123
45.734,-0.461,0.912,0.125
45.744,-0.463,0.914,0.123
45.754,-0.461,0.908,0.125
45.764,-0.463,0.910,0.123
45.774,-0.463,0.914,0.123
45.784,-0.465,0.916,0.123
45.793,-0.465,0.912,0.121
45.803,-0.465,0.914,0.123
45.813,-0.463,0.914,0.121
45.823,-0.465,0.916,0.123
45.833,-0.465,0.916,0.125
45.843,-0.463,0.910,0.127
45.853,-0.463,0.910,0.125
45.863,-0.461,0.908,0.125
45.873,-0.459,0.912,0.125
45.883,-0.459,0.910,0.127
45.893,-0.457,0.910,0.127
45.903,-0.461,0.908,0.127
45.913,-0.463,0.910,0.123
45.923,-0.465,0.914,0.127
45.933,-0.463,0.914,0.123
45.942,-0.463,0.914,0.125
45.952,-0.463,0.912,0.125
45.962,-0.463,0.914,0.125
45.972,-0.465,0.912,0.127
45.982,-0.463,0.910,0.125
45.992,-0.465,0.910,0.129
46.002,-0.465,0.910,0.125
46.012,-0.463,0.910,0.123
46.022,-0.465,0.912,0.127
46.032,-0.463,0.908,0.127
46.042,-0.465,0.912,0.127
46.052,-0.465,0.910,0.123
46.062,-0.463,0.910,0.125
46.072,-0.465,0.910,0.125
46.082,-0.459,0.910,0.127
46.091,-0.465,0.910,0.127
46.101,-0.463,0.914,0.127
46.111,-0.465,0.910,0.125
46.121,-0.467,0.910,0.127
46.131,-0.467,0.910,0.127
46.141,-0.463,0.910,0.123
46.151,-0.465,0.914,0.123
46.161,-0.465,0.910,0.127
46.171,-0.465,0.912,0.125
46.181,-0.465,0.910,0.127
46.191,-0.465,0.908,0.125
46.201,-0.467,0.912,0.127
46.211,-0.467,0.916,0.125
46.221,-0.463,0.918,0.129
46.231,-0.463,0.914,0.127
46.240,-0.461,0.910,0.127
46.250,-0.459,0.910,0.129
46.260,-0.459,0.908,0.125
46.270,-0.457,0.910,0.125
46.280,-0.457,0.912,0.127
46.290,-0.455,0.910,0.127
46.300,-0.459,0.914,0.129
46.310,-0.459,0.914,0.129
46.320,-0.459,0.912,0.125
46.330,-0.461,0.912,0.125
46.340,-0.461,0.908,0.125
46.350,-0.459,0.910,0.125
46.360,-0.461,0.910,0.125
46.370,-0.463,0.912,0.127
46.380,-0.461,0.912,0.123
46.389,-0.465,0.914,0.123
46.399,-0.463,0.916,0.123
46.409,-0.461,0.914,0.127
46.419,-0.461,0.914,0.123
46.429,-0.459,0.916,0.125
46.439,-0.463,0.912,0.127
46.449,-0.457,0.910,0.125
46.459,-0.461,0.912,0.123
46.469,-0.463,0.910,0.125
46.479,-0.463,0.912,0.123
46.489,-0.459,0.914,0.125
46.499,-0.459,0.912,0.125
46.509,-0.463,0.910,0.127
46.519,-0.461,0.912,0.125
46.529,-0.461,0.914,0.127
46.538,-0.463,0.918,0.127
46.548,-0.461,0.912,0.123
46.558,-0.461,0.912,0.127
46.568,-0.465,0.912,0.125
46.578,-0.463,0.914,0.127
46.588,-0.465,0.914,0.127
46.598,-0.463,0.912,0.127
46.608,-0.465,0.912,0.125
46.618,-0.461,0.910,0.127
46.628,-0.461,0.912,0.129
46.638,-0.465,0.910,0.125
46.648,-0.465,0.908,0.127
46.658,-0.463,0.910,0.131
46.668,-0.463,0.910,0.125
46.678,-0.461,0.914,0.127
46.687,-0.461,0.910,0.129
46.697,-0.461,0.912,0.129
46.707,-0.461,0.912,0.133
46.717,-0.459,0.912,0.127
46.727,-0.465,0.910,0.129
46.737,-0.465,0.910,0.127
46.747,-0.465,0.908,0.127
46.757,-0.461,0.914,0.129
46.767,-0.461,0.910,0.127
46.777,-0.461,0.910,0.125
46.787,-0.461,0.908,0.127
46.797,-0.465,0.912,0.127
46.807,-0.463,0.912,0.123
46.817,-0.459,0.914,0.127
46.827,-0.465,0.916,0.127
46.836,-0.459,0.918,0.125
46.846,-0.459,0.912,0.127
46.856,-0.457,0.914,0.127
46.866,-0.457,0.912,0.125
46.876,-0.457,0.914,0.131
46.886,-0.457,0.918,0.125
46.896,-0.457,0.914,0.129
46.906,-0.457,0.910,0.127
46.916,-0.457,0.910,0.129
46.926,-0.455,0.910,0.127
46.936,-0.461,0.914,0.131
46.946,-0.461,0.912,0.129
46.956,-0.463,0.910,0.127
46.966,-0.463,0.910,0.127
46.976,-0.461,0.908,0.127
46.985,-0.461,0.910,0.131
46.995,-0.461,0.908,0.127
47.005,-0.461,0.908,0.127
47.015,-0.459,0.910,0.127
47.025,-0.459,0.910,0.127
47.035,-0.461,0.910,0.127
47.045,-0.461,0.912,0.129
47.055,-0.457,0.914,0.129
47.065,-0.457,0.910,0.129
47.075,-0.457,0.912,0.127
47.085,-0.457,0.914,0.129
47.095,-0.459,0.914,0.127
47.105,-0.461,0.914,0.131
47.115,-0.463,0.912,0.127
47.125,-0.463,0.916,0.131
47.134,-0.465,0.912,0.127
47.144,-0.467,0.916,0.133
47.154,-0.463,0.912,0.125
47.164,-0.465,0.910,0.129
47.174,-0.465,0.910,0.133
47.184,-0.461,0.908,0.127
47.194,-0.459,0.908,0.127
47.204,-0.463,0.908,0.131
47.214,-0.465,0.908,0.127
47.224,-0.461,0.912,0.129
47.234,-0.463,0.912,0.131
47.244,-0.465,0.914,0.129
47.254,-0.461,0.914,0.129
47.264,-0.461,0.912,0.127
47.274,-0.461,0.912,0.125
47.283,-0.461,0.910,0.127
47.293,-0.461,0.910,0.127
47.303,-0.459,0.910,0.131
47.313,-0.461,0.910,0.131
47.323,-0.455,0.914,0.131
47.333,-0.459,0.910,0.131
47.343,-0.457,0.908,0.129
47.353,-0.461,0.910,0.129
47.363,-0.459,0.916,0.129
47.373,-0.463,0.916,0.129
47.383,-0.459,0.916,0.129
47.393,-0.459,0.916,0.131
47.403,-0.459,0.916,0.129
47.413,-0.457,0.914,0.129
47.423,-0.455,0.912,0.123
47.432,-0.459,0.910,0.129
47.442,-0.457,0.910,0.131
47.452,-0.457,0.912,0.131
47.462,-0.457,0.914,0.127
47.472,-0.457,0.914,0.125
47.482,-0.459,0.914,0.129
47.492,-0.459,0.916,0.129
47.502,-0.461,0.916,0.129
47.512,-0.461,0.910,0.127
47.522,-0.461,0.914,0.125
47.532,-0.461,0.912,0.125
47.542,-0.459,0.910,0.125
47.552,-0.461,0.914,0.127
47.562,-0.459,0.910,0.127
47.572,-0.459,0.916,0.127
47.581,-0.457,0.914,0.125
47.591,-0.459,0.912,0.129
47.601,-0.459,0.914,0.129
47.611,-0.457,0.912,0.123
47.621,-0.459,0.908,0.125
47.631,-0.461,0.912,0.129
47.641,-0.459,0.914,0.127
47.651,-0.463,0.916,0.127
47.661,-0.459,0.918,0.127
47.671,-0.461,0.914,0.125
47.681,-0.463,0.914,0.129
47.691,-0.465,0.916,0.129
47.701,-0.465,0.912,0.125
47.711,-0.461,0.914,0.127
47.721,-0.465,0.910,0.125
47.730,-0.463,0.912,0.127
47.740,-0.465,0.910,0.131
47.750,-0.463,0.910,0.127
47.760,-0.465,0.910,0.129
47.770,-0.461,0.908,0.125
47.780,-0.461,0.908,0.123
47.790,-0.461,0.910,0.129
47.800,-0.461,0.910,0.131
47.810,-0.461,0.912,0.133
47.820,-0.463,0.914,0.129
47.830,-0.463,0.912,0.129
47.840,-0.463,0.910,0.127
47.850,-0.463,0.912,0.131
47.860,-0.465,0.906,0.125
47.870,-0.463,0.910,0.129
47.879,-0.463,0.910,0.131
47.889,-0.457,0.908,0.127
47.899,-0.463,0.908,0.123
47.909,-0.459,0.910,0.127
47.919,-0.463,0.914,0.129
47.929,-0.461,0.918,0.125
47.939,-0.461,0.918,0.127
47.949,-0.461,0.914,0.129
47.959,-0.459,0.914,0.127
47.969,-0.461,0.912,0.127
47.979,-0.461,0.912,0.127
47.989,-0.461,0.910,0.127
47.999,-0.459,0.910,0.127
48.009,-0.461,0.912,0.127
48.019,-0.459,0.912,0.123
48.028,-0.457,0.912,0.129
48.038,-0.459,0.914,0.129
48.048,-0.463,0.912,0.125
48.058,-0.459,0.916,0.125
48.068,-0.459,0.914,0.125
48.078,-0.461,0.916,0.127
48.088,-0.457,0.914,0.127
48.098,-0.461,0.916,0.121
48.108,-0.461,0.914,0.125
48.118,-0.459,0.910,0.125
48.128,-0.459,0.912,0.125
48.138,-0.461,0.912,0.125
48.148,-0.459,0.912,0.129
48.158,-0.459,0.914,0.125
48.168,-0.455,0.912,0.127
48.177,-0.455,0.910,0.127
48.187,-0.457,0.912,0.127
48.197,-0.461,0.916,0.127
48.207,-0.465,0.916,0.127
48.217,-0.461,0.912,0.127
48.227,-0.463,0.912,0.125
48.237,-0.467,0.914,0.125
48.247,-0.467,0.910,0.127
48.257,-0.465,0.912,0.127
48.267,-0.465,0.910,0.129
48.277,-0.469,0.910,0.127
48.287,-0.467,0.910,0.127
48.297,-0.465,0.910,0.127
48.307,-0.465,0.908,0.129
48.317,-0.467,0.908,0.125
48.326,-0.465,0.906,0.127
48.336,-0.463,0.908,0.129
48.346,-0.463,0.910,0.129
48.356,-0.463,0.912,0.133
48.366,-0.461,0.908,0.129
48.376,-0.463,0.910,0.129
48.386,-0.467,0.912,0.129
48.396,-0.469,0.908,0.127
48.406,-0.469,0.908,0.129
48.416,-0.463,0.908,0.131
48.426,-0.463,0.912,0.129
48.436,-0.463,0.910,0.129
48.446,-0.463,0.904,0.131
48.456,-0.465,0.910,0.129
48.466,-0.465,0.912,0.127
48.475,-0.467,0.914,0.129
48.485,-0.463,0.918,0.133
48.495,-0.465,0.912,0.129
48.505,-0.463,0.912,0.127
48.515,-0.461,0.912,0.125
48.525,-0.463,0.912,0.129
48.535,-0.461,0.912,0.127
48.545,-0.459,0.910,0.127
48.555,-0.459,0.914,0.131
48.565,-0.461,0.912,0.129
48.575,-0.461,0.912,0.129
48.585,-0.459,0.910,0.129
48.595,-0.461,0.910,0.127
48.605,-0.463,0.912,0.127
48.615,-0.465,0.910,0.125
48.624,-0.465,0.910,0.125
48.634,-0.465,0.908,0.125
48.644,-0.463,0.912,0.125
48.654,-0.463,0.912,0.125
48.664,-0.461,0.914,0.127
48.674,-0.461,0.912,0.125
48.684,-0.459,0.914,0.125
48.694,-0.461,0.914,0.127
48.704,-0.461,0.912,0.129
48.714,-0.459,0.912,0.123
48.724,-0.459,0.914,0.129
48.734,-0.461,0.912,0.127
48.744,-0.459,0.906,0.127
48.754,-0.459,0.910,0.123
48.764,-0.463,0.914,0.129
48.773,-0.461,0.914,0.125
48.783,-0.465,0.914,0.123
48.793,-0.463,0.910,0.127
48.803,-0.465,0.914,0.127
48.813,-0.469,0.914,0.129
48.823,-0.467,0.912,0.127
48.833,-0.467,0.908,0.125
48.843,-0.467,0.908,0.125
48.853,-0.465,0.910,0.127
48.863,-0.467,0.910,0.129
48.873,-0.467,0.910,0.127
48.883,-0.465,0.908,0.127
48.893,-0.465,0.912,0.125
48.903,-0.463,0.912,0.129
48.913,-0.463,0.912,0.127
48.922,-0.465,0.906,0.127
48.932,-0.463,0.910,0.131
48.942,-0.463,0.906,0.127
48.952,-0.467,0.912,0.123
48.962,-0.465,0.908,0.125
48.972,-0.469,0.910,0.127
48.982,-0.465,0.910,0.127
48.992,-0.467,0.914,0.129
49.002,-0.465,0.912,0.127
49.012,-0.463,0.910,0.127
49.022,-0.463,0.910,0.127
49.032,-0.465,0.912,0.129
49.042,-0.465,0.914,0.127
49.052,-0.461,0.914,0.127
49.062,-0.465,0.912,0.127
49.071,-0.463,0.916,0.125
49.081,-0.461,0.914,0.125
49.091,-0.461,0.910,0.123
49.101,-0.465,0.910,0.121
49.111,-0.461,0.910,0.125
49.121,-0.461,0.910,0.123
49.131,-0.459,0.914,0.125
49.141,-0.459,0.914,0.125
49.151,-0.461,0.912,0.125
49.161,-0.461,0.912,0.123
49.171,-0.459,0.912,0.125
49.181,-0.459,0.910,0.123
49.191,-0.459,0.910,0.123
49.201,-0.461,0.914,0.121
49.211,-0.461,0.908,0.123
49.220,-0.459,0.914,0.123
49.230,-0.459,0.916,0.121
49.240,-0.461,0.914,0.121
49.250,-0.461,0.912,0.123
49.260,-0.461,0.914,0.121
49.270,-0.459,0.914,0.125
49.280,-0.461,0.912,0.125
49.290,-0.461,0.916,0.125
49.300,-0.459,0.912,0.121
49.310,-0.463,0.912,0.119
49.320,-0.463,0.914,0.123
49.330,-0.461,0.910,0.129
49.340,-0.461,0.908,0.123
49.350,-0.463,0.910,0.125
49.360,-0.467,0.912,0.123
49.369,-0.467,0.914,0.121
49.379,-0.467,0.908,0.121
49.389,-0.469,0.912,0.125
49.399,-0.469,0.914,0.125
49.409,-0.469,0.912,0.127
49.419,-0.469,0.908,0.125
49.429,-0.467,0.910,0.125
49.439,-0.467,0.908,0.127
49.449,-0.469,0.908,0.127
49.459,-0.465,0.906,0.125
49.469,-0.467,0.908,0.125
49.479,-0.467,0.908,0.129
49.489,-0.467,0.906,0.125
49.499,-0.465,0.910,0.127
49.509,-0.463,0.912,0.125
49.518,-0.463,0.912,0.129
49.528,-0.465,0.912,0.125
49.538,-0.463,0.910,0.129
49.548,-0.467,0.912,0.127
49.558,-0.465,0.910,0.125
49.568,-0.465,0.910,0.127
49.578,-0.463,0.916,0.123
49.588,-0.463,0.914,0.129
49.598,-0.461,0.908,0.125
49.608,-0.461,0.908,0.127
49.618,-0.465,0.914,0.125
49.628,-0.465,0.914,0.125
49.638,-0.467,0.914,0.125
49.648,-0.465,0.916,0.125
49.658,-0.465,0.914,0.127
49.667,-0.463,0.912,0.127
49.677,-0.461,0.912,0.127
49.687,-0.461,0.912,0.129
49.697,-0.461,0.910,0.127
49.707,-0.461,0.908,0.127
49.717,-0.461,0.912,0.127
49.727,-0.461,0.916,0.127
49.737,-0.461,0.910,0.127
49.747,-0.459,0.910,0.127
49.757,-0.461,0.910,0.127
49.767,-0.465,0.912,0.127
49.777,-0.461,0.912,0.127
49.787,-0.461,0.914,0.125
49.797,-0.459,0.910,0.125
49.807,-0.461,0.908,0.125
49.816,-0.461,0.912,0.127
49.826,-0.461,0.912,0.123
49.836,-0.461,0.912,0.123
49.846,-0.461,0.912,0.125
49.856,-0.461,0.912,0.125
49.866,-0.461,0.912,0.121
49.876,-0.461,0.914,0.123
49.886,-0.465,0.912,0.125
49.896,-0.463,0.914,0.123
49.906,-0.463,0.916,0.121
49.916,-0.463,0.912,0.123
49.926,-0.467,0.910,0.125
49.936,-0.465,0.908,0.127
49.946,-0.463,0.910,0.129
49.956,-0.463,0.908,0.123
49.965,-0.463,0.910,0.123
49.975,-0.465,0.912,0.125
49.985,-0.467,0.914,0.125
49.995,-0.467,0.908,0.127
50.005,-0.469,0.910,0.127
50.015,-0.467,0.910,0.125
50.025,-0.473,0.910,0.127
50.035,-0.469,0.910,0.125
50.045,-0.467,0.908,0.129
50.055,-0.467,0.912,0.123
50.065,-0.467,0.910,0.125
50.075,-0.467,0.906,0.125
50.085,-0.467,0.908,0.125
50.095,-0.463,0.908,0.125
50.105,-0.463,0.908,0.125
50.114,-0.459,0.912,0.127
50.124,-0.457,0.912,0.129
50.134,-0.459,0.912,0.127
50.144,-0.461,0.910,0.125
50.154,-0.463,0.914,0.127
50.164,-0.465,0.912,0.125
50.174,-0.465,0.910,0.127
50.184,-0.467,0.910,0.125
50.194,-0.467,0.914,0.127
50.204,-0.469,0.916,0.127
50.214,-0.467,0.908,0.125
50.224,-0.469,0.906,0.127
50.234,-0.469,0.912,0.125
50.244,-0.467,0.908,0.127
50.254,-0.471,0.912,0.127
50.263,-0.467,0.910,0.129
50.273,-0.469,0.912,0.129
50.283,-0.465,0.910,0.131
50.293,-0.469,0.908,0.131
50.303,-0.469,0.906,0.129
50.313,-0.469,0.908,0.127
50.323,-0.465,0.910,0.125
50.333,-0.465,0.908,0.127
