df_hash,22ZHK4.YBNJA6
device,HZ2X61
project_hash,29R7
project_name,istanbul_aydin_university
person_hash,29R7.V8T1
person_label,V73
date_time_start,2025-11-03_13-10-52.149000_+03
date_time_start_unix,1762161052.149
date_time_end,2025-11-03_13-19-39.096000_+03
length_difference_noticed,no

time,acc_x,acc_y,acc_z
4.725,-0.705,0.816,-0.148
4.735,-0.688,0.809,-0.156
4.745,-0.660,0.795,-0.146
4.755,-0.639,0.787,-0.137
4.765,-0.648,0.777,-0.146
4.775,-0.645,0.783,-0.139
4.785,-0.627,0.791,-0.123
4.795,-0.621,0.789,-0.121
4.805,-0.623,0.785,-0.127
4.815,-0.621,0.779,-0.121
4.825,-0.613,0.781,-0.113
4.835,-0.604,0.779,-0.111
4.844,-0.578,0.787,-0.098
4.854,-0.561,0.791,-0.082
4.864,-0.557,0.791,-0.078
4.874,-0.547,0.793,-0.074
4.884,-0.562,0.797,-0.062
4.894,-0.578,0.803,-0.066
4.904,-0.576,0.816,-0.059
4.914,-0.576,0.826,-0.051
4.924,-0.598,0.834,-0.059
4.934,-0.598,0.838,-0.061
4.944,-0.580,0.850,-0.053
4.954,-0.586,0.859,-0.045
4.964,-0.586,0.842,-0.049
4.974,-0.562,0.844,-0.039
4.984,-0.559,0.840,-0.037
4.993,-0.564,0.846,-0.053
5.003,-0.568,0.816,-0.053
5.013,-0.568,0.816,-0.053
5.023,-0.574,0.811,-0.070
5.033,-0.580,0.799,-0.088
5.043,-0.600,0.785,-0.098
5.053,-0.600,0.795,-0.115
5.063,-0.592,0.807,-0.117
5.073,-0.588,0.811,-0.105
5.083,-0.582,0.814,-0.111
5.093,-0.594,0.783,-0.123
5.103,-0.611,0.762,-0.158
5.113,-0.646,0.766,-0.160
5.123,-0.662,0.770,-0.178
5.133,-0.670,0.779,-0.180
5.143,-0.674,0.783,-0.172
5.152,-0.695,0.773,-0.182
5.162,-0.707,0.768,-0.180
5.172,-0.725,0.758,-0.174
5.182,-0.725,0.768,-0.176
5.192,-0.723,0.773,-0.170
5.202,-0.729,0.775,-0.174
5.212,-0.729,0.773,-0.188
5.222,-0.725,0.797,-0.180
5.232,-0.717,0.791,-0.180
5.242,-0.711,0.793,-0.178
5.252,-0.697,0.803,-0.158
5.262,-0.682,0.809,-0.156
5.272,-0.658,0.814,-0.160
5.282,-0.645,0.797,-0.156
5.292,-0.631,0.801,-0.150
5.301,-0.629,0.797,-0.143
5.311,-0.615,0.797,-0.152
5.321,-0.600,0.801,-0.137
5.331,-0.609,0.820,-0.133
5.341,-0.613,0.816,-0.139
5.351,-0.605,0.799,-0.139
5.361,-0.611,0.799,-0.145
5.371,-0.617,0.811,-0.145
5.381,-0.619,0.789,-0.143
5.391,-0.637,0.789,-0.154
5.401,-0.652,0.789,-0.160
5.411,-0.652,0.783,-0.150
5.421,-0.660,0.795,-0.152
5.431,-0.658,0.801,-0.150
5.441,-0.662,0.797,-0.146
5.450,-0.664,0.805,-0.154
5.460,-0.684,0.809,-0.152
5.470,-0.676,0.795,-0.143
5.480,-0.670,0.797,-0.137
5.490,-0.676,0.811,-0.137
5.500,-0.699,0.809,-0.133
5.510,-0.686,0.814,-0.141
5.520,-0.676,0.799,-0.129
5.530,-0.656,0.797,-0.111
5.540,-0.662,0.801,-0.117
5.550,-0.676,0.795,-0.117
5.560,-0.656,0.801,-0.102
5.570,-0.676,0.785,-0.105
5.580,-0.656,0.777,-0.098
5.590,-0.645,0.768,-0.082
5.599,-0.658,0.768,-0.096
5.609,-0.643,0.775,-0.078
5.619,-0.637,0.775,-0.078
5.629,-0.623,0.764,-0.078
5.639,-0.609,0.762,-0.068
5.649,-0.609,0.770,-0.078
5.659,-0.605,0.781,-0.082
5.669,-0.576,0.787,-0.072
5.679,-0.564,0.787,-0.062
5.689,-0.566,0.797,-0.057
5.699,-0.559,0.807,-0.066
5.709,-0.559,0.791,-0.057
5.719,-0.561,0.805,-0.068
5.729,-0.557,0.801,-0.062
5.739,-0.561,0.805,-0.059
5.748,-0.570,0.795,-0.070
5.758,-0.596,0.789,-0.076
5.768,-0.609,0.787,-0.082
5.778,-0.615,0.803,-0.094
5.788,-0.613,0.793,-0.082
5.798,-0.646,0.785,-0.102
5.808,-0.658,0.783,-0.105
5.818,-0.670,0.781,-0.115
5.828,-0.674,0.779,-0.113
5.838,-0.680,0.771,-0.121
5.848,-0.682,0.756,-0.123
5.858,-0.719,0.760,-0.131
5.868,-0.711,0.783,-0.137
5.878,-0.711,0.799,-0.125
5.888,-0.709,0.797,-0.131
5.898,-0.713,0.789,-0.131
5.907,-0.707,0.779,-0.133
5.917,-0.717,0.777,-0.141
5.927,-0.719,0.783,-0.141
5.937,-0.727,0.787,-0.146
5.947,-0.729,0.785,-0.145
5.957,-0.732,0.799,-0.152
5.967,-0.719,0.787,-0.141
5.977,-0.729,0.785,-0.150
5.987,-0.721,0.779,-0.150
5.997,-0.721,0.770,-0.141
6.007,-0.723,0.773,-0.148
6.017,-0.715,0.768,-0.145
6.027,-0.707,0.777,-0.133
6.037,-0.701,0.789,-0.133
6.047,-0.695,0.789,-0.139
6.056,-0.693,0.789,-0.131
6.066,-0.688,0.787,-0.139
6.076,-0.674,0.777,-0.127
6.086,-0.668,0.775,-0.123
6.096,-0.668,0.773,-0.113
6.106,-0.643,0.783,-0.109
6.116,-0.639,0.787,-0.102
6.126,-0.627,0.795,-0.090
6.136,-0.615,0.793,-0.084
6.146,-0.619,0.783,-0.080
6.156,-0.621,0.803,-0.090
6.166,-0.586,0.795,-0.059
6.176,-0.584,0.801,-0.053
6.186,-0.584,0.795,-0.062
6.196,-0.572,0.803,-0.047
6.205,-0.572,0.824,-0.051
6.215,-0.580,0.807,-0.039
6.225,-0.578,0.822,-0.045
6.235,-0.537,0.816,-0.029
6.245,-0.537,0.820,-0.016
6.255,-0.555,0.805,-0.029
6.265,-0.564,0.795,-0.029
6.275,-0.562,0.789,-0.031
6.285,-0.584,0.775,-0.037
6.295,-0.621,0.771,-0.055
6.305,-0.652,0.760,-0.062
6.315,-0.672,0.756,-0.076
6.325,-0.680,0.758,-0.080
6.335,-0.711,0.777,-0.096
6.345,-0.732,0.783,-0.102
6.354,-0.730,0.764,-0.104
6.364,-0.730,0.789,-0.121
6.374,-0.734,0.805,-0.113
6.384,-0.740,0.795,-0.123
6.394,-0.762,0.785,-0.125
6.404,-0.734,0.787,-0.135
6.414,-0.715,0.793,-0.129
6.424,-0.711,0.791,-0.135
6.434,-0.689,0.783,-0.131
6.444,-0.680,0.797,-0.125
6.454,-0.676,0.797,-0.125
6.464,-0.672,0.807,-0.131
6.474,-0.658,0.807,-0.115
6.484,-0.639,0.809,-0.115
6.494,-0.639,0.801,-0.113
6.503,-0.621,0.811,-0.121
6.513,-0.615,0.809,-0.096
6.523,-0.625,0.801,-0.104
6.533,-0.635,0.814,-0.119
6.543,-0.619,0.809,-0.092
6.553,-0.627,0.807,-0.104
6.563,-0.639,0.789,-0.111
6.573,-0.627,0.775,-0.102
6.583,-0.635,0.777,-0.107
6.593,-0.641,0.766,-0.102
6.603,-0.633,0.775,-0.102
6.613,-0.641,0.777,-0.098
6.623,-0.650,0.777,-0.098
6.633,-0.639,0.777,-0.086
6.643,-0.639,0.777,-0.088
6.653,-0.646,0.785,-0.080
6.662,-0.646,0.789,-0.074
6.672,-0.650,0.793,-0.074
6.682,-0.652,0.797,-0.080
6.692,-0.650,0.789,-0.070
6.702,-0.648,0.789,-0.072
6.712,-0.648,0.789,-0.072
6.722,-0.652,0.787,-0.074
6.732,-0.658,0.781,-0.086
6.742,-0.660,0.787,-0.082
6.752,-0.658,0.785,-0.074
6.762,-0.670,0.787,-0.090
6.772,-0.654,0.791,-0.086
6.782,-0.652,0.793,-0.080
6.792,-0.654,0.791,-0.090
6.802,-0.658,0.785,-0.088
6.811,-0.660,0.783,-0.094
6.821,-0.658,0.781,-0.092
6.831,-0.662,0.781,-0.098
6.841,-0.660,0.789,-0.096
6.851,-0.670,0.783,-0.105
6.861,-0.662,0.787,-0.102
6.871,-0.654,0.793,-0.098
6.881,-0.662,0.787,-0.102
6.891,-0.656,0.789,-0.104
6.901,-0.660,0.787,-0.102
6.911,-0.666,0.795,-0.113
6.921,-0.664,0.807,-0.102
6.931,-0.672,0.807,-0.107
6.941,-0.672,0.801,-0.107
6.951,-0.674,0.805,-0.107
6.960,-0.676,0.801,-0.107
6.970,-0.680,0.799,-0.109
6.980,-0.676,0.795,-0.109
6.990,-0.660,0.789,-0.104
7.000,-0.662,0.773,-0.105
7.010,-0.672,0.775,-0.105
7.020,-0.670,0.775,-0.100
7.030,-0.676,0.773,-0.098
7.040,-0.668,0.779,-0.098
7.050,-0.674,0.773,-0.096
7.060,-0.670,0.775,-0.094
7.070,-0.664,0.781,-0.086
7.080,-0.666,0.789,-0.088
7.090,-0.660,0.787,-0.088
7.100,-0.676,0.775,-0.084
7.109,-0.658,0.779,-0.092
7.119,-0.654,0.781,-0.082
7.129,-0.656,0.773,-0.088
7.139,-0.668,0.770,-0.092
7.149,-0.666,0.771,-0.092
7.159,-0.670,0.768,-0.088
7.169,-0.678,0.768,-0.090
7.179,-0.682,0.770,-0.096
7.189,-0.666,0.760,-0.092
7.199,-0.670,0.764,-0.096
7.209,-0.688,0.756,-0.102
7.219,-0.676,0.764,-0.104
7.229,-0.674,0.762,-0.098
7.239,-0.674,0.775,-0.100
7.249,-0.672,0.787,-0.102
7.258,-0.684,0.777,-0.102
7.268,-0.668,0.785,-0.102
7.278,-0.674,0.783,-0.094
7.288,-0.680,0.781,-0.107
7.298,-0.672,0.783,-0.102
7.308,-0.672,0.777,-0.102
7.318,-0.674,0.777,-0.104
7.328,-0.676,0.779,-0.104
7.338,-0.680,0.779,-0.102
7.348,-0.674,0.775,-0.102
7.358,-0.674,0.783,-0.098
7.368,-0.666,0.783,-0.096
7.378,-0.672,0.781,-0.096
7.388,-0.668,0.779,-0.098
7.398,-0.666,0.781,-0.102
7.408,-0.666,0.775,-0.102
7.417,-0.670,0.777,-0.102
7.427,-0.670,0.781,-0.092
7.437,-0.674,0.781,-0.102
7.447,-0.680,0.783,-0.102
7.457,-0.670,0.783,-0.094
7.467,-0.672,0.785,-0.096
7.477,-0.672,0.779,-0.102
7.487,-0.670,0.783,-0.094
7.497,-0.676,0.787,-0.102
7.507,-0.676,0.783,-0.102
7.517,-0.670,0.783,-0.098
7.527,-0.670,0.781,-0.096
7.537,-0.674,0.781,-0.094
7.547,-0.680,0.779,-0.100
7.557,-0.672,0.781,-0.096
7.566,-0.668,0.777,-0.092
7.576,-0.666,0.779,-0.092
7.586,-0.668,0.779,-0.098
7.596,-0.672,0.777,-0.092
7.606,-0.662,0.783,-0.088
7.616,-0.654,0.781,-0.094
7.626,-0.656,0.781,-0.094
7.636,-0.654,0.777,-0.094
7.646,-0.646,0.783,-0.096
7.656,-0.646,0.787,-0.090
7.666,-0.646,0.787,-0.094
7.676,-0.646,0.787,-0.092
7.686,-0.650,0.789,-0.094
7.696,-0.648,0.795,-0.098
7.706,-0.656,0.795,-0.096
7.715,-0.656,0.803,-0.098
7.725,-0.650,0.805,-0.100
7.735,-0.643,0.807,-0.105
7.745,-0.648,0.805,-0.094
7.755,-0.648,0.803,-0.104
7.765,-0.660,0.809,-0.098
7.775,-0.656,0.811,-0.100
7.785,-0.660,0.814,-0.102
7.795,-0.660,0.818,-0.100
7.805,-0.658,0.822,-0.105
7.815,-0.648,0.816,-0.098
7.825,-0.650,0.818,-0.098
7.835,-0.645,0.822,-0.094
7.845,-0.637,0.820,-0.096
7.855,-0.652,0.814,-0.105
7.864,-0.643,0.822,-0.096
7.874,-0.641,0.828,-0.084
7.884,-0.643,0.828,-0.090
7.894,-0.643,0.822,-0.082
7.904,-0.641,0.811,-0.082
7.914,-0.639,0.814,-0.078
7.924,-0.633,0.812,-0.076
7.934,-0.635,0.807,-0.070
7.944,-0.631,0.803,-0.068
7.954,-0.623,0.793,-0.064
7.964,-0.621,0.793,-0.064
7.974,-0.627,0.789,-0.061
7.984,-0.619,0.793,-0.059
7.994,-0.619,0.795,-0.049
8.004,-0.619,0.791,-0.049
8.013,-0.631,0.791,-0.049
8.023,-0.621,0.787,-0.045
8.033,-0.621,0.795,-0.039
8.043,-0.625,0.797,-0.049
8.053,-0.621,0.795,-0.041
8.063,-0.623,0.799,-0.043
8.073,-0.629,0.793,-0.043
8.083,-0.633,0.803,-0.053
8.093,-0.633,0.793,-0.049
8.103,-0.645,0.799,-0.047
8.113,-0.650,0.797,-0.049
8.123,-0.648,0.791,-0.053
8.133,-0.650,0.787,-0.057
8.143,-0.658,0.789,-0.055
8.153,-0.662,0.793,-0.059
8.163,-0.658,0.791,-0.057
8.172,-0.656,0.787,-0.059
8.182,-0.664,0.793,-0.061
8.192,-0.662,0.789,-0.059
8.202,-0.674,0.779,-0.055
8.212,-0.670,0.783,-0.064
8.222,-0.674,0.779,-0.061
8.232,-0.680,0.785,-0.068
8.242,-0.682,0.777,-0.057
8.252,-0.691,0.777,-0.066
8.262,-0.691,0.781,-0.066
8.272,-0.678,0.787,-0.062
8.282,-0.684,0.785,-0.062
8.292,-0.688,0.779,-0.068
8.302,-0.688,0.785,-0.064
8.312,-0.682,0.785,-0.064
8.321,-0.689,0.787,-0.064
8.331,-0.676,0.801,-0.070
8.341,-0.689,0.803,-0.070
8.351,-0.699,0.799,-0.078
8.361,-0.676,0.801,-0.064
8.371,-0.691,0.805,-0.072
8.381,-0.686,0.814,-0.090
8.391,-0.658,0.824,-0.061
8.401,-0.666,0.840,-0.080
8.411,-0.672,0.850,-0.084
8.421,-0.678,0.846,-0.076
8.431,-0.670,0.848,-0.082
8.441,-0.709,0.832,-0.080
8.451,-0.705,0.820,-0.088
8.461,-0.703,0.801,-0.070
8.470,-0.713,0.783,-0.074
8.480,-0.713,0.771,-0.072
8.490,-0.703,0.764,-0.062
8.500,-0.689,0.777,-0.059
8.510,-0.682,0.781,-0.035
8.520,-0.676,0.773,-0.043
8.530,-0.662,0.775,-0.025
8.540,-0.635,0.777,-0.016
8.550,-0.609,0.783,-0.010
8.560,-0.605,0.797,-0.004
8.570,-0.598,0.799,-0.008
8.580,-0.590,0.811,0.000
8.590,-0.578,0.820,0.008
8.600,-0.574,0.828,0.006
8.610,-0.572,0.830,0.004
8.619,-0.580,0.826,0.008
8.629,-0.570,0.832,0.000
8.639,-0.574,0.840,0.014
8.649,-0.578,0.830,0.002
8.659,-0.570,0.826,0.010
8.669,-0.572,0.836,0.016
8.679,-0.580,0.840,0.016
8.689,-0.590,0.840,0.016
8.699,-0.584,0.840,0.020
8.709,-0.588,0.842,0.021
8.719,-0.590,0.842,0.020
8.729,-0.598,0.852,0.021
8.739,-0.600,0.855,0.025
8.749,-0.604,0.857,0.021
8.759,-0.598,0.852,0.025
8.769,-0.602,0.838,0.027
8.778,-0.604,0.842,0.029
8.788,-0.605,0.832,0.031
8.798,-0.604,0.828,0.023
8.808,-0.598,0.824,0.037
8.818,-0.605,0.818,0.031
8.828,-0.605,0.824,0.023
8.838,-0.604,0.830,0.033
8.848,-0.611,0.838,0.025
8.858,-0.602,0.846,0.021
8.868,-0.594,0.854,0.027
8.878,-0.588,0.863,0.033
8.888,-0.584,0.855,0.033
8.898,-0.582,0.852,0.031
8.908,-0.582,0.842,0.031
8.918,-0.562,0.848,0.033
8.927,-0.564,0.850,0.041
8.937,-0.568,0.850,0.027
8.947,-0.559,0.852,0.029
8.957,-0.559,0.855,0.037
8.967,-0.562,0.857,0.029
8.977,-0.570,0.850,0.029
8.987,-0.568,0.846,0.031
8.997,-0.574,0.848,0.031
9.007,-0.574,0.846,0.031
9.017,-0.568,0.850,0.029
9.027,-0.572,0.850,0.031
9.037,-0.572,0.846,0.027
9.047,-0.570,0.836,0.031
9.057,-0.580,0.836,0.031
9.067,-0.586,0.840,0.027
9.076,-0.586,0.834,0.033
9.086,-0.598,0.838,0.025
9.096,-0.602,0.832,0.025
9.106,-0.607,0.830,0.020
9.116,-0.613,0.820,0.014
9.126,-0.615,0.809,0.002
9.136,-0.625,0.812,0.006
9.146,-0.639,0.812,0.002
9.156,-0.629,0.814,-0.006
9.166,-0.631,0.826,0.000
9.176,-0.635,0.812,-0.002
9.186,-0.635,0.811,0.000
9.196,-0.635,0.814,-0.010
9.206,-0.645,0.811,-0.014
9.216,-0.664,0.809,-0.021
9.225,-0.637,0.822,-0.016
9.235,-0.637,0.820,-0.010
9.245,-0.637,0.818,-0.020
9.255,-0.648,0.834,-0.025
9.265,-0.645,0.857,-0.031
9.275,-0.635,0.879,-0.039
9.285,-0.625,0.891,-0.035
9.295,-0.637,0.896,-0.041
9.305,-0.645,0.885,-0.061
9.315,-0.629,0.887,-0.055
9.325,-0.619,0.896,-0.051
9.335,-0.607,0.895,-0.066
9.345,-0.594,0.889,-0.062
9.355,-0.572,0.885,-0.064
9.365,-0.572,0.879,-0.066
9.374,-0.578,0.881,-0.072
9.384,-0.576,0.875,-0.074
9.394,-0.562,0.865,-0.076
9.404,-0.551,0.859,-0.074
9.414,-0.539,0.861,-0.078
9.424,-0.531,0.857,-0.076
9.434,-0.523,0.848,-0.074
9.444,-0.518,0.840,-0.082
9.454,-0.510,0.838,-0.080
9.464,-0.510,0.840,-0.088
9.474,-0.498,0.846,-0.084
9.484,-0.500,0.850,-0.078
9.494,-0.502,0.855,-0.090
9.504,-0.512,0.855,-0.088
9.514,-0.520,0.852,-0.100
9.524,-0.523,0.863,-0.096
9.533,-0.521,0.869,-0.092
9.543,-0.525,0.879,-0.090
9.553,-0.529,0.883,-0.090
9.563,-0.529,0.887,-0.092
9.573,-0.525,0.889,-0.082
9.583,-0.523,0.889,-0.078
9.593,-0.527,0.889,-0.074
9.603,-0.529,0.879,-0.078
9.613,-0.531,0.873,-0.080
9.623,-0.533,0.861,-0.074
9.633,-0.529,0.848,-0.068
9.643,-0.523,0.832,-0.062
9.653,-0.549,0.814,-0.057
9.663,-0.572,0.812,-0.057
9.673,-0.574,0.807,-0.053
9.682,-0.580,0.824,-0.051
9.692,-0.598,0.832,-0.049
9.702,-0.604,0.822,-0.053
9.712,-0.602,0.795,-0.059
9.722,-0.598,0.791,-0.057
9.732,-0.611,0.809,-0.055
9.742,-0.629,0.830,-0.049
9.752,-0.625,0.842,-0.053
9.762,-0.631,0.852,-0.051
9.772,-0.645,0.857,-0.051
9.782,-0.652,0.867,-0.051
9.792,-0.656,0.871,-0.045
9.802,-0.664,0.865,-0.049
9.812,-0.664,0.861,-0.047
9.822,-0.668,0.848,-0.047
9.831,-0.664,0.838,-0.049
9.841,-0.658,0.838,-0.043
9.851,-0.660,0.834,-0.037
9.861,-0.654,0.836,-0.047
9.871,-0.650,0.830,-0.033
9.881,-0.641,0.840,-0.035
9.891,-0.646,0.820,-0.033
9.901,-0.635,0.820,-0.039
9.911,-0.641,0.812,-0.029
9.921,-0.641,0.818,-0.041
9.931,-0.623,0.830,-0.031
9.941,-0.619,0.822,-0.031
9.951,-0.635,0.824,-0.037
9.961,-0.623,0.818,-0.035
9.971,-0.613,0.811,-0.037
9.980,-0.611,0.814,-0.043
9.990,-0.605,0.820,-0.039
10.000,-0.602,0.832,-0.039
10.010,-0.600,0.834,-0.041
10.020,-0.605,0.834,-0.039
10.030,-0.611,0.832,-0.045
10.040,-0.607,0.824,-0.045
10.050,-0.604,0.828,-0.043
10.060,-0.615,0.828,-0.041
10.070,-0.617,0.822,-0.047
10.080,-0.617,0.818,-0.049
10.090,-0.629,0.814,-0.049
10.100,-0.639,0.809,-0.055
10.110,-0.648,0.811,-0.057
10.120,-0.645,0.814,-0.064
10.129,-0.645,0.816,-0.057
10.139,-0.643,0.820,-0.057
10.149,-0.631,0.826,-0.057
10.159,-0.621,0.830,-0.051
10.169,-0.615,0.830,-0.047
10.179,-0.609,0.830,-0.039
10.189,-0.611,0.830,-0.029
10.199,-0.621,0.832,-0.031
10.209,-0.619,0.834,-0.029
10.219,-0.609,0.836,-0.029
10.229,-0.596,0.836,-0.029
10.239,-0.592,0.834,-0.029
10.249,-0.590,0.848,-0.035
10.259,-0.578,0.846,-0.031
10.269,-0.578,0.834,-0.020
10.279,-0.580,0.834,-0.023
10.288,-0.570,0.838,-0.023
10.298,-0.568,0.840,-0.025
10.308,-0.572,0.844,-0.023
10.318,-0.566,0.852,-0.021
10.328,-0.570,0.844,-0.027
10.338,-0.572,0.850,-0.023
10.348,-0.584,0.840,-0.025
10.358,-0.613,0.826,-0.037
10.368,-0.605,0.832,-0.043
10.378,-0.611,0.846,-0.033
10.388,-0.625,0.832,-0.045
10.398,-0.633,0.809,-0.059
10.408,-0.633,0.811,-0.059
10.418,-0.629,0.807,-0.061
10.428,-0.621,0.807,-0.062
10.437,-0.621,0.822,-0.061
10.447,-0.627,0.822,-0.062
10.457,-0.637,0.820,-0.068
10.467,-0.629,0.844,-0.068
10.477,-0.637,0.846,-0.055
10.487,-0.631,0.840,-0.074
10.497,-0.602,0.842,-0.066
10.507,-0.580,0.836,-0.057
10.517,-0.562,0.828,-0.053
10.527,-0.559,0.842,-0.037
10.537,-0.557,0.838,-0.037
10.547,-0.551,0.836,-0.043
10.557,-0.549,0.838,-0.043
10.567,-0.551,0.838,-0.057
10.577,-0.570,0.826,-0.051
10.586,-0.580,0.822,-0.068
10.596,-0.594,0.818,-0.072
10.606,-0.590,0.836,-0.084
10.616,-0.586,0.834,-0.084
10.626,-0.590,0.822,-0.090
10.636,-0.609,0.812,-0.107
10.646,-0.635,0.807,-0.121
10.656,-0.646,0.811,-0.131
10.666,-0.660,0.793,-0.137
10.676,-0.689,0.781,-0.162
10.686,-0.727,0.762,-0.188
10.696,-0.754,0.742,-0.189
10.706,-0.773,0.756,-0.191
10.716,-0.779,0.770,-0.182
10.726,-0.764,0.789,-0.172
10.735,-0.764,0.799,-0.154
10.745,-0.766,0.818,-0.150
10.755,-0.738,0.807,-0.156
10.765,-0.705,0.795,-0.143
10.775,-0.684,0.805,-0.129
10.785,-0.652,0.803,-0.127
10.795,-0.648,0.801,-0.119
10.805,-0.631,0.805,-0.119
10.815,-0.605,0.793,-0.102
10.825,-0.604,0.801,-0.104
10.835,-0.598,0.793,-0.104
10.845,-0.594,0.793,-0.100
10.855,-0.600,0.787,-0.092
10.865,-0.604,0.791,-0.094
10.875,-0.604,0.797,-0.100
10.884,-0.598,0.797,-0.090
10.894,-0.611,0.801,-0.100
10.904,-0.615,0.799,-0.096
10.914,-0.623,0.807,-0.098
10.924,-0.637,0.801,-0.102
10.934,-0.633,0.791,-0.104
10.944,-0.639,0.779,-0.104
10.954,-0.670,0.783,-0.119
10.964,-0.686,0.801,-0.117
10.974,-0.674,0.814,-0.111
10.984,-0.662,0.820,-0.109
10.994,-0.658,0.814,-0.105
11.004,-0.648,0.807,-0.105
11.014,-0.646,0.818,-0.102
11.024,-0.652,0.816,-0.096
11.034,-0.645,0.812,-0.088
11.043,-0.643,0.814,-0.090
11.053,-0.617,0.803,-0.088
11.063,-0.607,0.809,-0.084
11.073,-0.594,0.807,-0.080
11.083,-0.584,0.795,-0.076
11.093,-0.584,0.793,-0.082
11.103,-0.594,0.789,-0.084
11.113,-0.621,0.777,-0.096
11.123,-0.627,0.770,-0.105
11.133,-0.639,0.764,-0.105
11.143,-0.668,0.752,-0.123
11.153,-0.699,0.752,-0.137
11.163,-0.715,0.768,-0.131
11.173,-0.721,0.771,-0.127
11.183,-0.732,0.781,-0.127
11.192,-0.732,0.783,-0.117
11.202,-0.721,0.791,-0.115
11.212,-0.699,0.809,-0.109
11.222,-0.693,0.803,-0.111
11.232,-0.676,0.803,-0.111
11.242,-0.656,0.805,-0.096
11.252,-0.652,0.809,-0.084
11.262,-0.629,0.807,-0.090
11.272,-0.623,0.793,-0.082
11.282,-0.607,0.801,-0.090
11.292,-0.594,0.809,-0.078
11.302,-0.582,0.811,-0.070
11.312,-0.580,0.838,-0.080
11.322,-0.588,0.842,-0.084
11.332,-0.604,0.836,-0.094
11.341,-0.596,0.846,-0.080
11.351,-0.602,0.854,-0.078
11.361,-0.611,0.844,-0.080
11.371,-0.615,0.852,-0.082
11.381,-0.617,0.824,-0.082
11.391,-0.609,0.801,-0.092
11.401,-0.625,0.816,-0.092
11.411,-0.635,0.807,-0.105
11.421,-0.623,0.816,-0.098
11.431,-0.635,0.811,-0.098
11.441,-0.672,0.820,-0.109
11.451,-0.670,0.826,-0.111
11.461,-0.670,0.818,-0.102
11.471,-0.666,0.824,-0.117
11.481,-0.654,0.816,-0.100
11.490,-0.637,0.820,-0.092
11.500,-0.645,0.809,-0.102
11.510,-0.641,0.801,-0.098
11.520,-0.631,0.805,-0.096
11.530,-0.615,0.803,-0.100
11.540,-0.619,0.764,-0.104
11.550,-0.613,0.756,-0.111
11.560,-0.584,0.740,-0.105
11.570,-0.586,0.752,-0.109
11.580,-0.588,0.752,-0.105
11.590,-0.594,0.770,-0.113
11.600,-0.590,0.787,-0.111
11.610,-0.604,0.801,-0.109
11.620,-0.613,0.809,-0.113
11.630,-0.598,0.803,-0.115
11.640,-0.613,0.799,-0.113
11.649,-0.639,0.814,-0.115
11.659,-0.641,0.820,-0.107
11.669,-0.678,0.811,-0.113
11.679,-0.701,0.811,-0.131
11.689,-0.715,0.789,-0.123
11.699,-0.738,0.779,-0.127
11.709,-0.744,0.770,-0.127
11.719,-0.754,0.773,-0.125
11.729,-0.744,0.768,-0.125
11.739,-0.721,0.770,-0.115
11.749,-0.723,0.764,-0.111
11.759,-0.686,0.773,-0.104
11.769,-0.680,0.775,-0.084
11.779,-0.693,0.766,-0.100
11.789,-0.678,0.764,-0.088
11.798,-0.676,0.762,-0.092
11.808,-0.680,0.742,-0.102
11.818,-0.662,0.715,-0.104
11.828,-0.658,0.715,-0.098
11.838,-0.654,0.750,-0.086
11.848,-0.631,0.771,-0.072
11.858,-0.596,0.781,-0.066
11.868,-0.564,0.773,-0.049
11.878,-0.574,0.770,-0.064
11.888,-0.605,0.760,-0.092
11.898,-0.660,0.777,-0.111
11.908,-0.709,0.775,-0.137
11.918,-0.727,0.793,-0.152
11.928,-0.740,0.791,-0.154
11.938,-0.756,0.770,-0.172
11.947,-0.740,0.768,-0.168
11.957,-0.719,0.773,-0.174
11.967,-0.678,0.779,-0.152
11.977,-0.646,0.789,-0.135
11.987,-0.623,0.775,-0.131
11.997,-0.621,0.771,-0.125
12.007,-0.613,0.766,-0.127
12.017,-0.600,0.771,-0.125
12.027,-0.590,0.785,-0.125
12.037,-0.574,0.795,-0.117
12.047,-0.592,0.797,-0.119
12.057,-0.621,0.773,-0.131
12.067,-0.637,0.771,-0.135
12.077,-0.643,0.783,-0.135
12.087,-0.652,0.793,-0.145
12.096,-0.654,0.787,-0.137
12.106,-0.650,0.801,-0.137
12.116,-0.662,0.799,-0.135
12.126,-0.674,0.799,-0.145
12.136,-0.666,0.797,-0.139
12.146,-0.674,0.791,-0.145
12.156,-0.670,0.787,-0.143
12.166,-0.654,0.785,-0.141
12.176,-0.658,0.795,-0.135
12.186,-0.660,0.793,-0.145
12.196,-0.656,0.797,-0.133
12.206,-0.662,0.789,-0.131
12.216,-0.660,0.785,-0.123
12.226,-0.658,0.781,-0.123
12.236,-0.660,0.773,-0.125
12.245,-0.654,0.773,-0.133
12.255,-0.664,0.758,-0.129
12.265,-0.650,0.781,-0.137
12.275,-0.650,0.789,-0.135
12.285,-0.641,0.803,-0.141
12.295,-0.643,0.807,-0.139
12.305,-0.652,0.816,-0.154
12.315,-0.637,0.816,-0.146
12.325,-0.639,0.809,-0.152
12.335,-0.621,0.805,-0.150
12.345,-0.627,0.811,-0.152
12.355,-0.625,0.811,-0.148
12.365,-0.635,0.805,-0.152
12.375,-0.633,0.801,-0.146
12.385,-0.637,0.797,-0.148
12.395,-0.645,0.789,-0.146
12.404,-0.648,0.779,-0.148
12.414,-0.650,0.787,-0.164
12.424,-0.645,0.781,-0.137
12.434,-0.643,0.797,-0.148
12.444,-0.639,0.799,-0.143
12.454,-0.645,0.801,-0.145
12.464,-0.648,0.799,-0.143
12.474,-0.646,0.803,-0.141
12.484,-0.645,0.795,-0.143
12.494,-0.639,0.791,-0.148
12.504,-0.645,0.797,-0.139
12.514,-0.645,0.805,-0.143
12.524,-0.629,0.805,-0.129
12.534,-0.635,0.805,-0.131
12.544,-0.643,0.803,-0.129
12.553,-0.645,0.801,-0.127
12.563,-0.645,0.797,-0.125
12.573,-0.637,0.789,-0.133
12.583,-0.639,0.775,-0.127
12.593,-0.645,0.775,-0.129
12.603,-0.650,0.771,-0.125
12.613,-0.650,0.775,-0.129
12.623,-0.654,0.779,-0.119
12.633,-0.654,0.777,-0.129
12.643,-0.666,0.775,-0.125
12.653,-0.664,0.779,-0.125
12.663,-0.662,0.777,-0.131
12.673,-0.654,0.781,-0.121
12.683,-0.660,0.785,-0.127
12.693,-0.664,0.789,-0.133
12.702,-0.654,0.789,-0.121
12.712,-0.654,0.787,-0.123
12.722,-0.641,0.781,-0.121
12.732,-0.643,0.783,-0.113
12.742,-0.656,0.789,-0.125
12.752,-0.652,0.793,-0.115
12.762,-0.650,0.787,-0.117
12.772,-0.645,0.791,-0.115
12.782,-0.652,0.793,-0.113
12.792,-0.650,0.791,-0.121
12.802,-0.646,0.793,-0.111
12.812,-0.645,0.789,-0.113
12.822,-0.639,0.797,-0.115
12.832,-0.643,0.795,-0.117
12.842,-0.645,0.791,-0.117
12.851,-0.646,0.803,-0.119
12.861,-0.643,0.799,-0.109
12.871,-0.641,0.805,-0.113
12.881,-0.637,0.803,-0.115
12.891,-0.643,0.799,-0.117
12.901,-0.643,0.803,-0.129
12.911,-0.650,0.799,-0.119
12.921,-0.643,0.799,-0.121
12.931,-0.648,0.797,-0.119
12.941,-0.648,0.789,-0.115
12.951,-0.646,0.793,-0.123
12.961,-0.645,0.791,-0.119
12.971,-0.643,0.793,-0.115
12.981,-0.646,0.791,-0.117
12.991,-0.656,0.787,-0.119
13.000,-0.643,0.787,-0.121
13.010,-0.639,0.789,-0.107
13.020,-0.646,0.783,-0.115
13.030,-0.648,0.785,-0.117
13.040,-0.650,0.787,-0.111
13.050,-0.650,0.791,-0.113
13.060,-0.648,0.791,-0.119
13.070,-0.656,0.785,-0.113
13.080,-0.650,0.791,-0.115
13.090,-0.654,0.789,-0.115
13.100,-0.662,0.787,-0.117
13.110,-0.656,0.797,-0.117
13.120,-0.658,0.783,-0.117
13.130,-0.656,0.785,-0.117
13.140,-0.654,0.787,-0.115
13.150,-0.652,0.791,-0.117
13.159,-0.654,0.791,-0.115
13.169,-0.654,0.791,-0.117
13.179,-0.652,0.787,-0.117
13.189,-0.652,0.785,-0.113
13.199,-0.652,0.789,-0.119
13.209,-0.650,0.787,-0.121
13.219,-0.658,0.787,-0.119
13.229,-0.654,0.787,-0.119
13.239,-0.645,0.787,-0.113
13.249,-0.641,0.787,-0.107
13.259,-0.643,0.785,-0.109
13.269,-0.650,0.787,-0.115
13.279,-0.645,0.791,-0.109
13.289,-0.646,0.793,-0.111
13.299,-0.652,0.793,-0.111
13.308,-0.650,0.797,-0.111
13.318,-0.648,0.797,-0.107
13.328,-0.648,0.797,-0.107
13.338,-0.648,0.795,-0.107
13.348,-0.646,0.797,-0.113
13.358,-0.648,0.797,-0.115
13.368,-0.652,0.801,-0.113
13.378,-0.654,0.793,-0.117
13.388,-0.648,0.789,-0.109
13.398,-0.641,0.791,-0.109
13.408,-0.645,0.795,-0.109
13.418,-0.645,0.797,-0.107
13.428,-0.645,0.797,-0.109
13.438,-0.643,0.791,-0.113
13.448,-0.645,0.793,-0.109
13.457,-0.648,0.791,-0.107
13.467,-0.650,0.795,-0.113
13.477,-0.648,0.791,-0.107
13.487,-0.650,0.797,-0.107
13.497,-0.652,0.795,-0.113
13.507,-0.643,0.797,-0.104
13.517,-0.645,0.797,-0.104
13.527,-0.646,0.801,-0.109
13.537,-0.645,0.795,-0.107
13.547,-0.645,0.801,-0.104
13.557,-0.654,0.797,-0.109
13.567,-0.643,0.801,-0.109
13.577,-0.643,0.795,-0.102
13.587,-0.643,0.799,-0.102
13.597,-0.646,0.799,-0.102
13.606,-0.648,0.799,-0.105
13.616,-0.639,0.797,-0.105
13.626,-0.639,0.795,-0.100
13.636,-0.639,0.799,-0.105
13.646,-0.633,0.795,-0.102
13.656,-0.643,0.795,-0.107
13.666,-0.645,0.797,-0.102
13.676,-0.645,0.795,-0.104
13.686,-0.646,0.803,-0.105
13.696,-0.645,0.799,-0.104
13.706,-0.623,0.795,-0.102
13.716,-0.625,0.807,-0.098
13.726,-0.633,0.797,-0.098
13.736,-0.627,0.801,-0.102
13.746,-0.635,0.805,-0.104
13.755,-0.639,0.801,-0.098
13.765,-0.648,0.791,-0.104
13.775,-0.654,0.793,-0.115
13.785,-0.650,0.795,-0.102
13.795,-0.656,0.799,-0.115
13.805,-0.660,0.803,-0.107
13.815,-0.662,0.803,-0.109
13.825,-0.658,0.809,-0.109
13.835,-0.650,0.805,-0.111
13.845,-0.637,0.801,-0.109
13.855,-0.635,0.805,-0.105
13.865,-0.645,0.805,-0.107
13.875,-0.648,0.797,-0.109
13.885,-0.646,0.793,-0.104
13.895,-0.650,0.795,-0.104
13.905,-0.658,0.797,-0.109
13.914,-0.648,0.793,-0.107
13.924,-0.633,0.783,-0.100
13.934,-0.633,0.793,-0.100
13.944,-0.637,0.797,-0.100
13.954,-0.609,0.805,-0.098
13.964,-0.596,0.812,-0.086
13.974,-0.598,0.811,-0.096
13.984,-0.592,0.824,-0.096
13.994,-0.604,0.826,-0.094
14.004,-0.615,0.828,-0.104
14.014,-0.611,0.832,-0.113
14.024,-0.613,0.830,-0.098
14.034,-0.639,0.824,-0.100
14.044,-0.639,0.848,-0.107
14.054,-0.662,0.832,-0.119
14.063,-0.707,0.805,-0.143
14.073,-0.723,0.809,-0.135
14.083,-0.715,0.822,-0.127
14.093,-0.723,0.809,-0.137
14.103,-0.727,0.811,-0.133
14.113,-0.721,0.816,-0.113
14.123,-0.703,0.820,-0.117
14.133,-0.664,0.830,-0.100
14.143,-0.635,0.834,-0.080
14.153,-0.613,0.844,-0.074
14.163,-0.576,0.830,-0.070
14.173,-0.547,0.832,-0.064
14.183,-0.492,0.826,-0.051
14.193,-0.455,0.824,-0.029
14.203,-0.426,0.854,-0.029
14.212,-0.361,0.875,0.002
14.222,-0.359,0.893,0.029
14.232,-0.371,0.885,0.006
14.242,-0.410,0.891,0.000
14.252,-0.453,0.893,-0.008
14.262,-0.475,0.922,-0.025
14.272,-0.488,0.910,-0.041
14.282,-0.498,0.906,-0.047
14.292,-0.520,0.914,-0.043
14.302,-0.547,0.908,-0.061
14.312,-0.562,0.914,-0.059
14.322,-0.578,0.906,-0.062
14.332,-0.580,0.891,-0.068
14.342,-0.588,0.889,-0.066
14.352,-0.582,0.869,-0.070
14.361,-0.572,0.857,-0.064
14.371,-0.574,0.861,-0.059
14.381,-0.574,0.875,-0.059
14.391,-0.531,0.895,-0.057
14.401,-0.531,0.877,-0.061
14.411,-0.580,0.867,-0.082
14.421,-0.600,0.848,-0.080
14.431,-0.596,0.877,-0.064
14.441,-0.602,0.893,-0.064
14.451,-0.633,0.916,-0.074
14.461,-0.650,0.951,-0.061
14.471,-0.660,0.963,-0.057
14.481,-0.652,0.979,-0.055
14.491,-0.617,0.955,-0.035
14.501,-0.629,0.924,-0.035
14.511,-0.588,0.900,-0.031
14.520,-0.555,0.893,0.002
14.530,-0.514,0.799,0.014
14.540,-0.506,0.744,0.016
14.550,-0.506,0.727,0.037
14.560,-0.504,0.727,0.053
14.570,-0.496,0.746,0.072
14.580,-0.488,0.775,0.092
14.590,-0.494,0.793,0.090
14.600,-0.492,0.801,0.086
14.610,-0.500,0.805,0.084
14.620,-0.502,0.814,0.080
14.630,-0.510,0.828,0.070
14.640,-0.496,0.840,0.057
14.650,-0.490,0.852,0.057
14.660,-0.525,0.861,0.043
14.669,-0.545,0.865,0.018
14.679,-0.545,0.869,0.010
14.689,-0.543,0.879,-0.008
14.699,-0.543,0.883,-0.002
14.709,-0.543,0.889,-0.016
14.719,-0.539,0.893,-0.020
14.729,-0.516,0.906,-0.021
14.739,-0.502,0.912,-0.018
14.749,-0.506,0.918,-0.020
14.759,-0.508,0.926,-0.023
14.769,-0.512,0.910,-0.023
14.779,-0.529,0.906,-0.035
14.789,-0.529,0.900,-0.027
14.799,-0.533,0.896,-0.025
14.809,-0.537,0.893,-0.031
14.818,-0.529,0.885,-0.025
14.828,-0.539,0.879,-0.025
14.838,-0.549,0.875,-0.037
14.848,-0.570,0.885,-0.035
14.858,-0.570,0.875,-0.043
14.868,-0.578,0.859,-0.045
14.878,-0.588,0.850,-0.047
14.888,-0.598,0.844,-0.055
14.898,-0.584,0.852,-0.053
14.908,-0.576,0.852,-0.047
14.918,-0.576,0.854,-0.059
14.928,-0.566,0.854,-0.049
14.938,-0.570,0.857,-0.053
14.948,-0.582,0.857,-0.055
14.958,-0.590,0.848,-0.053
14.967,-0.598,0.850,-0.061
14.977,-0.592,0.863,-0.059
14.987,-0.576,0.879,-0.053
14.997,-0.580,0.883,-0.055
15.007,-0.580,0.877,-0.051
15.017,-0.582,0.861,-0.053
15.027,-0.590,0.857,-0.057
15.037,-0.586,0.861,-0.064
15.047,-0.588,0.854,-0.061
15.057,-0.592,0.836,-0.061
15.067,-0.592,0.840,-0.068
15.077,-0.582,0.840,-0.070
15.087,-0.576,0.848,-0.068
15.097,-0.576,0.846,-0.070
15.107,-0.576,0.848,-0.076
15.116,-0.562,0.854,-0.074
15.126,-0.547,0.867,-0.068
15.136,-0.545,0.879,-0.072
15.146,-0.541,0.883,-0.068
15.156,-0.531,0.885,-0.068
15.166,-0.523,0.887,-0.066
15.176,-0.510,0.893,-0.072
15.186,-0.500,0.891,-0.070
15.196,-0.486,0.889,-0.072
15.206,-0.480,0.883,-0.070
15.216,-0.494,0.881,-0.076
15.226,-0.498,0.877,-0.084
15.236,-0.510,0.871,-0.088
15.246,-0.516,0.869,-0.090
15.256,-0.520,0.875,-0.090
15.266,-0.521,0.875,-0.096
15.275,-0.531,0.871,-0.094
15.285,-0.545,0.871,-0.094
15.295,-0.549,0.869,-0.094
15.305,-0.557,0.869,-0.092
15.315,-0.568,0.863,-0.100
15.325,-0.559,0.861,-0.098
15.335,-0.568,0.865,-0.090
15.345,-0.568,0.867,-0.096
15.355,-0.568,0.863,-0.096
15.365,-0.574,0.859,-0.096
15.375,-0.578,0.861,-0.098
15.385,-0.576,0.861,-0.090
15.395,-0.578,0.863,-0.094
15.405,-0.578,0.861,-0.094
15.415,-0.578,0.863,-0.092
15.424,-0.566,0.867,-0.090
15.434,-0.557,0.865,-0.084
15.444,-0.562,0.865,-0.092
15.454,-0.545,0.867,-0.088
15.464,-0.539,0.875,-0.072
15.474,-0.537,0.873,-0.082
15.484,-0.525,0.873,-0.076
15.494,-0.523,0.875,-0.076
15.504,-0.518,0.873,-0.078
15.514,-0.529,0.877,-0.076
15.524,-0.523,0.877,-0.072
15.534,-0.527,0.873,-0.068
15.544,-0.521,0.871,-0.072
15.554,-0.518,0.865,-0.074
15.564,-0.523,0.857,-0.082
15.573,-0.523,0.859,-0.076
15.583,-0.539,0.855,-0.078
15.593,-0.543,0.861,-0.086
15.603,-0.541,0.861,-0.080
15.613,-0.547,0.863,-0.084
15.623,-0.555,0.861,-0.084
15.633,-0.557,0.859,-0.082
15.643,-0.555,0.857,-0.088
15.653,-0.559,0.855,-0.082
15.663,-0.564,0.855,-0.086
15.673,-0.570,0.855,-0.090
15.683,-0.564,0.852,-0.090
15.693,-0.578,0.857,-0.094
15.703,-0.580,0.861,-0.092
15.713,-0.586,0.857,-0.092
15.722,-0.582,0.850,-0.102
15.732,-0.592,0.846,-0.096
15.742,-0.586,0.848,-0.096
15.752,-0.594,0.848,-0.094
15.762,-0.596,0.850,-0.096
15.772,-0.588,0.848,-0.094
15.782,-0.582,0.842,-0.098
15.792,-0.582,0.846,-0.090
15.802,-0.576,0.842,-0.090
15.812,-0.564,0.836,-0.084
15.822,-0.568,0.840,-0.090
15.832,-0.566,0.840,-0.082
15.842,-0.566,0.844,-0.092
15.852,-0.566,0.846,-0.086
15.862,-0.562,0.846,-0.088
15.871,-0.570,0.852,-0.088
15.881,-0.578,0.854,-0.094
15.891,-0.578,0.855,-0.092
15.901,-0.570,0.854,-0.086
15.911,-0.572,0.846,-0.090
15.921,-0.578,0.846,-0.092
15.931,-0.582,0.844,-0.088
15.941,-0.580,0.842,-0.086
15.951,-0.578,0.855,-0.086
15.961,-0.570,0.877,-0.076
15.971,-0.568,0.906,-0.062
15.981,-0.562,0.902,-0.057
15.991,-0.566,0.891,-0.076
16.001,-0.576,0.879,-0.074
16.011,-0.584,0.867,-0.086
16.021,-0.590,0.855,-0.090
16.030,-0.586,0.838,-0.092
16.040,-0.594,0.807,-0.094
16.050,-0.600,0.793,-0.096
16.060,-0.594,0.795,-0.082
16.070,-0.604,0.803,-0.088
16.080,-0.590,0.803,-0.074
16.090,-0.592,0.814,-0.068
16.100,-0.592,0.816,-0.070
16.110,-0.602,0.828,-0.068
16.120,-0.600,0.836,-0.062
16.130,-0.598,0.842,-0.064
16.140,-0.600,0.852,-0.066
16.150,-0.600,0.852,-0.064
16.160,-0.605,0.854,-0.064
16.170,-0.605,0.855,-0.070
16.179,-0.596,0.857,-0.068
16.189,-0.596,0.857,-0.068
16.199,-0.596,0.846,-0.070
16.209,-0.598,0.836,-0.074
16.219,-0.588,0.832,-0.072
16.229,-0.582,0.828,-0.068
16.239,-0.582,0.830,-0.074
16.249,-0.586,0.832,-0.066
16.259,-0.584,0.826,-0.066
16.269,-0.592,0.826,-0.066
16.279,-0.588,0.828,-0.068
16.289,-0.586,0.830,-0.066
16.299,-0.578,0.824,-0.070
16.309,-0.580,0.824,-0.066
16.319,-0.584,0.830,-0.066
16.328,-0.578,0.824,-0.066
16.338,-0.584,0.822,-0.064
16.348,-0.590,0.822,-0.068
16.358,-0.604,0.830,-0.072
16.368,-0.602,0.832,-0.072
16.378,-0.598,0.828,-0.080
16.388,-0.605,0.830,-0.082
16.398,-0.598,0.830,-0.078
16.408,-0.607,0.826,-0.084
16.418,-0.611,0.828,-0.088
16.428,-0.611,0.828,-0.090
16.438,-0.617,0.832,-0.096
16.448,-0.607,0.834,-0.096
16.458,-0.617,0.840,-0.096
16.468,-0.621,0.842,-0.098
16.477,-0.621,0.840,-0.104
16.487,-0.615,0.838,-0.100
16.497,-0.615,0.836,-0.104
16.507,-0.613,0.834,-0.107
16.517,-0.619,0.832,-0.105
16.527,-0.613,0.836,-0.107
16.537,-0.613,0.834,-0.105
16.547,-0.607,0.834,-0.107
16.557,-0.604,0.838,-0.104
16.567,-0.602,0.834,-0.102
16.577,-0.604,0.830,-0.104
16.587,-0.600,0.834,-0.098
16.597,-0.596,0.838,-0.096
16.607,-0.598,0.836,-0.098
16.617,-0.594,0.836,-0.098
16.626,-0.602,0.838,-0.100
16.636,-0.598,0.840,-0.100
16.646,-0.600,0.834,-0.096
16.656,-0.604,0.828,-0.100
16.666,-0.600,0.828,-0.098
16.676,-0.600,0.826,-0.094
16.686,-0.604,0.830,-0.098
16.696,-0.607,0.834,-0.096
16.706,-0.605,0.834,-0.092
16.716,-0.605,0.836,-0.092
16.726,-0.604,0.832,-0.090
16.736,-0.609,0.828,-0.090
16.746,-0.607,0.826,-0.092
16.756,-0.611,0.826,-0.092
16.766,-0.607,0.826,-0.092
16.776,-0.609,0.830,-0.088
16.785,-0.604,0.826,-0.086
16.795,-0.600,0.826,-0.080
16.805,-0.598,0.824,-0.078
16.815,-0.602,0.822,-0.080
16.825,-0.604,0.824,-0.078
16.835,-0.604,0.820,-0.080
16.845,-0.602,0.826,-0.082
16.855,-0.604,0.822,-0.084
16.865,-0.598,0.824,-0.080
16.875,-0.598,0.830,-0.082
16.885,-0.600,0.834,-0.090
16.895,-0.604,0.834,-0.088
16.905,-0.594,0.834,-0.084
16.915,-0.602,0.834,-0.090
16.925,-0.605,0.832,-0.090
16.934,-0.604,0.828,-0.088
16.944,-0.604,0.832,-0.088
16.954,-0.604,0.836,-0.088
16.964,-0.604,0.834,-0.088
16.974,-0.604,0.830,-0.094
16.984,-0.604,0.828,-0.094
16.994,-0.598,0.824,-0.090
17.004,-0.602,0.828,-0.088
17.014,-0.604,0.826,-0.094
17.024,-0.604,0.830,-0.088
17.034,-0.602,0.834,-0.092
17.044,-0.598,0.840,-0.090
17.054,-0.596,0.838,-0.094
17.064,-0.600,0.836,-0.094
17.074,-0.596,0.840,-0.088
17.083,-0.598,0.830,-0.088
17.093,-0.602,0.832,-0.090
17.103,-0.604,0.828,-0.094
17.113,-0.602,0.828,-0.094
17.123,-0.600,0.832,-0.100
17.133,-0.602,0.834,-0.092
17.143,-0.609,0.830,-0.092
17.153,-0.613,0.828,-0.094
17.163,-0.607,0.828,-0.096
17.173,-0.605,0.832,-0.094
17.183,-0.605,0.834,-0.098
17.193,-0.611,0.834,-0.098
17.203,-0.604,0.834,-0.100
17.213,-0.602,0.834,-0.098
17.223,-0.602,0.830,-0.098
17.232,-0.600,0.834,-0.098
17.242,-0.604,0.832,-0.094
17.252,-0.600,0.834,-0.098
17.262,-0.600,0.834,-0.096
17.272,-0.598,0.832,-0.098
17.282,-0.596,0.834,-0.098
17.292,-0.594,0.832,-0.102
17.302,-0.598,0.834,-0.094
17.312,-0.596,0.832,-0.094
17.322,-0.592,0.832,-0.098
17.332,-0.594,0.834,-0.094
17.342,-0.596,0.832,-0.096
17.352,-0.592,0.838,-0.092
17.362,-0.598,0.834,-0.096
17.372,-0.596,0.838,-0.098
17.382,-0.596,0.834,-0.098
17.391,-0.598,0.834,-0.100
17.401,-0.600,0.834,-0.096
17.411,-0.596,0.836,-0.094
17.421,-0.596,0.834,-0.096
17.431,-0.588,0.836,-0.092
17.441,-0.598,0.840,-0.098
17.451,-0.598,0.840,-0.092
17.461,-0.594,0.834,-0.094
17.471,-0.592,0.832,-0.094
17.481,-0.596,0.832,-0.088
17.491,-0.596,0.832,-0.090
17.501,-0.594,0.828,-0.090
17.511,-0.592,0.832,-0.098
17.521,-0.590,0.828,-0.090
17.531,-0.592,0.832,-0.084
17.540,-0.592,0.834,-0.090
17.550,-0.590,0.836,-0.090
17.560,-0.590,0.832,-0.094
17.570,-0.590,0.832,-0.094
17.580,-0.598,0.832,-0.092
17.590,-0.600,0.832,-0.094
17.600,-0.596,0.842,-0.094
17.610,-0.594,0.840,-0.086
17.620,-0.596,0.838,-0.094
17.630,-0.594,0.840,-0.096
17.640,-0.588,0.836,-0.090
17.650,-0.590,0.840,-0.096
17.660,-0.594,0.836,-0.094
17.670,-0.592,0.834,-0.092
17.680,-0.592,0.832,-0.092
17.689,-0.590,0.832,-0.096
17.699,-0.594,0.834,-0.090
17.709,-0.594,0.840,-0.092
17.719,-0.596,0.832,-0.096
17.729,-0.592,0.828,-0.092
17.739,-0.602,0.832,-0.094
17.749,-0.604,0.826,-0.096
17.759,-0.607,0.830,-0.096
17.769,-0.605,0.832,-0.094
17.779,-0.604,0.836,-0.096
17.789,-0.607,0.838,-0.096
17.799,-0.607,0.836,-0.098
17.809,-0.602,0.828,-0.094
17.819,-0.605,0.834,-0.092
17.829,-0.613,0.830,-0.100
17.838,-0.607,0.832,-0.094
17.848,-0.604,0.834,-0.094
17.858,-0.607,0.830,-0.098
17.868,-0.602,0.832,-0.094
17.878,-0.596,0.832,-0.094
17.888,-0.600,0.834,-0.094
17.898,-0.600,0.830,-0.092
17.908,-0.604,0.828,-0.094
17.918,-0.598,0.828,-0.092
17.928,-0.600,0.826,-0.094
17.938,-0.596,0.828,-0.094
17.948,-0.598,0.828,-0.090
17.958,-0.598,0.826,-0.092
17.968,-0.596,0.828,-0.094
17.978,-0.592,0.828,-0.090
17.987,-0.594,0.830,-0.090
17.997,-0.594,0.830,-0.096
18.007,-0.594,0.830,-0.094
18.017,-0.598,0.828,-0.092
18.027,-0.600,0.834,-0.094
18.037,-0.598,0.832,-0.096
18.047,-0.598,0.832,-0.094
18.057,-0.602,0.834,-0.094
18.067,-0.604,0.834,-0.096
18.077,-0.602,0.832,-0.092
18.087,-0.602,0.830,-0.094
18.097,-0.600,0.834,-0.092
18.107,-0.600,0.834,-0.094
18.117,-0.604,0.836,-0.092
18.127,-0.598,0.838,-0.094
18.137,-0.602,0.838,-0.092
18.146,-0.602,0.836,-0.096
18.156,-0.602,0.832,-0.090
18.166,-0.592,0.832,-0.092
18.176,-0.602,0.836,-0.092
18.186,-0.600,0.832,-0.092
18.196,-0.598,0.834,-0.084
18.206,-0.600,0.836,-0.090
18.216,-0.600,0.834,-0.086
18.226,-0.602,0.832,-0.092
18.236,-0.600,0.830,-0.086
18.246,-0.604,0.832,-0.090
18.256,-0.604,0.836,-0.092
18.266,-0.596,0.840,-0.088
18.276,-0.600,0.840,-0.092
18.286,-0.602,0.838,-0.088
18.295,-0.602,0.848,-0.096
18.305,-0.600,0.838,-0.088
18.315,-0.598,0.832,-0.088
18.325,-0.600,0.828,-0.092
18.335,-0.600,0.832,-0.086
18.345,-0.600,0.830,-0.090
18.355,-0.600,0.834,-0.084
18.365,-0.600,0.832,-0.086
18.375,-0.600,0.828,-0.088
18.385,-0.598,0.822,-0.084
18.395,-0.596,0.824,-0.086
18.405,-0.592,0.826,-0.088
18.415,-0.590,0.832,-0.082
18.425,-0.598,0.834,-0.084
18.435,-0.600,0.828,-0.086
18.444,-0.600,0.826,-0.088
18.454,-0.598,0.830,-0.084
18.464,-0.596,0.832,-0.086
18.474,-0.596,0.838,-0.082
18.484,-0.600,0.838,-0.082
18.494,-0.598,0.838,-0.084
18.504,-0.598,0.838,-0.086
18.514,-0.596,0.836,-0.082
18.524,-0.604,0.836,-0.088
18.534,-0.602,0.836,-0.090
18.544,-0.598,0.834,-0.090
18.554,-0.598,0.832,-0.086
18.564,-0.602,0.832,-0.086
18.574,-0.596,0.842,-0.092
18.584,-0.596,0.832,-0.082
18.593,-0.592,0.834,-0.086
18.603,-0.592,0.836,-0.082
18.613,-0.592,0.840,-0.088
18.623,-0.598,0.838,-0.088
18.633,-0.592,0.834,-0.086
18.643,-0.590,0.840,-0.088
18.653,-0.592,0.832,-0.088
18.663,-0.584,0.832,-0.088
18.673,-0.584,0.842,-0.086
18.683,-0.586,0.838,-0.084
18.693,-0.592,0.830,-0.086
18.703,-0.592,0.828,-0.086
18.713,-0.590,0.832,-0.078
18.723,-0.584,0.834,-0.084
18.733,-0.580,0.834,-0.082
18.742,-0.586,0.842,-0.082
18.752,-0.582,0.842,-0.086
18.762,-0.586,0.844,-0.082
18.772,-0.584,0.844,-0.084
18.782,-0.586,0.844,-0.084
18.792,-0.586,0.844,-0.090
18.802,-0.582,0.844,-0.088
18.812,-0.590,0.844,-0.094
18.822,-0.590,0.842,-0.090
18.832,-0.586,0.842,-0.088
18.842,-0.588,0.836,-0.090
18.852,-0.582,0.838,-0.086
18.862,-0.584,0.840,-0.090
18.872,-0.588,0.846,-0.090
18.882,-0.586,0.846,-0.090
18.892,-0.586,0.842,-0.090
18.901,-0.580,0.842,-0.090
18.911,-0.582,0.836,-0.086
18.921,-0.590,0.838,-0.096
18.931,-0.592,0.846,-0.094
18.941,-0.590,0.844,-0.092
18.951,-0.582,0.848,-0.094
18.961,-0.588,0.852,-0.090
18.971,-0.592,0.844,-0.092
18.981,-0.596,0.854,-0.094
18.991,-0.584,0.842,-0.094
19.001,-0.590,0.848,-0.092
19.011,-0.592,0.859,-0.092
19.021,-0.598,0.861,-0.092
19.031,-0.594,0.869,-0.084
19.041,-0.596,0.871,-0.084
19.050,-0.600,0.873,-0.092
19.060,-0.592,0.861,-0.092
19.070,-0.578,0.850,-0.090
19.080,-0.562,0.832,-0.088
19.090,-0.562,0.826,-0.088
19.100,-0.564,0.822,-0.086
19.110,-0.568,0.830,-0.090
19.120,-0.568,0.832,-0.080
19.130,-0.582,0.836,-0.088
19.140,-0.580,0.842,-0.078
19.150,-0.576,0.840,-0.076
19.160,-0.578,0.842,-0.080
19.170,-0.580,0.846,-0.076
19.180,-0.584,0.848,-0.078
19.190,-0.584,0.844,-0.084
19.199,-0.588,0.848,-0.080
19.209,-0.586,0.846,-0.078
19.219,-0.584,0.846,-0.080
19.229,-0.588,0.844,-0.082
19.239,-0.588,0.848,-0.084
19.249,-0.590,0.846,-0.080
19.259,-0.590,0.842,-0.084
19.269,-0.590,0.838,-0.084
19.279,-0.592,0.842,-0.082
19.289,-0.588,0.846,-0.082
19.299,-0.590,0.848,-0.078
19.309,-0.586,0.844,-0.078
19.319,-0.584,0.838,-0.082
19.329,-0.588,0.836,-0.082
19.339,-0.582,0.842,-0.080
19.348,-0.588,0.844,-0.080
19.358,-0.586,0.840,-0.082
19.368,-0.590,0.840,-0.082
19.378,-0.582,0.840,-0.082
19.388,-0.580,0.844,-0.076
19.398,-0.586,0.846,-0.078
19.408,-0.586,0.846,-0.082
19.418,-0.582,0.844,-0.076
19.428,-0.586,0.840,-0.080
19.438,-0.588,0.846,-0.082
19.448,-0.588,0.848,-0.080
19.458,-0.584,0.844,-0.080
19.468,-0.580,0.846,-0.080
19.478,-0.582,0.848,-0.078
19.488,-0.590,0.844,-0.084
19.497,-0.580,0.842,-0.078
19.507,-0.582,0.844,-0.078
19.517,-0.584,0.848,-0.078
19.527,-0.590,0.848,-0.078
19.537,-0.584,0.842,-0.078
19.547,-0.582,0.844,-0.078
19.557,-0.586,0.848,-0.076
19.567,-0.586,0.852,-0.080
19.577,-0.584,0.838,-0.078
19.587,-0.582,0.832,-0.084
19.597,-0.582,0.842,-0.076
19.607,-0.586,0.842,-0.082
19.617,-0.586,0.844,-0.078
19.627,-0.586,0.852,-0.078
19.637,-0.582,0.846,-0.078
19.647,-0.586,0.846,-0.078
19.656,-0.586,0.848,-0.080
19.666,-0.582,0.848,-0.078
19.676,-0.584,0.844,-0.078
19.686,-0.588,0.844,-0.076
19.696,-0.592,0.840,-0.078
19.706,-0.590,0.846,-0.078
19.716,-0.584,0.840,-0.082
19.726,-0.588,0.838,-0.076
19.736,-0.590,0.836,-0.074
19.746,-0.590,0.838,-0.076
19.756,-0.590,0.836,-0.076
19.766,-0.588,0.838,-0.074
19.776,-0.592,0.840,-0.078
19.786,-0.590,0.838,-0.072
19.796,-0.592,0.838,-0.076
19.805,-0.598,0.840,-0.080
19.815,-0.594,0.840,-0.076
19.825,-0.590,0.842,-0.074
19.835,-0.592,0.842,-0.080
19.845,-0.590,0.840,-0.076
19.855,-0.592,0.842,-0.072
19.865,-0.592,0.840,-0.072
19.875,-0.592,0.842,-0.072
19.885,-0.592,0.838,-0.076
19.895,-0.594,0.842,-0.076
19.905,-0.592,0.840,-0.074
19.915,-0.590,0.844,-0.074
19.925,-0.596,0.844,-0.074
19.935,-0.592,0.840,-0.074
19.945,-0.590,0.838,-0.072
19.954,-0.596,0.838,-0.078
19.964,-0.592,0.842,-0.074
19.974,-0.594,0.846,-0.072
19.984,-0.592,0.844,-0.074
19.994,-0.592,0.842,-0.076
20.004,-0.596,0.840,-0.072
20.014,-0.596,0.840,-0.076
20.024,-0.588,0.838,-0.078
20.034,-0.590,0.840,-0.074
20.044,-0.592,0.840,-0.074
20.054,-0.590,0.842,-0.068
20.064,-0.588,0.836,-0.074
20.074,-0.590,0.838,-0.070
20.084,-0.592,0.840,-0.070
20.094,-0.592,0.838,-0.072
20.103,-0.592,0.840,-0.076
20.113,-0.592,0.844,-0.072
20.123,-0.590,0.838,-0.072
20.133,-0.592,0.840,-0.076
20.143,-0.594,0.838,-0.080
20.153,-0.596,0.842,-0.074
20.163,-0.596,0.840,-0.074
20.173,-0.594,0.840,-0.078
20.183,-0.592,0.840,-0.074
20.193,-0.594,0.840,-0.076
20.203,-0.592,0.838,-0.074
20.213,-0.598,0.842,-0.078
20.223,-0.598,0.836,-0.076
20.233,-0.598,0.840,-0.080
20.243,-0.596,0.840,-0.078
20.253,-0.592,0.838,-0.076
20.262,-0.594,0.838,-0.072
20.272,-0.590,0.842,-0.076
20.282,-0.592,0.840,-0.076
20.292,-0.592,0.848,-0.078
20.302,-0.596,0.844,-0.076
20.312,-0.594,0.846,-0.076
20.322,-0.592,0.844,-0.078
20.332,-0.592,0.840,-0.076
20.342,-0.592,0.846,-0.074
20.352,-0.586,0.844,-0.072
20.362,-0.588,0.842,-0.072
20.372,-0.588,0.834,-0.076
20.382,-0.592,0.836,-0.076
20.392,-0.592,0.840,-0.072
20.402,-0.594,0.838,-0.078
20.411,-0.594,0.844,-0.080
20.421,-0.588,0.846,-0.074
20.431,-0.592,0.846,-0.076
20.441,-0.588,0.846,-0.078
20.451,-0.588,0.846,-0.074
20.461,-0.588,0.846,-0.074
20.471,-0.588,0.848,-0.076
20.481,-0.588,0.844,-0.078
20.491,-0.588,0.842,-0.076
20.501,-0.584,0.844,-0.070
20.511,-0.588,0.844,-0.074
20.521,-0.590,0.840,-0.074
20.531,-0.584,0.836,-0.078
20.541,-0.588,0.842,-0.074
20.551,-0.592,0.844,-0.076
20.560,-0.586,0.836,-0.074
20.570,-0.590,0.840,-0.072
20.580,-0.592,0.840,-0.076
20.590,-0.590,0.842,-0.076
20.600,-0.588,0.842,-0.078
20.610,-0.588,0.844,-0.072
20.620,-0.590,0.844,-0.076
20.630,-0.592,0.842,-0.074
20.640,-0.590,0.844,-0.076
20.650,-0.592,0.848,-0.070
20.660,-0.592,0.842,-0.074
20.670,-0.596,0.840,-0.078
20.680,-0.596,0.840,-0.078
20.690,-0.596,0.842,-0.076
20.700,-0.594,0.838,-0.074
20.709,-0.592,0.842,-0.074
20.719,-0.590,0.842,-0.070
20.729,-0.592,0.838,-0.076
20.739,-0.594,0.842,-0.074
20.749,-0.590,0.840,-0.076
20.759,-0.592,0.840,-0.076
20.769,-0.594,0.838,-0.074
20.779,-0.592,0.838,-0.078
20.789,-0.588,0.840,-0.078
20.799,-0.592,0.844,-0.076
20.809,-0.590,0.846,-0.074
20.819,-0.592,0.842,-0.074
20.829,-0.586,0.844,-0.072
20.839,-0.592,0.844,-0.074
20.849,-0.590,0.842,-0.072
20.858,-0.594,0.844,-0.070
20.868,-0.588,0.842,-0.072
20.878,-0.588,0.844,-0.074
20.888,-0.586,0.844,-0.072
20.898,-0.592,0.840,-0.076
20.908,-0.588,0.840,-0.076
20.918,-0.592,0.846,-0.074
20.928,-0.590,0.840,-0.074
20.938,-0.588,0.836,-0.074
20.948,-0.582,0.832,-0.076
20.958,-0.588,0.842,-0.074
20.968,-0.590,0.848,-0.074
20.978,-0.590,0.844,-0.072
20.988,-0.586,0.848,-0.074
20.998,-0.588,0.844,-0.080
21.008,-0.590,0.840,-0.078
21.017,-0.590,0.842,-0.076
21.027,-0.592,0.844,-0.074
21.037,-0.592,0.844,-0.074
21.047,-0.590,0.846,-0.076
21.057,-0.582,0.846,-0.074
21.067,-0.586,0.846,-0.074
21.077,-0.590,0.846,-0.076
21.087,-0.590,0.840,-0.078
21.097,-0.590,0.844,-0.080
21.107,-0.594,0.838,-0.078
21.117,-0.592,0.840,-0.080
21.127,-0.592,0.840,-0.078
21.137,-0.592,0.840,-0.078
21.147,-0.590,0.840,-0.078
21.157,-0.590,0.840,-0.076
21.166,-0.590,0.840,-0.076
21.176,-0.590,0.842,-0.074
21.186,-0.588,0.848,-0.082
21.196,-0.588,0.850,-0.080
21.206,-0.584,0.842,-0.076
21.216,-0.584,0.842,-0.076
21.226,-0.590,0.850,-0.076
21.236,-0.582,0.852,-0.072
21.246,-0.582,0.842,-0.076
21.256,-0.584,0.838,-0.078
21.266,-0.584,0.838,-0.078
21.276,-0.588,0.838,-0.078
21.286,-0.592,0.844,-0.078
21.296,-0.588,0.842,-0.082
21.306,-0.590,0.846,-0.076
21.315,-0.592,0.848,-0.076
21.325,-0.592,0.850,-0.082
21.335,-0.590,0.844,-0.076
21.345,-0.588,0.844,-0.078
21.355,-0.588,0.848,-0.078
21.365,-0.588,0.846,-0.080
21.375,-0.588,0.844,-0.078
21.385,-0.590,0.844,-0.080
21.395,-0.584,0.842,-0.076
21.405,-0.584,0.840,-0.080
21.415,-0.586,0.838,-0.078
21.425,-0.584,0.844,-0.078
21.435,-0.586,0.840,-0.076
21.445,-0.586,0.842,-0.078
21.455,-0.584,0.846,-0.078
21.464,-0.586,0.852,-0.078
21.474,-0.586,0.850,-0.078
21.484,-0.586,0.846,-0.078
21.494,-0.584,0.846,-0.078
21.504,-0.582,0.846,-0.076
21.514,-0.586,0.846,-0.074
21.524,-0.584,0.848,-0.078
21.534,-0.586,0.848,-0.076
21.544,-0.584,0.844,-0.078
21.554,-0.584,0.844,-0.078
21.564,-0.586,0.846,-0.074
21.574,-0.584,0.844,-0.078
21.584,-0.582,0.848,-0.076
21.594,-0.594,0.848,-0.074
21.604,-0.590,0.850,-0.076
21.613,-0.588,0.846,-0.078
21.623,-0.588,0.844,-0.078
21.633,-0.590,0.842,-0.078
21.643,-0.584,0.842,-0.076
21.653,-0.584,0.844,-0.074
21.663,-0.582,0.846,-0.076
21.673,-0.582,0.848,-0.076
21.683,-0.586,0.850,-0.078
21.693,-0.588,0.848,-0.080
21.703,-0.588,0.850,-0.078
21.713,-0.588,0.844,-0.072
21.723,-0.584,0.848,-0.080
21.733,-0.588,0.846,-0.074
21.743,-0.582,0.844,-0.076
21.753,-0.580,0.844,-0.074
21.763,-0.580,0.850,-0.076
21.772,-0.580,0.842,-0.074
21.782,-0.578,0.840,-0.072
21.792,-0.578,0.842,-0.078
21.802,-0.580,0.846,-0.074
21.812,-0.578,0.846,-0.076
21.822,-0.576,0.844,-0.072
21.832,-0.576,0.844,-0.074
21.842,-0.580,0.846,-0.076
21.852,-0.584,0.854,-0.074
21.862,-0.586,0.846,-0.076
21.872,-0.586,0.842,-0.078
21.882,-0.586,0.844,-0.082
21.892,-0.586,0.848,-0.078
21.902,-0.586,0.848,-0.074
21.912,-0.590,0.850,-0.074
21.921,-0.590,0.846,-0.076
21.931,-0.586,0.848,-0.074
21.941,-0.582,0.848,-0.070
21.951,-0.584,0.844,-0.076
21.961,-0.590,0.846,-0.074
21.971,-0.586,0.844,-0.078
21.981,-0.588,0.836,-0.078
21.991,-0.588,0.844,-0.078
22.001,-0.590,0.844,-0.076
22.011,-0.590,0.844,-0.076
22.021,-0.584,0.842,-0.076
22.031,-0.586,0.844,-0.076
22.041,-0.586,0.848,-0.074
22.051,-0.588,0.844,-0.076
22.061,-0.590,0.844,-0.080
22.070,-0.586,0.844,-0.078
22.080,-0.584,0.838,-0.076
22.090,-0.582,0.850,-0.072
22.100,-0.582,0.850,-0.070
22.110,-0.582,0.850,-0.072
22.120,-0.582,0.840,-0.074
22.130,-0.582,0.838,-0.074
22.140,-0.586,0.840,-0.076
22.150,-0.586,0.840,-0.078
22.160,-0.584,0.842,-0.074
22.170,-0.584,0.844,-0.072
22.180,-0.588,0.852,-0.074
22.190,-0.586,0.850,-0.076
22.200,-0.584,0.852,-0.078
22.210,-0.586,0.854,-0.078
22.219,-0.586,0.848,-0.074
22.229,-0.586,0.848,-0.078
22.239,-0.584,0.844,-0.074
22.249,-0.588,0.844,-0.076
22.259,-0.588,0.842,-0.074
22.269,-0.586,0.842,-0.078
22.279,-0.586,0.846,-0.078
22.289,-0.590,0.844,-0.076
22.299,-0.588,0.846,-0.078
22.309,-0.588,0.846,-0.078
22.319,-0.586,0.844,-0.080
22.329,-0.584,0.846,-0.074
22.339,-0.582,0.850,-0.078
22.349,-0.582,0.852,-0.078
22.359,-0.588,0.854,-0.078
22.368,-0.586,0.852,-0.082
22.378,-0.586,0.848,-0.080
22.388,-0.596,0.848,-0.078
22.398,-0.596,0.848,-0.082
22.408,-0.596,0.848,-0.084
22.418,-0.586,0.844,-0.070
22.428,-0.590,0.846,-0.076
22.438,-0.596,0.846,-0.076
22.448,-0.588,0.842,-0.072
22.458,-0.588,0.838,-0.072
22.468,-0.586,0.836,-0.072
22.478,-0.588,0.834,-0.070
22.488,-0.588,0.832,-0.072
22.498,-0.586,0.830,-0.070
22.508,-0.586,0.838,-0.070
22.518,-0.584,0.828,-0.070
22.527,-0.582,0.826,-0.068
22.537,-0.580,0.824,-0.070
22.547,-0.580,0.832,-0.066
22.557,-0.582,0.830,-0.070
22.567,-0.588,0.834,-0.068
22.577,-0.592,0.840,-0.072
22.587,-0.592,0.850,-0.070
22.597,-0.600,0.855,-0.072
22.607,-0.594,0.852,-0.076
22.617,-0.596,0.852,-0.076
22.627,-0.596,0.855,-0.074
22.637,-0.584,0.852,-0.076
22.647,-0.586,0.861,-0.076
22.657,-0.584,0.855,-0.078
22.667,-0.582,0.855,-0.078
22.676,-0.580,0.855,-0.080
22.686,-0.578,0.854,-0.076
22.696,-0.574,0.850,-0.076
22.706,-0.568,0.846,-0.074
22.716,-0.568,0.852,-0.072
22.726,-0.572,0.854,-0.070
22.736,-0.572,0.855,-0.066
22.746,-0.570,0.857,-0.070
22.756,-0.572,0.850,-0.068
22.766,-0.574,0.850,-0.070
22.776,-0.578,0.848,-0.072
22.786,-0.578,0.846,-0.074
22.796,-0.580,0.852,-0.072
22.806,-0.580,0.852,-0.070
22.816,-0.580,0.854,-0.070
22.825,-0.582,0.850,-0.070
22.835,-0.582,0.854,-0.074
22.845,-0.580,0.854,-0.070
22.855,-0.584,0.848,-0.072
22.865,-0.586,0.846,-0.074
22.875,-0.584,0.846,-0.074
22.885,-0.582,0.844,-0.072
22.895,-0.580,0.844,-0.072
22.905,-0.578,0.842,-0.068
22.915,-0.580,0.848,-0.068
22.925,-0.582,0.844,-0.072
22.935,-0.582,0.846,-0.074
22.945,-0.582,0.850,-0.072
22.955,-0.582,0.848,-0.070
22.965,-0.586,0.848,-0.070
22.974,-0.586,0.844,-0.066
22.984,-0.582,0.842,-0.070
22.994,-0.584,0.844,-0.072
23.004,-0.584,0.848,-0.068
23.014,-0.582,0.850,-0.064
23.024,-0.580,0.842,-0.074
23.034,-0.582,0.836,-0.070
23.044,-0.586,0.840,-0.072
23.054,-0.584,0.842,-0.072
23.064,-0.590,0.846,-0.072
23.074,-0.592,0.848,-0.074
23.084,-0.592,0.852,-0.072
23.094,-0.590,0.848,-0.074
23.104,-0.590,0.850,-0.074
23.114,-0.592,0.850,-0.076
23.123,-0.588,0.848,-0.078
23.133,-0.588,0.850,-0.076
23.143,-0.588,0.850,-0.072
23.153,-0.586,0.844,-0.068
23.163,-0.586,0.846,-0.072
23.173,-0.584,0.842,-0.068
23.183,-0.582,0.842,-0.072
23.193,-0.586,0.842,-0.072
23.203,-0.588,0.844,-0.072
23.213,-0.588,0.840,-0.070
23.223,-0.590,0.844,-0.074
23.233,-0.592,0.846,-0.072
23.243,-0.592,0.840,-0.070
23.253,-0.588,0.838,-0.070
23.263,-0.594,0.840,-0.072
23.273,-0.592,0.842,-0.074
23.282,-0.592,0.842,-0.072
23.292,-0.592,0.842,-0.074
23.302,-0.590,0.844,-0.068
23.312,-0.590,0.842,-0.074
23.322,-0.586,0.842,-0.068
23.332,-0.590,0.842,-0.070
23.342,-0.586,0.838,-0.072
23.352,-0.588,0.844,-0.070
23.362,-0.586,0.842,-0.072
23.372,-0.588,0.844,-0.072
23.382,-0.588,0.842,-0.074
23.392,-0.584,0.842,-0.076
23.402,-0.586,0.840,-0.074
23.412,-0.588,0.842,-0.074
23.422,-0.590,0.848,-0.070
23.431,-0.588,0.852,-0.068
23.441,-0.586,0.844,-0.068
23.451,-0.588,0.846,-0.072
23.461,-0.588,0.846,-0.072
23.471,-0.590,0.848,-0.074
23.481,-0.588,0.854,-0.072
23.491,-0.592,0.854,-0.074
23.501,-0.592,0.844,-0.072
23.511,-0.588,0.844,-0.074
23.521,-0.586,0.846,-0.074
23.531,-0.588,0.840,-0.072
23.541,-0.586,0.840,-0.074
23.551,-0.578,0.838,-0.072
23.561,-0.586,0.842,-0.072
23.571,-0.584,0.846,-0.074
23.580,-0.586,0.842,-0.072
23.590,-0.588,0.844,-0.070
23.600,-0.590,0.844,-0.076
23.610,-0.592,0.846,-0.072
23.620,-0.590,0.842,-0.072
23.630,-0.590,0.844,-0.072
23.640,-0.592,0.840,-0.070
23.650,-0.588,0.840,-0.072
23.660,-0.590,0.840,-0.074
23.670,-0.594,0.842,-0.074
23.680,-0.596,0.846,-0.070
23.690,-0.592,0.842,-0.070
23.700,-0.588,0.840,-0.074
23.710,-0.588,0.840,-0.070
23.720,-0.594,0.838,-0.074
23.729,-0.592,0.842,-0.070
23.739,-0.592,0.848,-0.070
23.749,-0.590,0.838,-0.074
23.759,-0.592,0.838,-0.076
23.769,-0.596,0.840,-0.074
23.779,-0.596,0.844,-0.076
23.789,-0.594,0.842,-0.076
23.799,-0.588,0.846,-0.072
23.809,-0.588,0.846,-0.074
23.819,-0.584,0.846,-0.072
23.829,-0.588,0.840,-0.076
23.839,-0.588,0.842,-0.078
23.849,-0.590,0.840,-0.074
23.859,-0.588,0.842,-0.074
23.869,-0.590,0.840,-0.078
23.879,-0.590,0.842,-0.078
23.888,-0.590,0.842,-0.072
23.898,-0.588,0.844,-0.074
23.908,-0.590,0.844,-0.076
23.918,-0.586,0.842,-0.070
23.928,-0.590,0.844,-0.076
23.938,-0.588,0.842,-0.072
23.948,-0.590,0.844,-0.072
23.958,-0.592,0.844,-0.078
23.968,-0.592,0.844,-0.074
23.978,-0.590,0.842,-0.076
23.988,-0.590,0.840,-0.076
23.998,-0.586,0.844,-0.074
24.008,-0.582,0.846,-0.070
24.018,-0.584,0.846,-0.068
24.028,-0.586,0.842,-0.074
24.037,-0.582,0.840,-0.076
24.047,-0.584,0.846,-0.076
24.057,-0.586,0.844,-0.072
24.067,-0.586,0.846,-0.076
24.077,-0.584,0.846,-0.074
24.087,-0.582,0.842,-0.074
24.097,-0.582,0.850,-0.074
24.107,-0.586,0.848,-0.072
24.117,-0.584,0.852,-0.074
24.127,-0.584,0.850,-0.076
24.137,-0.586,0.846,-0.072
24.147,-0.584,0.846,-0.072
24.157,-0.582,0.846,-0.070
24.167,-0.576,0.840,-0.074
24.177,-0.580,0.844,-0.074
24.186,-0.576,0.844,-0.076
24.196,-0.578,0.842,-0.074
24.206,-0.580,0.844,-0.074
24.216,-0.578,0.844,-0.074
24.226,-0.584,0.848,-0.076
24.236,-0.582,0.850,-0.078
24.246,-0.584,0.850,-0.074
24.256,-0.588,0.850,-0.076
24.266,-0.586,0.850,-0.080
24.276,-0.584,0.846,-0.076
24.286,-0.588,0.848,-0.078
24.296,-0.590,0.846,-0.078
24.306,-0.590,0.848,-0.082
24.316,-0.590,0.846,-0.080
24.326,-0.590,0.846,-0.078
24.335,-0.588,0.848,-0.078
24.345,-0.590,0.846,-0.076
24.355,-0.584,0.848,-0.078
24.365,-0.588,0.848,-0.078
24.375,-0.586,0.844,-0.076
24.385,-0.584,0.844,-0.074
24.395,-0.586,0.844,-0.076
24.405,-0.588,0.846,-0.076
24.415,-0.586,0.842,-0.074
24.425,-0.586,0.844,-0.078
24.435,-0.592,0.846,-0.074
24.445,-0.590,0.840,-0.076
24.455,-0.588,0.842,-0.074
24.465,-0.586,0.840,-0.074
24.475,-0.592,0.838,-0.074
24.484,-0.590,0.842,-0.076
24.494,-0.588,0.840,-0.076
24.504,-0.590,0.842,-0.076
24.514,-0.590,0.844,-0.080
24.524,-0.598,0.838,-0.080
24.534,-0.590,0.838,-0.074
24.544,-0.592,0.836,-0.072
24.554,-0.594,0.834,-0.078
24.564,-0.594,0.834,-0.076
24.574,-0.592,0.838,-0.074
24.584,-0.594,0.840,-0.070
24.594,-0.596,0.842,-0.072
24.604,-0.596,0.840,-0.078
24.614,-0.596,0.846,-0.072
24.624,-0.594,0.840,-0.078
24.634,-0.594,0.838,-0.074
24.643,-0.592,0.838,-0.076
24.653,-0.594,0.836,-0.080
24.663,-0.594,0.834,-0.076
24.673,-0.594,0.834,-0.078
24.683,-0.592,0.838,-0.076
24.693,-0.594,0.836,-0.074
24.703,-0.596,0.840,-0.078
24.713,-0.594,0.838,-0.076
24.723,-0.596,0.836,-0.074
24.733,-0.596,0.838,-0.078
24.743,-0.594,0.840,-0.076
24.753,-0.594,0.842,-0.076
24.763,-0.598,0.838,-0.074
24.773,-0.594,0.840,-0.072
24.783,-0.596,0.842,-0.076
24.792,-0.594,0.842,-0.070
24.802,-0.596,0.844,-0.074
24.812,-0.598,0.838,-0.078
24.822,-0.592,0.838,-0.076
24.832,-0.594,0.838,-0.076
24.842,-0.596,0.840,-0.074
24.852,-0.596,0.844,-0.074
24.862,-0.594,0.844,-0.074
24.872,-0.590,0.842,-0.074
24.882,-0.590,0.840,-0.070
24.892,-0.592,0.838,-0.076
24.902,-0.590,0.844,-0.074
24.912,-0.592,0.844,-0.074
24.922,-0.588,0.844,-0.072
24.932,-0.588,0.844,-0.072
24.941,-0.586,0.840,-0.072
24.951,-0.586,0.836,-0.072
24.961,-0.586,0.846,-0.074
24.971,-0.588,0.850,-0.070
24.981,-0.584,0.848,-0.070
24.991,-0.584,0.844,-0.076
25.001,-0.588,0.844,-0.074
25.011,-0.590,0.846,-0.074
25.021,-0.588,0.846,-0.076
25.031,-0.588,0.848,-0.078
25.041,-0.584,0.852,-0.074
25.051,-0.584,0.848,-0.074
25.061,-0.582,0.850,-0.076
25.071,-0.586,0.844,-0.080
25.081,-0.582,0.844,-0.076
25.090,-0.580,0.844,-0.074
25.100,-0.582,0.842,-0.074
25.110,-0.576,0.844,-0.074
25.120,-0.576,0.842,-0.076
25.130,-0.582,0.844,-0.078
25.140,-0.578,0.846,-0.076
25.150,-0.582,0.857,-0.076
25.160,-0.580,0.850,-0.072
25.170,-0.582,0.852,-0.078
25.180,-0.582,0.852,-0.074
25.190,-0.576,0.850,-0.074
25.200,-0.576,0.846,-0.074
25.210,-0.580,0.854,-0.074
25.220,-0.582,0.854,-0.074
25.230,-0.578,0.846,-0.074
25.239,-0.578,0.850,-0.074
25.249,-0.580,0.852,-0.074
25.259,-0.576,0.850,-0.074
25.269,-0.570,0.846,-0.076
25.279,-0.572,0.844,-0.078
25.289,-0.572,0.848,-0.076
25.299,-0.578,0.855,-0.078
25.309,-0.576,0.850,-0.074
25.319,-0.574,0.855,-0.078
25.329,-0.574,0.855,-0.076
25.339,-0.572,0.857,-0.078
25.349,-0.572,0.857,-0.080
25.359,-0.570,0.854,-0.074
25.369,-0.574,0.859,-0.074
25.379,-0.572,0.854,-0.080
25.389,-0.568,0.852,-0.072
25.398,-0.572,0.852,-0.078
25.408,-0.574,0.854,-0.076
25.418,-0.574,0.854,-0.074
25.428,-0.574,0.850,-0.074
25.438,-0.570,0.854,-0.076
25.448,-0.566,0.850,-0.074
25.458,-0.572,0.850,-0.076
25.468,-0.574,0.850,-0.080
25.478,-0.570,0.848,-0.080
25.488,-0.576,0.852,-0.076
25.498,-0.578,0.857,-0.082
25.508,-0.574,0.855,-0.080
25.518,-0.578,0.855,-0.078
25.528,-0.574,0.854,-0.080
25.538,-0.572,0.854,-0.076
25.547,-0.570,0.855,-0.082
25.557,-0.572,0.854,-0.080
25.567,-0.574,0.852,-0.078
25.577,-0.576,0.857,-0.078
25.587,-0.572,0.855,-0.082
25.597,-0.568,0.852,-0.080
25.607,-0.568,0.852,-0.076
25.617,-0.568,0.854,-0.074
25.627,-0.570,0.850,-0.076
25.637,-0.570,0.850,-0.078
25.647,-0.574,0.854,-0.078
25.657,-0.572,0.854,-0.078
25.667,-0.578,0.850,-0.082
25.677,-0.572,0.857,-0.084
25.687,-0.568,0.852,-0.078
25.696,-0.570,0.852,-0.080
25.706,-0.572,0.859,-0.080
25.716,-0.564,0.859,-0.076
25.726,-0.562,0.867,-0.078
25.736,-0.570,0.859,-0.078
25.746,-0.576,0.854,-0.084
25.756,-0.580,0.855,-0.082
25.766,-0.576,0.857,-0.082
25.776,-0.578,0.852,-0.076
25.786,-0.574,0.857,-0.080
25.796,-0.568,0.852,-0.080
25.806,-0.566,0.852,-0.078
25.816,-0.559,0.854,-0.072
25.826,-0.551,0.855,-0.074
25.836,-0.561,0.859,-0.070
25.845,-0.555,0.861,-0.072
25.855,-0.561,0.861,-0.070
25.865,-0.559,0.861,-0.072
25.875,-0.557,0.863,-0.072
25.885,-0.559,0.861,-0.072
25.895,-0.559,0.861,-0.072
25.905,-0.561,0.857,-0.070
25.915,-0.555,0.859,-0.074
25.925,-0.555,0.859,-0.072
25.935,-0.555,0.859,-0.070
25.945,-0.561,0.861,-0.076
25.955,-0.564,0.859,-0.076
25.965,-0.561,0.865,-0.068
25.975,-0.559,0.859,-0.072
25.985,-0.559,0.859,-0.074
25.994,-0.559,0.855,-0.074
26.004,-0.562,0.859,-0.074
26.014,-0.559,0.859,-0.076
26.024,-0.562,0.857,-0.074
26.034,-0.562,0.861,-0.076
26.044,-0.568,0.865,-0.072
26.054,-0.561,0.865,-0.072
26.064,-0.562,0.865,-0.074
26.074,-0.561,0.859,-0.072
26.084,-0.564,0.857,-0.072
26.094,-0.562,0.855,-0.072
26.104,-0.566,0.859,-0.074
26.114,-0.561,0.855,-0.074
26.124,-0.566,0.854,-0.074
26.134,-0.562,0.855,-0.068
26.144,-0.566,0.857,-0.070
26.153,-0.564,0.857,-0.070
26.163,-0.566,0.857,-0.072
26.173,-0.566,0.854,-0.076
26.183,-0.568,0.855,-0.072
26.193,-0.568,0.857,-0.070
26.203,-0.572,0.857,-0.072
26.213,-0.570,0.859,-0.072
26.223,-0.568,0.857,-0.072
26.233,-0.568,0.854,-0.068
26.243,-0.566,0.855,-0.074
26.253,-0.572,0.855,-0.070
26.263,-0.570,0.855,-0.074
26.273,-0.568,0.852,-0.078
26.283,-0.570,0.852,-0.076
26.293,-0.572,0.854,-0.080
26.302,-0.568,0.855,-0.076
26.312,-0.570,0.857,-0.074
26.322,-0.568,0.854,-0.074
26.332,-0.568,0.855,-0.074
26.342,-0.566,0.857,-0.078
26.352,-0.568,0.854,-0.074
26.362,-0.568,0.859,-0.078
26.372,-0.568,0.859,-0.074
26.382,-0.568,0.859,-0.080
26.392,-0.572,0.859,-0.076
26.402,-0.566,0.855,-0.078
26.412,-0.570,0.855,-0.074
26.422,-0.570,0.859,-0.076
26.432,-0.566,0.855,-0.074
26.442,-0.562,0.850,-0.074
26.451,-0.564,0.850,-0.080
26.461,-0.562,0.852,-0.082
26.471,-0.564,0.852,-0.080
26.481,-0.568,0.855,-0.076
26.491,-0.568,0.859,-0.080
26.501,-0.564,0.863,-0.080
26.511,-0.568,0.861,-0.078
26.521,-0.572,0.859,-0.074
26.531,-0.564,0.859,-0.074
26.541,-0.568,0.857,-0.078
26.551,-0.570,0.857,-0.076
26.561,-0.568,0.855,-0.080
26.571,-0.566,0.855,-0.074
26.581,-0.566,0.857,-0.078
26.591,-0.566,0.854,-0.076
26.600,-0.566,0.852,-0.074
26.610,-0.566,0.852,-0.074
26.620,-0.566,0.854,-0.074
26.630,-0.564,0.854,-0.072
26.640,-0.568,0.854,-0.076
26.650,-0.572,0.855,-0.074
26.660,-0.568,0.854,-0.078
26.670,-0.568,0.854,-0.076
26.680,-0.570,0.855,-0.078
26.690,-0.568,0.850,-0.076
26.700,-0.572,0.854,-0.076
26.710,-0.572,0.854,-0.078
26.720,-0.578,0.855,-0.076
26.730,-0.578,0.855,-0.074
26.740,-0.576,0.859,-0.080
26.750,-0.576,0.857,-0.076
26.759,-0.574,0.852,-0.074
26.769,-0.574,0.852,-0.076
26.779,-0.574,0.852,-0.076
26.789,-0.570,0.848,-0.074
26.799,-0.574,0.854,-0.072
26.809,-0.570,0.850,-0.074
26.819,-0.572,0.855,-0.076
26.829,-0.572,0.854,-0.072
26.839,-0.576,0.854,-0.074
26.849,-0.576,0.857,-0.072
26.859,-0.576,0.855,-0.076
26.869,-0.570,0.855,-0.074
26.879,-0.572,0.854,-0.072
26.889,-0.572,0.855,-0.074
26.899,-0.572,0.854,-0.074
26.908,-0.568,0.852,-0.074
26.918,-0.578,0.855,-0.072
26.928,-0.574,0.852,-0.074
26.938,-0.574,0.854,-0.072
26.948,-0.572,0.854,-0.070
26.958,-0.572,0.852,-0.070
26.968,-0.574,0.852,-0.068
26.978,-0.574,0.848,-0.072
26.988,-0.572,0.846,-0.072
26.998,-0.568,0.848,-0.072
27.008,-0.576,0.848,-0.072
27.018,-0.572,0.846,-0.070
27.028,-0.572,0.846,-0.070
27.038,-0.576,0.848,-0.072
27.048,-0.578,0.854,-0.070
27.057,-0.574,0.848,-0.074
27.067,-0.572,0.850,-0.076
27.077,-0.576,0.852,-0.076
27.087,-0.580,0.852,-0.076
27.097,-0.578,0.854,-0.078
27.107,-0.580,0.854,-0.076
27.117,-0.578,0.852,-0.076
27.127,-0.576,0.854,-0.078
27.137,-0.576,0.852,-0.076
27.147,-0.574,0.854,-0.074
27.157,-0.576,0.854,-0.076
27.167,-0.572,0.854,-0.076
27.177,-0.574,0.854,-0.076
27.187,-0.572,0.857,-0.076
27.197,-0.574,0.854,-0.076
27.206,-0.572,0.846,-0.076
27.216,-0.574,0.846,-0.076
27.226,-0.572,0.850,-0.076
27.236,-0.570,0.857,-0.074
27.246,-0.574,0.854,-0.074
27.256,-0.576,0.852,-0.078
27.266,-0.574,0.848,-0.076
27.276,-0.576,0.850,-0.080
27.286,-0.578,0.854,-0.080
27.296,-0.576,0.852,-0.076
27.306,-0.574,0.855,-0.070
27.316,-0.576,0.855,-0.072
27.326,-0.574,0.850,-0.074
27.336,-0.576,0.848,-0.076
27.346,-0.576,0.848,-0.076
27.355,-0.574,0.844,-0.074
27.365,-0.574,0.846,-0.082
27.375,-0.576,0.848,-0.076
27.385,-0.574,0.848,-0.076
27.395,-0.578,0.852,-0.076
27.405,-0.574,0.852,-0.078
27.415,-0.576,0.852,-0.076
27.425,-0.576,0.852,-0.080
27.435,-0.572,0.852,-0.074
27.445,-0.580,0.855,-0.076
27.455,-0.578,0.850,-0.078
27.465,-0.576,0.854,-0.078
27.475,-0.580,0.852,-0.076
27.485,-0.580,0.852,-0.078
27.495,-0.582,0.848,-0.076
27.505,-0.576,0.854,-0.074
27.514,-0.578,0.855,-0.072
27.524,-0.576,0.859,-0.070
27.534,-0.576,0.850,-0.078
27.544,-0.576,0.842,-0.072
27.554,-0.574,0.846,-0.074
27.564,-0.578,0.848,-0.076
27.574,-0.578,0.848,-0.074
27.584,-0.576,0.848,-0.076
27.594,-0.572,0.852,-0.072
27.604,-0.574,0.857,-0.074
27.614,-0.574,0.852,-0.074
27.624,-0.576,0.855,-0.076
27.634,-0.578,0.852,-0.072
27.644,-0.578,0.852,-0.076
27.654,-0.576,0.850,-0.074
27.663,-0.576,0.850,-0.072
27.673,-0.574,0.850,-0.070
27.683,-0.574,0.848,-0.076
27.693,-0.576,0.848,-0.076
27.703,-0.578,0.850,-0.072
27.713,-0.576,0.842,-0.070
27.723,-0.574,0.848,-0.070
27.733,-0.580,0.848,-0.072
27.743,-0.576,0.852,-0.074
27.753,-0.582,0.850,-0.074
27.763,-0.578,0.850,-0.076
27.773,-0.578,0.850,-0.076
27.783,-0.576,0.850,-0.070
27.793,-0.582,0.850,-0.074
27.803,-0.582,0.852,-0.072
27.812,-0.582,0.850,-0.074
27.822,-0.580,0.848,-0.074
27.832,-0.578,0.850,-0.074
27.842,-0.578,0.850,-0.072
27.852,-0.576,0.852,-0.074
27.862,-0.578,0.854,-0.074
27.872,-0.576,0.848,-0.074
27.882,-0.576,0.848,-0.072
27.892,-0.582,0.850,-0.074
27.902,-0.578,0.850,-0.074
27.912,-0.580,0.848,-0.072
27.922,-0.578,0.848,-0.074
27.932,-0.580,0.848,-0.078
27.942,-0.574,0.850,-0.076
27.952,-0.578,0.850,-0.074
27.961,-0.580,0.852,-0.072
27.971,-0.580,0.848,-0.078
27.981,-0.580,0.850,-0.074
27.991,-0.578,0.854,-0.074
28.001,-0.580,0.848,-0.074
28.011,-0.574,0.852,-0.074
28.021,-0.580,0.848,-0.076
28.031,-0.578,0.850,-0.074
28.041,-0.578,0.846,-0.074
28.051,-0.576,0.854,-0.074
28.061,-0.574,0.850,-0.072
28.071,-0.580,0.850,-0.072
28.081,-0.578,0.852,-0.076
28.091,-0.576,0.852,-0.076
28.101,-0.580,0.848,-0.076
28.110,-0.580,0.850,-0.074
28.120,-0.578,0.850,-0.076
28.130,-0.576,0.848,-0.076
28.140,-0.582,0.850,-0.076
28.150,-0.580,0.850,-0.076
28.160,-0.580,0.852,-0.078
28.170,-0.580,0.848,-0.076
28.180,-0.582,0.850,-0.074
28.190,-0.578,0.850,-0.076
28.200,-0.582,0.852,-0.076
28.210,-0.586,0.850,-0.078
28.220,-0.576,0.850,-0.074
28.230,-0.578,0.848,-0.074
28.240,-0.580,0.848,-0.074
28.250,-0.576,0.848,-0.074
28.260,-0.578,0.852,-0.074
28.269,-0.576,0.844,-0.072
28.279,-0.578,0.846,-0.074
28.289,-0.578,0.842,-0.076
28.299,-0.580,0.846,-0.072
28.309,-0.584,0.852,-0.074
28.319,-0.580,0.852,-0.074
28.329,-0.580,0.850,-0.072
28.339,-0.582,0.846,-0.076
28.349,-0.582,0.840,-0.074
28.359,-0.588,0.848,-0.074
28.369,-0.584,0.848,-0.080
28.379,-0.584,0.846,-0.072
28.389,-0.582,0.852,-0.070
28.399,-0.580,0.850,-0.072
28.409,-0.580,0.854,-0.072
28.418,-0.578,0.846,-0.074
28.428,-0.580,0.848,-0.076
28.438,-0.582,0.850,-0.074
28.448,-0.582,0.848,-0.076
28.458,-0.578,0.848,-0.076
28.468,-0.582,0.846,-0.076
28.478,-0.576,0.850,-0.074
28.488,-0.574,0.848,-0.076
28.498,-0.576,0.848,-0.074
28.508,-0.578,0.852,-0.074
28.518,-0.580,0.850,-0.076
28.528,-0.578,0.852,-0.074
28.538,-0.580,0.850,-0.076
28.548,-0.580,0.852,-0.078
28.558,-0.578,0.850,-0.076
28.567,-0.578,0.846,-0.076
28.577,-0.578,0.844,-0.074
28.587,-0.578,0.852,-0.072
28.597,-0.578,0.852,-0.074
28.607,-0.578,0.850,-0.072
28.617,-0.578,0.846,-0.074
28.627,-0.576,0.840,-0.076
28.637,-0.576,0.844,-0.074
28.647,-0.578,0.846,-0.078
28.657,-0.578,0.852,-0.076
28.667,-0.578,0.852,-0.076
28.677,-0.582,0.852,-0.078
28.687,-0.580,0.850,-0.080
28.697,-0.582,0.854,-0.078
28.707,-0.582,0.852,-0.082
28.716,-0.584,0.855,-0.078
28.726,-0.580,0.848,-0.078
28.736,-0.578,0.850,-0.076
28.746,-0.580,0.848,-0.076
28.756,-0.580,0.846,-0.078
28.766,-0.576,0.844,-0.076
28.776,-0.578,0.846,-0.076
28.786,-0.576,0.844,-0.074
28.796,-0.572,0.848,-0.076
28.806,-0.576,0.848,-0.074
28.816,-0.576,0.848,-0.074
28.826,-0.578,0.848,-0.076
28.836,-0.580,0.846,-0.080
28.846,-0.578,0.844,-0.080
28.856,-0.582,0.848,-0.078
28.865,-0.580,0.852,-0.078
28.875,-0.582,0.852,-0.078
28.885,-0.578,0.852,-0.080
28.895,-0.578,0.850,-0.078
28.905,-0.576,0.852,-0.078
28.915,-0.578,0.852,-0.082
28.925,-0.580,0.852,-0.076
28.935,-0.578,0.850,-0.080
28.945,-0.574,0.848,-0.078
28.955,-0.576,0.848,-0.078
28.965,-0.580,0.848,-0.080
28.975,-0.576,0.850,-0.078
28.985,-0.580,0.854,-0.080
28.995,-0.584,0.852,-0.082
29.005,-0.582,0.850,-0.078
29.015,-0.580,0.848,-0.076
29.024,-0.582,0.850,-0.080
29.034,-0.580,0.854,-0.080
29.044,-0.580,0.850,-0.076
29.054,-0.582,0.852,-0.078
29.064,-0.582,0.848,-0.082
29.074,-0.580,0.848,-0.074
29.084,-0.574,0.848,-0.078
29.094,-0.578,0.848,-0.078
29.104,-0.576,0.850,-0.078
29.114,-0.578,0.852,-0.076
29.124,-0.576,0.850,-0.072
29.134,-0.574,0.850,-0.082
29.144,-0.572,0.852,-0.078
29.154,-0.574,0.846,-0.076
29.164,-0.576,0.852,-0.076
29.173,-0.576,0.848,-0.074
29.183,-0.574,0.852,-0.076
29.193,-0.576,0.854,-0.076
29.203,-0.576,0.848,-0.076
29.213,-0.576,0.850,-0.078
29.223,-0.578,0.852,-0.078
29.233,-0.578,0.852,-0.082
29.243,-0.580,0.848,-0.074
29.253,-0.580,0.854,-0.078
29.263,-0.576,0.854,-0.078
29.273,-0.576,0.852,-0.076
29.283,-0.574,0.850,-0.076
29.293,-0.574,0.850,-0.074
29.303,-0.576,0.850,-0.076
29.313,-0.578,0.850,-0.078
29.322,-0.576,0.848,-0.076
29.332,-0.572,0.854,-0.076
29.342,-0.580,0.854,-0.076
29.352,-0.576,0.852,-0.076
29.362,-0.574,0.854,-0.074
29.372,-0.578,0.855,-0.078
29.382,-0.574,0.854,-0.080
29.392,-0.574,0.850,-0.082
29.402,-0.576,0.852,-0.078
29.412,-0.574,0.857,-0.076
29.422,-0.572,0.857,-0.074
29.432,-0.572,0.852,-0.070
29.442,-0.572,0.855,-0.072
29.452,-0.574,0.855,-0.074
29.462,-0.572,0.850,-0.076
29.471,-0.572,0.848,-0.074
29.481,-0.574,0.846,-0.078
29.491,-0.576,0.846,-0.076
29.501,-0.572,0.848,-0.078
29.511,-0.574,0.844,-0.076
29.521,-0.572,0.852,-0.078
29.531,-0.572,0.852,-0.076
29.541,-0.572,0.854,-0.074
29.551,-0.574,0.854,-0.076
29.561,-0.576,0.857,-0.074
29.571,-0.574,0.857,-0.076
29.581,-0.576,0.855,-0.078
29.591,-0.574,0.855,-0.076
29.601,-0.574,0.852,-0.080
29.611,-0.570,0.852,-0.074
29.621,-0.572,0.859,-0.074
29.630,-0.570,0.852,-0.072
29.640,-0.572,0.857,-0.074
29.650,-0.572,0.842,-0.080
29.660,-0.572,0.840,-0.080
29.670,-0.572,0.846,-0.080
29.680,-0.572,0.852,-0.076
29.690,-0.574,0.855,-0.078
29.700,-0.572,0.857,-0.078
29.710,-0.574,0.859,-0.076
29.720,-0.570,0.857,-0.078
29.730,-0.572,0.855,-0.076
29.740,-0.576,0.855,-0.082
29.750,-0.576,0.857,-0.078
29.760,-0.576,0.854,-0.074
29.770,-0.570,0.852,-0.076
29.779,-0.576,0.848,-0.076
29.789,-0.572,0.848,-0.074
29.799,-0.572,0.848,-0.078
29.809,-0.574,0.848,-0.072
29.819,-0.570,0.852,-0.074
29.829,-0.578,0.848,-0.076
29.839,-0.574,0.848,-0.076
29.849,-0.574,0.848,-0.076
29.859,-0.576,0.850,-0.078
29.869,-0.576,0.855,-0.074
29.879,-0.572,0.854,-0.076
29.889,-0.576,0.852,-0.076
29.899,-0.578,0.854,-0.078
29.909,-0.576,0.850,-0.078
29.919,-0.578,0.852,-0.078
29.928,-0.580,0.850,-0.080
29.938,-0.576,0.854,-0.078
29.948,-0.580,0.848,-0.076
29.958,-0.576,0.850,-0.078
29.968,-0.574,0.852,-0.074
29.978,-0.576,0.852,-0.078
29.988,-0.578,0.850,-0.080
29.998,-0.578,0.848,-0.076
30.008,-0.580,0.846,-0.078
30.018,-0.574,0.846,-0.074
30.028,-0.574,0.854,-0.078
30.038,-0.574,0.850,-0.074
30.048,-0.580,0.854,-0.078
30.058,-0.578,0.854,-0.074
30.068,-0.578,0.852,-0.078
30.077,-0.574,0.850,-0.080
30.087,-0.574,0.850,-0.074
30.097,-0.580,0.850,-0.076
30.107,-0.582,0.850,-0.078
30.117,-0.578,0.852,-0.074
30.127,-0.572,0.854,-0.078
30.137,-0.572,0.854,-0.072
30.147,-0.576,0.852,-0.076
30.157,-0.570,0.842,-0.080
30.167,-0.570,0.850,-0.076
30.177,-0.574,0.846,-0.076
30.187,-0.572,0.848,-0.076
30.197,-0.574,0.855,-0.070
30.207,-0.574,0.854,-0.076
30.217,-0.578,0.854,-0.076
30.226,-0.574,0.854,-0.076
30.236,-0.574,0.852,-0.078
30.246,-0.574,0.854,-0.076
30.256,-0.572,0.855,-0.076
30.266,-0.574,0.854,-0.076
30.276,-0.570,0.854,-0.078
30.286,-0.572,0.855,-0.078
30.296,-0.572,0.852,-0.076
30.306,-0.568,0.854,-0.072
30.316,-0.572,0.854,-0.072
30.326,-0.572,0.854,-0.076
30.336,-0.572,0.854,-0.076
30.346,-0.570,0.855,-0.078
30.356,-0.570,0.852,-0.078
30.366,-0.570,0.850,-0.076
30.376,-0.568,0.852,-0.078
30.385,-0.572,0.855,-0.074
30.395,-0.566,0.854,-0.078
30.405,-0.572,0.854,-0.074
30.415,-0.568,0.854,-0.080
30.425,-0.564,0.852,-0.072
30.435,-0.566,0.854,-0.076
30.445,-0.566,0.855,-0.078
30.455,-0.564,0.857,-0.072
30.465,-0.568,0.859,-0.074
30.475,-0.568,0.855,-0.080
30.485,-0.566,0.857,-0.076
30.495,-0.561,0.855,-0.070
30.505,-0.566,0.863,-0.078
30.515,-0.562,0.859,-0.076
30.525,-0.562,0.855,-0.076
30.534,-0.568,0.859,-0.074
30.544,-0.564,0.855,-0.080
30.554,-0.564,0.857,-0.078
30.564,-0.564,0.863,-0.078
30.574,-0.564,0.867,-0.078
30.584,-0.562,0.869,-0.082
30.594,-0.559,0.863,-0.082
30.604,-0.561,0.871,-0.078
30.614,-0.562,0.867,-0.076
30.624,-0.557,0.863,-0.078
30.634,-0.557,0.863,-0.074
30.644,-0.561,0.865,-0.078
30.654,-0.557,0.863,-0.076
30.664,-0.559,0.857,-0.078
30.674,-0.559,0.857,-0.076
30.683,-0.555,0.854,-0.072
30.693,-0.557,0.859,-0.072
30.703,-0.557,0.857,-0.074
30.713,-0.555,0.861,-0.074
30.723,-0.561,0.855,-0.076
30.733,-0.559,0.861,-0.074
30.743,-0.561,0.857,-0.074
30.753,-0.561,0.859,-0.078
30.763,-0.561,0.861,-0.074
30.773,-0.561,0.855,-0.074
30.783,-0.561,0.857,-0.074
30.793,-0.561,0.863,-0.074
30.803,-0.559,0.865,-0.072
30.813,-0.559,0.865,-0.074
30.823,-0.557,0.859,-0.074
30.832,-0.562,0.863,-0.074
30.842,-0.561,0.863,-0.072
30.852,-0.557,0.863,-0.074
30.862,-0.561,0.863,-0.070
30.872,-0.562,0.863,-0.076
30.882,-0.564,0.863,-0.074
30.892,-0.561,0.865,-0.078
30.902,-0.562,0.861,-0.078
30.912,-0.562,0.861,-0.074
30.922,-0.562,0.865,-0.070
30.932,-0.561,0.867,-0.076
30.942,-0.559,0.867,-0.074
30.952,-0.559,0.865,-0.074
30.962,-0.561,0.865,-0.072
30.972,-0.561,0.867,-0.072
30.981,-0.561,0.865,-0.072
30.991,-0.561,0.865,-0.074
31.001,-0.561,0.873,-0.072
31.011,-0.561,0.875,-0.068
31.021,-0.559,0.863,-0.070
31.031,-0.555,0.865,-0.068
31.041,-0.553,0.861,-0.070
31.051,-0.559,0.850,-0.070
31.061,-0.555,0.852,-0.066
31.071,-0.564,0.869,-0.070
31.081,-0.562,0.865,-0.076
31.091,-0.559,0.842,-0.068
31.101,-0.564,0.857,-0.068
31.111,-0.557,0.852,-0.064
31.121,-0.559,0.857,-0.064
31.131,-0.557,0.855,-0.066
31.140,-0.557,0.854,-0.066
31.150,-0.555,0.855,-0.061
31.160,-0.561,0.861,-0.064
31.170,-0.561,0.867,-0.070
31.180,-0.555,0.857,-0.066
31.190,-0.559,0.859,-0.068
31.200,-0.566,0.857,-0.068
31.210,-0.568,0.859,-0.066
31.220,-0.564,0.857,-0.070
31.230,-0.564,0.857,-0.066
31.240,-0.564,0.867,-0.068
31.250,-0.562,0.865,-0.066
31.260,-0.559,0.863,-0.064
31.270,-0.551,0.859,-0.066
31.280,-0.553,0.861,-0.062
31.289,-0.559,0.865,-0.064
31.299,-0.561,0.867,-0.066
31.309,-0.559,0.857,-0.066
31.319,-0.561,0.861,-0.064
31.329,-0.564,0.865,-0.066
31.339,-0.559,0.865,-0.062
31.349,-0.555,0.865,-0.061
31.359,-0.553,0.854,-0.064
31.369,-0.555,0.855,-0.062
31.379,-0.555,0.859,-0.062
31.389,-0.555,0.863,-0.066
31.399,-0.559,0.861,-0.066
31.409,-0.559,0.865,-0.066
31.419,-0.559,0.863,-0.064
31.429,-0.559,0.863,-0.068
31.438,-0.555,0.867,-0.064
31.448,-0.549,0.861,-0.066
31.458,-0.553,0.861,-0.064
31.468,-0.559,0.865,-0.064
31.478,-0.566,0.861,-0.062
31.488,-0.557,0.859,-0.066
31.498,-0.551,0.857,-0.062
31.508,-0.555,0.867,-0.066
31.518,-0.559,0.861,-0.064
31.528,-0.553,0.865,-0.064
31.538,-0.557,0.867,-0.070
31.548,-0.559,0.869,-0.066
31.558,-0.557,0.871,-0.070
31.568,-0.559,0.869,-0.074
31.578,-0.557,0.869,-0.072
31.587,-0.555,0.871,-0.068
31.597,-0.557,0.869,-0.072
31.607,-0.557,0.869,-0.072
31.617,-0.562,0.867,-0.068
31.627,-0.562,0.861,-0.070
31.637,-0.562,0.861,-0.070
31.647,-0.559,0.865,-0.064
31.657,-0.557,0.859,-0.070
31.667,-0.549,0.857,-0.072
31.677,-0.553,0.865,-0.066
31.687,-0.562,0.869,-0.066
31.697,-0.562,0.865,-0.070
31.707,-0.564,0.869,-0.066
31.717,-0.557,0.863,-0.066
31.727,-0.557,0.859,-0.070
31.736,-0.553,0.863,-0.074
31.746,-0.555,0.857,-0.072
31.756,-0.559,0.859,-0.074
31.766,-0.562,0.857,-0.074
31.776,-0.564,0.861,-0.068
31.786,-0.564,0.861,-0.074
31.796,-0.561,0.871,-0.072
31.806,-0.557,0.867,-0.074
31.816,-0.553,0.865,-0.072
31.826,-0.551,0.865,-0.072
31.836,-0.551,0.867,-0.068
31.846,-0.557,0.865,-0.068
31.856,-0.553,0.867,-0.070
31.866,-0.547,0.869,-0.064
31.876,-0.547,0.873,-0.068
31.886,-0.541,0.867,-0.068
31.895,-0.545,0.861,-0.066
31.905,-0.549,0.865,-0.070
31.915,-0.533,0.875,-0.064
31.925,-0.539,0.877,-0.059
31.935,-0.545,0.873,-0.066
31.945,-0.547,0.871,-0.066
31.955,-0.555,0.859,-0.072
31.965,-0.543,0.875,-0.068
31.975,-0.539,0.871,-0.062
31.985,-0.549,0.865,-0.074
31.995,-0.545,0.865,-0.070
32.005,-0.547,0.865,-0.070
32.015,-0.555,0.861,-0.078
32.025,-0.559,0.861,-0.074
32.035,-0.562,0.861,-0.078
32.044,-0.566,0.859,-0.084
32.054,-0.570,0.861,-0.080
32.064,-0.570,0.857,-0.082
32.074,-0.566,0.867,-0.082
32.084,-0.566,0.869,-0.078
32.094,-0.562,0.865,-0.078
32.104,-0.562,0.863,-0.080
32.114,-0.549,0.869,-0.074
32.124,-0.553,0.869,-0.074
32.134,-0.557,0.865,-0.078
32.144,-0.564,0.873,-0.076
32.154,-0.557,0.871,-0.078
32.164,-0.553,0.871,-0.076
32.174,-0.551,0.869,-0.074
32.184,-0.549,0.867,-0.074
32.193,-0.549,0.867,-0.072
32.203,-0.543,0.877,-0.068
32.213,-0.539,0.877,-0.064
32.223,-0.535,0.869,-0.068
32.233,-0.537,0.863,-0.066
32.243,-0.543,0.865,-0.070
32.253,-0.537,0.865,-0.064
32.263,-0.537,0.869,-0.066
32.273,-0.543,0.871,-0.072
32.283,-0.543,0.873,-0.066
32.293,-0.543,0.877,-0.068
32.303,-0.547,0.875,-0.072
32.313,-0.539,0.873,-0.074
32.323,-0.537,0.879,-0.066
32.333,-0.543,0.875,-0.070
32.342,-0.547,0.873,-0.068
32.352,-0.547,0.877,-0.078
32.362,-0.541,0.871,-0.066
32.372,-0.539,0.869,-0.072
32.382,-0.539,0.871,-0.068
32.392,-0.537,0.869,-0.070
32.402,-0.543,0.867,-0.066
32.412,-0.539,0.869,-0.070
32.422,-0.541,0.867,-0.066
32.432,-0.543,0.867,-0.068
32.442,-0.545,0.865,-0.066
32.452,-0.549,0.863,-0.066
32.462,-0.551,0.863,-0.068
32.472,-0.547,0.867,-0.064
32.482,-0.553,0.867,-0.066
32.492,-0.553,0.867,-0.066
32.501,-0.555,0.869,-0.066
32.511,-0.555,0.869,-0.066
32.521,-0.557,0.869,-0.061
32.531,-0.555,0.867,-0.068
32.541,-0.553,0.863,-0.064
32.551,-0.553,0.859,-0.064
32.561,-0.549,0.867,-0.066
32.571,-0.553,0.879,-0.061
32.581,-0.549,0.869,-0.062
32.591,-0.549,0.863,-0.062
32.601,-0.549,0.865,-0.062
32.611,-0.557,0.863,-0.061
32.621,-0.555,0.867,-0.062
32.631,-0.555,0.865,-0.062
32.641,-0.559,0.865,-0.061
32.650,-0.559,0.861,-0.066
32.660,-0.555,0.863,-0.062
32.670,-0.557,0.865,-0.061
32.680,-0.559,0.867,-0.066
32.690,-0.557,0.871,-0.064
32.700,-0.555,0.873,-0.062
32.710,-0.557,0.871,-0.064
32.720,-0.551,0.861,-0.064
32.730,-0.549,0.863,-0.064
32.740,-0.551,0.867,-0.059
32.750,-0.557,0.869,-0.062
32.760,-0.555,0.869,-0.061
32.770,-0.553,0.869,-0.059
32.780,-0.555,0.865,-0.064
32.790,-0.559,0.861,-0.064
32.799,-0.557,0.861,-0.066
32.809,-0.557,0.863,-0.062
32.819,-0.557,0.861,-0.066
32.829,-0.555,0.867,-0.066
32.839,-0.557,0.867,-0.066
32.849,-0.555,0.865,-0.062
32.859,-0.553,0.865,-0.070
32.869,-0.557,0.863,-0.068
32.879,-0.557,0.863,-0.062
32.889,-0.559,0.861,-0.068
32.899,-0.555,0.863,-0.068
32.909,-0.557,0.861,-0.064
32.919,-0.555,0.863,-0.062
32.929,-0.555,0.865,-0.068
32.939,-0.553,0.865,-0.066
32.948,-0.553,0.863,-0.066
32.958,-0.553,0.865,-0.064
32.968,-0.557,0.869,-0.062
32.978,-0.555,0.865,-0.066
32.988,-0.553,0.869,-0.064
32.998,-0.557,0.863,-0.066
33.008,-0.553,0.859,-0.066
33.018,-0.555,0.861,-0.066
33.028,-0.555,0.867,-0.062
33.038,-0.555,0.867,-0.061
33.048,-0.551,0.865,-0.062
33.058,-0.553,0.857,-0.064
33.068,-0.555,0.861,-0.066
33.078,-0.557,0.863,-0.066
33.088,-0.557,0.865,-0.064
33.097,-0.557,0.865,-0.062
33.107,-0.557,0.865,-0.064
33.117,-0.555,0.869,-0.066
33.127,-0.561,0.867,-0.066
33.137,-0.559,0.869,-0.068
33.147,-0.559,0.867,-0.064
33.157,-0.553,0.865,-0.064
33.167,-0.553,0.867,-0.061
33.177,-0.559,0.869,-0.064
33.187,-0.557,0.865,-0.062
33.197,-0.551,0.859,-0.066
33.207,-0.553,0.859,-0.064
33.217,-0.557,0.854,-0.064
33.227,-0.557,0.863,-0.064
33.237,-0.557,0.859,-0.066
33.247,-0.557,0.863,-0.064
33.256,-0.557,0.865,-0.064
33.266,-0.561,0.865,-0.064
33.276,-0.559,0.867,-0.066
33.286,-0.561,0.863,-0.064
33.296,-0.559,0.863,-0.066
33.306,-0.559,0.865,-0.066
33.316,-0.561,0.867,-0.070
33.326,-0.561,0.863,-0.066
33.336,-0.557,0.863,-0.064
33.346,-0.559,0.865,-0.066
33.356,-0.559,0.861,-0.061
33.366,-0.557,0.865,-0.066
33.376,-0.561,0.867,-0.064
33.386,-0.561,0.863,-0.064
33.396,-0.557,0.861,-0.064
33.405,-0.559,0.861,-0.066
33.415,-0.557,0.859,-0.064
33.425,-0.561,0.859,-0.062
33.435,-0.562,0.861,-0.064
33.445,-0.562,0.861,-0.062
33.455,-0.562,0.865,-0.066
33.465,-0.561,0.861,-0.064
33.475,-0.559,0.859,-0.066
33.485,-0.561,0.861,-0.066
33.495,-0.559,0.859,-0.066
33.505,-0.559,0.859,-0.064
33.515,-0.564,0.861,-0.064
33.525,-0.562,0.857,-0.064
33.535,-0.562,0.863,-0.068
33.545,-0.562,0.865,-0.066
33.554,-0.564,0.865,-0.066
33.564,-0.559,0.863,-0.064
33.574,-0.561,0.863,-0.070
33.584,-0.564,0.861,-0.070
33.594,-0.562,0.859,-0.066
33.604,-0.564,0.863,-0.064
33.614,-0.564,0.863,-0.064
33.624,-0.562,0.861,-0.066
33.634,-0.557,0.855,-0.068
33.644,-0.557,0.857,-0.064
33.654,-0.559,0.863,-0.066
33.664,-0.561,0.871,-0.066
33.674,-0.561,0.867,-0.064
33.684,-0.559,0.865,-0.062
33.694,-0.561,0.859,-0.068
33.703,-0.564,0.859,-0.068
33.713,-0.562,0.857,-0.066
33.723,-0.564,0.861,-0.068
33.733,-0.564,0.865,-0.066
33.743,-0.564,0.863,-0.064
33.753,-0.561,0.863,-0.064
33.763,-0.561,0.861,-0.066
33.773,-0.562,0.863,-0.066
33.783,-0.562,0.861,-0.066
33.793,-0.561,0.857,-0.066
33.803,-0.562,0.855,-0.070
33.813,-0.562,0.857,-0.068
33.823,-0.561,0.857,-0.070
33.833,-0.559,0.861,-0.064
33.843,-0.562,0.865,-0.066
33.852,-0.559,0.865,-0.066
33.862,-0.555,0.863,-0.062
33.872,-0.557,0.871,-0.066
33.882,-0.559,0.867,-0.062
33.892,-0.555,0.867,-0.064
33.902,-0.557,0.865,-0.066
33.912,-0.557,0.863,-0.068
33.922,-0.555,0.859,-0.064
33.932,-0.555,0.863,-0.066
33.942,-0.555,0.867,-0.062
33.952,-0.555,0.865,-0.061
33.962,-0.553,0.857,-0.064
33.972,-0.555,0.857,-0.066
33.982,-0.562,0.861,-0.068
33.992,-0.562,0.863,-0.068
34.002,-0.562,0.865,-0.064
34.011,-0.561,0.865,-0.068
34.021,-0.562,0.863,-0.068
34.031,-0.562,0.861,-0.068
34.041,-0.564,0.865,-0.068
34.051,-0.562,0.865,-0.068
34.061,-0.561,0.869,-0.064
34.071,-0.562,0.863,-0.064
34.081,-0.562,0.861,-0.068
34.091,-0.562,0.859,-0.066
34.101,-0.564,0.855,-0.070
34.111,-0.562,0.854,-0.066
34.121,-0.564,0.855,-0.064
34.131,-0.562,0.854,-0.064
34.141,-0.562,0.857,-0.066
34.151,-0.562,0.857,-0.066
34.160,-0.564,0.859,-0.064
34.170,-0.562,0.859,-0.064
34.180,-0.566,0.863,-0.068
34.190,-0.566,0.861,-0.066
34.200,-0.572,0.861,-0.066
34.210,-0.566,0.865,-0.068
34.220,-0.568,0.865,-0.066
34.230,-0.566,0.859,-0.070
34.240,-0.568,0.859,-0.066
34.250,-0.564,0.859,-0.066
34.260,-0.561,0.857,-0.070
34.270,-0.562,0.855,-0.068
34.280,-0.562,0.855,-0.066
34.290,-0.562,0.861,-0.068
34.300,-0.562,0.863,-0.066
34.309,-0.562,0.859,-0.066
34.319,-0.562,0.857,-0.064
34.329,-0.561,0.859,-0.066
34.339,-0.564,0.857,-0.064
34.349,-0.562,0.857,-0.062
34.359,-0.564,0.859,-0.066
34.369,-0.564,0.859,-0.072
34.379,-0.568,0.855,-0.070
34.389,-0.568,0.861,-0.068
34.399,-0.568,0.857,-0.072
34.409,-0.562,0.859,-0.068
34.419,-0.568,0.859,-0.066
34.429,-0.564,0.857,-0.068
34.439,-0.564,0.861,-0.066
34.449,-0.564,0.861,-0.068
34.458,-0.562,0.855,-0.068
34.468,-0.564,0.861,-0.068
34.478,-0.566,0.861,-0.070
34.488,-0.566,0.857,-0.070
34.498,-0.566,0.859,-0.070
34.508,-0.566,0.855,-0.066
34.518,-0.568,0.855,-0.066
34.528,-0.566,0.859,-0.068
34.538,-0.568,0.857,-0.070
34.548,-0.566,0.861,-0.070
34.558,-0.568,0.859,-0.068
34.568,-0.566,0.857,-0.068
34.578,-0.568,0.861,-0.072
34.588,-0.570,0.859,-0.070
34.598,-0.562,0.859,-0.074
34.607,-0.564,0.859,-0.076
34.617,-0.566,0.861,-0.066
34.627,-0.564,0.863,-0.072
34.637,-0.562,0.861,-0.072
34.647,-0.562,0.854,-0.070
34.657,-0.562,0.855,-0.068
34.667,-0.562,0.859,-0.068
34.677,-0.564,0.859,-0.072
34.687,-0.561,0.857,-0.068
34.697,-0.566,0.859,-0.072
34.707,-0.566,0.861,-0.072
34.717,-0.568,0.861,-0.072
34.727,-0.566,0.857,-0.072
34.737,-0.566,0.861,-0.070
34.747,-0.566,0.857,-0.068
34.757,-0.562,0.857,-0.072
34.766,-0.562,0.857,-0.072
34.776,-0.566,0.857,-0.068
34.786,-0.562,0.854,-0.068
34.796,-0.562,0.863,-0.070
34.806,-0.562,0.857,-0.070
34.816,-0.559,0.857,-0.072
34.826,-0.561,0.855,-0.070
34.836,-0.561,0.861,-0.070
34.846,-0.561,0.865,-0.072
34.856,-0.564,0.865,-0.068
34.866,-0.566,0.857,-0.070
34.876,-0.564,0.857,-0.074
34.886,-0.566,0.859,-0.074
34.896,-0.568,0.861,-0.074
34.906,-0.566,0.867,-0.070
34.915,-0.562,0.865,-0.072
34.925,-0.564,0.865,-0.070
34.935,-0.562,0.857,-0.070
34.945,-0.564,0.857,-0.074
34.955,-0.566,0.854,-0.072
34.965,-0.564,0.854,-0.078
34.975,-0.564,0.854,-0.072
34.985,-0.566,0.857,-0.074
34.995,-0.564,0.855,-0.074
35.005,-0.561,0.863,-0.076
35.015,-0.561,0.859,-0.074
35.025,-0.564,0.863,-0.076
35.035,-0.561,0.859,-0.074
35.045,-0.562,0.863,-0.076
35.055,-0.562,0.859,-0.076
35.064,-0.562,0.857,-0.078
35.074,-0.564,0.859,-0.072
35.084,-0.566,0.861,-0.076
35.094,-0.566,0.859,-0.076
35.104,-0.562,0.863,-0.074
35.114,-0.564,0.859,-0.070
35.124,-0.561,0.859,-0.070
35.134,-0.562,0.859,-0.076
35.144,-0.562,0.850,-0.076
35.154,-0.562,0.852,-0.078
35.164,-0.562,0.857,-0.074
35.174,-0.562,0.861,-0.076
35.184,-0.564,0.861,-0.074
35.194,-0.561,0.865,-0.076
35.204,-0.562,0.867,-0.076
35.213,-0.562,0.863,-0.076
35.223,-0.562,0.861,-0.076
35.233,-0.566,0.859,-0.070
35.243,-0.562,0.861,-0.074
35.253,-0.564,0.857,-0.074
35.263,-0.562,0.855,-0.074
35.273,-0.564,0.859,-0.072
35.283,-0.561,0.857,-0.072
35.293,-0.561,0.861,-0.074
35.303,-0.559,0.859,-0.072
35.313,-0.555,0.857,-0.074
35.323,-0.557,0.859,-0.072
35.333,-0.559,0.859,-0.072
35.343,-0.561,0.861,-0.072
35.353,-0.557,0.859,-0.074
35.362,-0.559,0.863,-0.076
35.372,-0.562,0.859,-0.076
35.382,-0.564,0.861,-0.074
35.392,-0.562,0.863,-0.076
35.402,-0.566,0.859,-0.074
35.412,-0.564,0.859,-0.072
35.422,-0.566,0.857,-0.076
35.432,-0.566,0.857,-0.078
35.442,-0.568,0.859,-0.072
35.452,-0.566,0.857,-0.074
35.462,-0.568,0.857,-0.072
35.472,-0.568,0.859,-0.074
35.482,-0.566,0.861,-0.074
35.492,-0.568,0.854,-0.072
35.502,-0.566,0.854,-0.074
35.512,-0.566,0.855,-0.074
35.521,-0.566,0.855,-0.070
35.531,-0.566,0.857,-0.072
35.541,-0.566,0.855,-0.072
35.551,-0.566,0.855,-0.070
35.561,-0.564,0.857,-0.072
35.571,-0.564,0.857,-0.074
35.581,-0.562,0.857,-0.074
35.591,-0.562,0.857,-0.072
35.601,-0.561,0.861,-0.074
35.611,-0.564,0.857,-0.070
35.621,-0.561,0.855,-0.072
35.631,-0.564,0.855,-0.072
35.641,-0.562,0.855,-0.074
35.651,-0.564,0.855,-0.072
35.661,-0.564,0.854,-0.072
35.670,-0.561,0.854,-0.072
35.680,-0.566,0.854,-0.070
35.690,-0.564,0.855,-0.074
35.700,-0.564,0.857,-0.072
35.710,-0.566,0.859,-0.076
35.720,-0.566,0.855,-0.072
35.730,-0.570,0.861,-0.074
35.740,-0.574,0.861,-0.078
35.750,-0.574,0.861,-0.078
35.760,-0.572,0.859,-0.076
35.770,-0.568,0.857,-0.074
35.780,-0.568,0.863,-0.074
35.790,-0.570,0.857,-0.076
35.800,-0.568,0.859,-0.078
35.810,-0.566,0.855,-0.072
35.819,-0.564,0.854,-0.072
35.829,-0.561,0.855,-0.074
35.839,-0.564,0.861,-0.072
35.849,-0.570,0.857,-0.072
35.859,-0.566,0.857,-0.072
35.869,-0.568,0.857,-0.076
35.879,-0.570,0.859,-0.076
35.889,-0.564,0.859,-0.068
35.899,-0.564,0.857,-0.074
35.909,-0.568,0.855,-0.076
35.919,-0.566,0.848,-0.074
35.929,-0.568,0.857,-0.072
35.939,-0.574,0.861,-0.072
35.949,-0.570,0.861,-0.070
35.959,-0.570,0.859,-0.068
35.968,-0.568,0.854,-0.070
35.978,-0.566,0.852,-0.070
35.988,-0.564,0.850,-0.074
35.998,-0.568,0.848,-0.068
36.008,-0.570,0.848,-0.074
36.018,-0.570,0.848,-0.074
36.028,-0.566,0.854,-0.072
36.038,-0.572,0.859,-0.072
36.048,-0.572,0.859,-0.072
36.058,-0.568,0.857,-0.070
36.068,-0.566,0.857,-0.072
36.078,-0.572,0.857,-0.072
36.088,-0.570,0.857,-0.076
36.098,-0.570,0.855,-0.072
36.108,-0.570,0.855,-0.072
36.118,-0.568,0.852,-0.076
36.127,-0.570,0.852,-0.072
36.137,-0.566,0.859,-0.070
36.147,-0.566,0.859,-0.068
36.157,-0.564,0.859,-0.070
36.167,-0.564,0.850,-0.068
36.177,-0.566,0.846,-0.076
36.187,-0.570,0.850,-0.072
36.197,-0.568,0.850,-0.072
36.207,-0.564,0.855,-0.074
36.217,-0.566,0.855,-0.072
36.227,-0.566,0.857,-0.074
36.237,-0.568,0.861,-0.076
36.247,-0.570,0.861,-0.074
36.257,-0.570,0.857,-0.076
36.267,-0.572,0.859,-0.074
36.276,-0.574,0.863,-0.074
36.286,-0.570,0.859,-0.076
36.296,-0.570,0.857,-0.074
36.306,-0.570,0.854,-0.072
36.316,-0.568,0.854,-0.074
36.326,-0.568,0.857,-0.072
36.336,-0.570,0.854,-0.072
36.346,-0.566,0.854,-0.072
36.356,-0.568,0.854,-0.074
36.366,-0.568,0.854,-0.072
36.376,-0.566,0.855,-0.076
36.386,-0.570,0.857,-0.076
36.396,-0.572,0.852,-0.076
36.406,-0.570,0.855,-0.074
36.416,-0.574,0.852,-0.074
36.425,-0.574,0.852,-0.074
36.435,-0.576,0.855,-0.074
36.445,-0.572,0.852,-0.072
36.455,-0.572,0.854,-0.076
36.465,-0.576,0.854,-0.078
36.475,-0.576,0.855,-0.074
36.485,-0.576,0.857,-0.078
36.495,-0.572,0.852,-0.072
36.505,-0.574,0.857,-0.078
36.515,-0.574,0.855,-0.074
36.525,-0.574,0.859,-0.074
36.535,-0.576,0.854,-0.076
36.545,-0.574,0.850,-0.076
36.555,-0.576,0.852,-0.074
36.565,-0.574,0.850,-0.076
36.574,-0.576,0.850,-0.074
36.584,-0.578,0.852,-0.074
36.594,-0.578,0.855,-0.072
36.604,-0.574,0.855,-0.074
36.614,-0.576,0.854,-0.074
36.624,-0.576,0.852,-0.074
36.634,-0.576,0.852,-0.074
36.644,-0.574,0.854,-0.076
36.654,-0.572,0.848,-0.074
36.664,-0.576,0.850,-0.074
36.674,-0.574,0.850,-0.076
36.684,-0.574,0.854,-0.076
36.694,-0.574,0.852,-0.074
36.704,-0.574,0.850,-0.076
36.714,-0.576,0.852,-0.076
36.723,-0.576,0.852,-0.076
36.733,-0.576,0.854,-0.076
36.743,-0.574,0.855,-0.074
36.753,-0.574,0.854,-0.078
36.763,-0.568,0.854,-0.076
36.773,-0.568,0.854,-0.076
36.783,-0.574,0.854,-0.078
36.793,-0.572,0.857,-0.076
36.803,-0.578,0.859,-0.072
36.813,-0.578,0.854,-0.076
36.823,-0.572,0.850,-0.074
36.833,-0.572,0.846,-0.076
36.843,-0.570,0.852,-0.072
36.853,-0.572,0.855,-0.068
36.863,-0.574,0.855,-0.072
36.873,-0.572,0.852,-0.066
36.882,-0.578,0.854,-0.070
36.892,-0.578,0.852,-0.074
36.902,-0.578,0.850,-0.078
36.912,-0.584,0.852,-0.074
36.922,-0.580,0.854,-0.076
36.932,-0.580,0.854,-0.070
36.942,-0.582,0.854,-0.068
36.952,-0.578,0.850,-0.074
36.962,-0.580,0.848,-0.074
36.972,-0.580,0.842,-0.072
36.982,-0.582,0.846,-0.074
36.992,-0.580,0.844,-0.076
37.002,-0.578,0.846,-0.078
37.012,-0.576,0.850,-0.072
37.022,-0.574,0.852,-0.074
37.031,-0.576,0.855,-0.074
37.041,-0.574,0.852,-0.072
37.051,-0.580,0.854,-0.072
37.061,-0.580,0.850,-0.072
37.071,-0.578,0.850,-0.072
37.081,-0.580,0.854,-0.074
37.091,-0.580,0.854,-0.076
37.101,-0.582,0.850,-0.072
37.111,-0.580,0.852,-0.072
37.121,-0.578,0.848,-0.070
37.131,-0.580,0.850,-0.070
37.141,-0.584,0.852,-0.068
37.151,-0.578,0.852,-0.072
37.161,-0.580,0.842,-0.070
37.171,-0.582,0.842,-0.076
37.180,-0.578,0.846,-0.070
37.190,-0.584,0.850,-0.072
37.200,-0.582,0.850,-0.070
37.210,-0.580,0.852,-0.076
37.220,-0.578,0.852,-0.072
37.230,-0.576,0.854,-0.070
37.240,-0.580,0.854,-0.074
37.250,-0.576,0.852,-0.072
37.260,-0.580,0.852,-0.072
37.270,-0.584,0.850,-0.074
37.280,-0.578,0.850,-0.074
37.290,-0.576,0.848,-0.072
37.300,-0.578,0.852,-0.072
37.310,-0.580,0.846,-0.072
37.320,-0.576,0.846,-0.070
37.329,-0.576,0.850,-0.072
37.339,-0.578,0.846,-0.066
37.349,-0.576,0.848,-0.072
37.359,-0.578,0.852,-0.072
37.369,-0.580,0.848,-0.074
37.379,-0.580,0.854,-0.070
37.389,-0.578,0.846,-0.072
37.399,-0.578,0.848,-0.072
37.409,-0.584,0.852,-0.072
37.419,-0.582,0.850,-0.072
37.429,-0.582,0.850,-0.076
37.439,-0.584,0.848,-0.074
37.449,-0.586,0.850,-0.076
37.459,-0.584,0.852,-0.072
37.469,-0.586,0.852,-0.072
37.478,-0.584,0.850,-0.072
37.488,-0.586,0.846,-0.072
37.498,-0.584,0.848,-0.072
37.508,-0.584,0.850,-0.072
37.518,-0.588,0.850,-0.072
37.528,-0.584,0.846,-0.072
37.538,-0.584,0.844,-0.074
37.548,-0.584,0.846,-0.070
37.558,-0.584,0.846,-0.072
37.568,-0.582,0.846,-0.070
37.578,-0.582,0.842,-0.072
37.588,-0.586,0.848,-0.070
37.598,-0.584,0.850,-0.072
37.608,-0.584,0.846,-0.074
37.618,-0.580,0.842,-0.074
37.628,-0.582,0.846,-0.072
37.637,-0.582,0.846,-0.072
37.647,-0.580,0.848,-0.072
37.657,-0.578,0.846,-0.074
37.667,-0.582,0.848,-0.072
37.677,-0.582,0.850,-0.074
37.687,-0.582,0.850,-0.070
37.697,-0.582,0.844,-0.072
37.707,-0.584,0.852,-0.074
37.717,-0.582,0.852,-0.074
37.727,-0.580,0.846,-0.070
37.737,-0.582,0.848,-0.072
37.747,-0.584,0.846,-0.078
37.757,-0.580,0.846,-0.076
37.767,-0.582,0.846,-0.074
37.777,-0.582,0.850,-0.072
37.786,-0.580,0.850,-0.074
37.796,-0.584,0.854,-0.076
37.806,-0.580,0.854,-0.074
37.816,-0.582,0.852,-0.074
37.826,-0.582,0.850,-0.076
37.836,-0.580,0.850,-0.074
37.846,-0.578,0.846,-0.074
37.856,-0.580,0.846,-0.076
37.866,-0.580,0.850,-0.072
37.876,-0.580,0.854,-0.070
37.886,-0.576,0.844,-0.074
37.896,-0.570,0.842,-0.072
37.906,-0.574,0.850,-0.070
37.916,-0.576,0.854,-0.068
37.926,-0.578,0.855,-0.072
37.935,-0.578,0.850,-0.070
37.945,-0.580,0.848,-0.076
37.955,-0.584,0.850,-0.072
37.965,-0.586,0.850,-0.076
37.975,-0.582,0.850,-0.076
37.985,-0.586,0.850,-0.076
37.995,-0.582,0.852,-0.076
38.005,-0.584,0.850,-0.076
38.015,-0.582,0.848,-0.072
38.025,-0.584,0.848,-0.078
38.035,-0.582,0.848,-0.076
38.045,-0.586,0.844,-0.078
38.055,-0.582,0.846,-0.076
38.065,-0.582,0.846,-0.078
38.075,-0.582,0.848,-0.076
38.084,-0.582,0.850,-0.074
38.094,-0.584,0.848,-0.072
38.104,-0.582,0.848,-0.076
38.114,-0.582,0.844,-0.078
38.124,-0.582,0.848,-0.076
38.134,-0.586,0.846,-0.076
38.144,-0.580,0.846,-0.074
38.154,-0.584,0.846,-0.074
38.164,-0.584,0.850,-0.076
38.174,-0.580,0.848,-0.074
38.184,-0.580,0.844,-0.074
38.194,-0.580,0.848,-0.072
38.204,-0.578,0.852,-0.072
38.214,-0.580,0.854,-0.072
38.224,-0.578,0.840,-0.072
38.233,-0.584,0.840,-0.074
38.243,-0.584,0.850,-0.072
38.253,-0.584,0.844,-0.074
38.263,-0.582,0.850,-0.076
38.273,-0.584,0.854,-0.072
38.283,-0.578,0.854,-0.074
38.293,-0.582,0.852,-0.076
38.303,-0.582,0.854,-0.074
38.313,-0.584,0.852,-0.076
38.323,-0.582,0.846,-0.074
38.333,-0.584,0.848,-0.076
38.343,-0.582,0.848,-0.074
38.353,-0.584,0.852,-0.074
38.363,-0.582,0.846,-0.072
38.373,-0.578,0.848,-0.072
38.383,-0.580,0.846,-0.076
38.392,-0.578,0.850,-0.074
38.402,-0.578,0.848,-0.072
38.412,-0.582,0.846,-0.076
38.422,-0.580,0.850,-0.076
38.432,-0.582,0.850,-0.078
38.442,-0.578,0.848,-0.074
38.452,-0.584,0.850,-0.074
38.462,-0.584,0.850,-0.076
38.472,-0.586,0.852,-0.076
38.482,-0.586,0.854,-0.074
38.492,-0.580,0.850,-0.072
38.502,-0.582,0.850,-0.078
38.512,-0.582,0.848,-0.074
38.522,-0.580,0.848,-0.074
38.532,-0.586,0.850,-0.072
38.541,-0.580,0.846,-0.074
38.551,-0.576,0.848,-0.074
38.561,-0.582,0.848,-0.076
38.571,-0.584,0.848,-0.072
38.581,-0.580,0.846,-0.074
38.591,-0.582,0.850,-0.074
38.601,-0.582,0.850,-0.070
38.611,-0.580,0.848,-0.072
38.621,-0.580,0.850,-0.072
38.631,-0.582,0.848,-0.072
38.641,-0.586,0.848,-0.076
38.651,-0.584,0.850,-0.078
38.661,-0.588,0.850,-0.074
38.671,-0.580,0.850,-0.074
38.681,-0.580,0.850,-0.070
38.690,-0.582,0.852,-0.074
38.700,-0.580,0.852,-0.078
38.710,-0.576,0.850,-0.074
38.720,-0.576,0.850,-0.070
38.730,-0.574,0.850,-0.070
38.740,-0.576,0.848,-0.072
38.750,-0.578,0.848,-0.074
38.760,-0.576,0.850,-0.072
38.770,-0.578,0.852,-0.074
38.780,-0.578,0.852,-0.072
38.790,-0.580,0.850,-0.074
38.800,-0.578,0.848,-0.074
38.810,-0.578,0.852,-0.072
38.820,-0.576,0.852,-0.074
38.830,-0.576,0.852,-0.074
38.839,-0.578,0.850,-0.072
38.849,-0.582,0.852,-0.076
38.859,-0.578,0.850,-0.074
38.869,-0.576,0.850,-0.074
38.879,-0.578,0.846,-0.076
38.889,-0.580,0.850,-0.072
38.899,-0.578,0.846,-0.076
38.909,-0.574,0.850,-0.072
38.919,-0.578,0.852,-0.072
38.929,-0.578,0.855,-0.074
38.939,-0.580,0.852,-0.074
38.949,-0.578,0.855,-0.072
38.959,-0.578,0.850,-0.074
38.969,-0.574,0.844,-0.072
38.979,-0.574,0.842,-0.072
38.989,-0.582,0.850,-0.072
38.998,-0.578,0.854,-0.068
39.008,-0.580,0.855,-0.070
39.018,-0.582,0.846,-0.072
39.028,-0.584,0.850,-0.078
39.038,-0.584,0.844,-0.076
39.048,-0.582,0.850,-0.078
39.058,-0.582,0.850,-0.072
39.068,-0.580,0.848,-0.076
39.078,-0.580,0.848,-0.072
39.088,-0.578,0.850,-0.078
39.098,-0.580,0.850,-0.072
39.108,-0.584,0.848,-0.074
39.118,-0.578,0.850,-0.076
39.128,-0.582,0.846,-0.074
39.138,-0.580,0.848,-0.076
39.147,-0.580,0.848,-0.074
39.157,-0.578,0.850,-0.074
39.167,-0.578,0.852,-0.078
39.177,-0.576,0.850,-0.074
39.187,-0.580,0.852,-0.074
39.197,-0.578,0.850,-0.074
39.207,-0.576,0.852,-0.078
39.217,-0.574,0.850,-0.074
39.227,-0.576,0.850,-0.072
39.237,-0.578,0.852,-0.076
39.247,-0.582,0.852,-0.076
39.257,-0.572,0.848,-0.076
39.267,-0.576,0.854,-0.070
39.277,-0.576,0.855,-0.068
39.287,-0.572,0.854,-0.068
39.296,-0.572,0.848,-0.072
39.306,-0.570,0.840,-0.076
39.316,-0.572,0.848,-0.072
39.326,-0.576,0.850,-0.072
39.336,-0.574,0.854,-0.076
39.346,-0.576,0.855,-0.078
39.356,-0.574,0.855,-0.072
39.366,-0.572,0.855,-0.076
39.376,-0.574,0.857,-0.076
39.386,-0.576,0.857,-0.078
39.396,-0.576,0.855,-0.074
39.406,-0.578,0.857,-0.076
39.416,-0.576,0.852,-0.076
39.426,-0.572,0.852,-0.074
39.436,-0.574,0.850,-0.074
39.445,-0.572,0.852,-0.074
39.455,-0.574,0.850,-0.072
39.465,-0.568,0.848,-0.074
39.475,-0.574,0.850,-0.078
39.485,-0.574,0.850,-0.070
39.495,-0.574,0.850,-0.072
39.505,-0.574,0.850,-0.076
39.515,-0.574,0.854,-0.074
39.525,-0.578,0.852,-0.076
39.535,-0.576,0.854,-0.074
39.545,-0.576,0.852,-0.078
39.555,-0.578,0.857,-0.074
39.565,-0.576,0.852,-0.076
39.575,-0.574,0.850,-0.076
39.585,-0.578,0.852,-0.074
39.594,-0.576,0.852,-0.074
39.604,-0.576,0.852,-0.076
39.614,-0.574,0.854,-0.072
39.624,-0.576,0.852,-0.070
39.634,-0.576,0.854,-0.072
39.644,-0.576,0.848,-0.074
39.654,-0.576,0.850,-0.074
39.664,-0.578,0.852,-0.072
39.674,-0.576,0.848,-0.076
39.684,-0.580,0.854,-0.074
39.694,-0.578,0.850,-0.074
39.704,-0.580,0.852,-0.074
39.714,-0.574,0.848,-0.074
39.724,-0.576,0.850,-0.076
39.734,-0.576,0.854,-0.072
39.744,-0.576,0.850,-0.072
39.753,-0.574,0.854,-0.076
39.763,-0.574,0.854,-0.072
39.773,-0.574,0.852,-0.072
39.783,-0.572,0.857,-0.072
39.793,-0.572,0.854,-0.074
39.803,-0.572,0.854,-0.074
39.813,-0.572,0.850,-0.074
39.823,-0.572,0.854,-0.074
39.833,-0.568,0.857,-0.070
39.843,-0.570,0.852,-0.074
39.853,-0.572,0.852,-0.072
39.863,-0.574,0.854,-0.074
39.873,-0.570,0.855,-0.074
39.883,-0.576,0.857,-0.074
39.893,-0.572,0.852,-0.078
39.902,-0.574,0.850,-0.076
39.912,-0.574,0.850,-0.076
39.922,-0.574,0.852,-0.076
39.932,-0.574,0.852,-0.076
39.942,-0.574,0.855,-0.074
39.952,-0.576,0.852,-0.078
39.962,-0.576,0.850,-0.078
39.972,-0.572,0.855,-0.074
39.982,-0.574,0.852,-0.074
39.992,-0.576,0.854,-0.078
40.002,-0.576,0.854,-0.076
40.012,-0.574,0.852,-0.072
40.022,-0.574,0.855,-0.074
40.032,-0.574,0.846,-0.070
40.042,-0.568,0.848,-0.074
40.051,-0.572,0.854,-0.072
40.061,-0.576,0.855,-0.070
40.071,-0.578,0.854,-0.070
40.081,-0.576,0.850,-0.074
40.091,-0.580,0.854,-0.078
40.101,-0.578,0.848,-0.076
40.111,-0.576,0.852,-0.076
40.121,-0.580,0.854,-0.078
40.131,-0.572,0.852,-0.076
40.141,-0.574,0.855,-0.074
40.151,-0.576,0.854,-0.076
40.161,-0.574,0.855,-0.076
40.171,-0.574,0.852,-0.076
40.181,-0.574,0.848,-0.074
40.191,-0.572,0.844,-0.076
40.200,-0.574,0.844,-0.072
40.210,-0.574,0.850,-0.076
40.220,-0.570,0.852,-0.074
40.230,-0.572,0.852,-0.076
40.240,-0.576,0.855,-0.074
40.250,-0.570,0.855,-0.072
40.260,-0.578,0.854,-0.076
40.270,-0.580,0.857,-0.074
40.280,-0.584,0.857,-0.078
40.290,-0.578,0.854,-0.078
40.300,-0.576,0.855,-0.076
40.310,-0.578,0.854,-0.076
40.320,-0.572,0.852,-0.070
40.330,-0.568,0.855,-0.076
40.340,-0.572,0.859,-0.076
40.349,-0.574,0.857,-0.074
40.359,-0.570,0.848,-0.074
40.369,-0.574,0.844,-0.078
40.379,-0.574,0.846,-0.076
40.389,-0.570,0.852,-0.078
40.399,-0.574,0.850,-0.078
40.409,-0.576,0.852,-0.078
40.419,-0.574,0.854,-0.076
40.429,-0.576,0.854,-0.080
40.439,-0.578,0.852,-0.080
40.449,-0.576,0.855,-0.074
40.459,-0.576,0.854,-0.078
40.469,-0.578,0.854,-0.078
40.479,-0.576,0.850,-0.076
40.489,-0.576,0.848,-0.080
40.499,-0.574,0.848,-0.076
40.508,-0.574,0.855,-0.078
40.518,-0.570,0.852,-0.076
40.528,-0.570,0.854,-0.076
40.538,-0.570,0.854,-0.076
40.548,-0.570,0.850,-0.076
40.558,-0.572,0.850,-0.078
40.568,-0.576,0.852,-0.078
40.578,-0.574,0.850,-0.082
40.588,-0.578,0.852,-0.080
40.598,-0.578,0.850,-0.082
40.608,-0.576,0.850,-0.076
40.618,-0.574,0.850,-0.078
40.628,-0.576,0.855,-0.080
40.638,-0.576,0.852,-0.076
40.648,-0.574,0.852,-0.080
40.657,-0.576,0.850,-0.076
40.667,-0.574,0.852,-0.078
40.677,-0.570,0.852,-0.080
40.687,-0.574,0.852,-0.074
40.697,-0.574,0.854,-0.078
40.707,-0.574,0.854,-0.078
40.717,-0.572,0.854,-0.082
40.727,-0.572,0.854,-0.074
40.737,-0.572,0.855,-0.080
40.747,-0.576,0.854,-0.078
40.757,-0.574,0.852,-0.080
40.767,-0.572,0.855,-0.078
40.777,-0.574,0.854,-0.074
40.787,-0.572,0.854,-0.078
40.797,-0.576,0.852,-0.074
40.806,-0.574,0.850,-0.076
40.816,-0.572,0.852,-0.082
40.826,-0.576,0.852,-0.076
40.836,-0.574,0.854,-0.076
40.846,-0.574,0.855,-0.076
40.856,-0.570,0.854,-0.078
40.866,-0.572,0.852,-0.078
40.876,-0.572,0.852,-0.078
40.886,-0.570,0.850,-0.076
40.896,-0.574,0.850,-0.078
40.906,-0.570,0.850,-0.078
40.916,-0.574,0.854,-0.076
40.926,-0.572,0.852,-0.080
40.936,-0.572,0.854,-0.078
40.946,-0.576,0.852,-0.080
40.955,-0.574,0.852,-0.078
40.965,-0.576,0.850,-0.076
40.975,-0.576,0.852,-0.078
40.985,-0.576,0.854,-0.080
40.995,-0.578,0.859,-0.082
41.005,-0.578,0.857,-0.076
41.015,-0.578,0.850,-0.076
41.025,-0.574,0.848,-0.080
41.035,-0.576,0.848,-0.076
41.045,-0.572,0.846,-0.078
41.055,-0.572,0.850,-0.078
41.065,-0.574,0.850,-0.078
41.075,-0.572,0.850,-0.078
41.085,-0.578,0.855,-0.076
41.095,-0.574,0.854,-0.082
41.104,-0.574,0.859,-0.078
41.114,-0.576,0.857,-0.078
41.124,-0.580,0.852,-0.082
41.134,-0.576,0.850,-0.082
41.144,-0.578,0.850,-0.080
41.154,-0.578,0.855,-0.080
41.164,-0.572,0.855,-0.078
41.174,-0.572,0.857,-0.076
41.184,-0.574,0.859,-0.078
41.194,-0.570,0.854,-0.078
41.204,-0.574,0.852,-0.074
41.214,-0.570,0.848,-0.080
41.224,-0.576,0.854,-0.078
41.234,-0.576,0.844,-0.078
41.244,-0.576,0.844,-0.078
41.254,-0.572,0.850,-0.076
41.263,-0.574,0.848,-0.078
41.273,-0.574,0.850,-0.080
41.283,-0.574,0.850,-0.076
41.293,-0.576,0.855,-0.078
41.303,-0.572,0.852,-0.082
41.313,-0.572,0.855,-0.082
41.323,-0.574,0.855,-0.078
41.333,-0.576,0.855,-0.076
41.343,-0.572,0.854,-0.080
41.353,-0.570,0.852,-0.078
41.363,-0.570,0.855,-0.076
41.373,-0.568,0.857,-0.078
41.383,-0.566,0.859,-0.078
41.393,-0.570,0.850,-0.076
41.403,-0.570,0.846,-0.082
41.412,-0.574,0.848,-0.078
41.422,-0.572,0.854,-0.078
41.432,-0.574,0.854,-0.078
41.442,-0.572,0.855,-0.078
41.452,-0.574,0.855,-0.078
41.462,-0.574,0.855,-0.080
41.472,-0.578,0.855,-0.080
41.482,-0.576,0.854,-0.078
41.492,-0.576,0.854,-0.078
41.502,-0.578,0.855,-0.080
41.512,-0.574,0.854,-0.076
41.522,-0.576,0.852,-0.078
41.532,-0.572,0.850,-0.078
41.542,-0.572,0.852,-0.078
41.552,-0.572,0.844,-0.074
41.561,-0.574,0.846,-0.074
41.571,-0.572,0.848,-0.076
41.581,-0.574,0.848,-0.076
41.591,-0.580,0.854,-0.080
41.601,-0.578,0.850,-0.078
41.611,-0.578,0.850,-0.080
41.621,-0.580,0.854,-0.078
41.631,-0.582,0.854,-0.076
41.641,-0.586,0.852,-0.080
41.651,-0.580,0.852,-0.080
41.661,-0.580,0.848,-0.078
41.671,-0.580,0.852,-0.078
41.681,-0.580,0.850,-0.078
41.691,-0.580,0.854,-0.080
41.701,-0.580,0.850,-0.084
41.710,-0.580,0.854,-0.078
41.720,-0.578,0.850,-0.076
41.730,-0.576,0.848,-0.078
41.740,-0.576,0.846,-0.080
41.750,-0.578,0.848,-0.076
41.760,-0.576,0.850,-0.076
41.770,-0.580,0.854,-0.080
41.780,-0.576,0.852,-0.080
41.790,-0.574,0.850,-0.078
41.800,-0.578,0.852,-0.078
41.810,-0.578,0.854,-0.080
41.820,-0.578,0.850,-0.078
41.830,-0.574,0.852,-0.078
41.840,-0.580,0.857,-0.078
41.850,-0.574,0.850,-0.076
41.860,-0.578,0.848,-0.080
41.869,-0.574,0.848,-0.080
41.879,-0.574,0.846,-0.076
41.889,-0.576,0.848,-0.080
41.899,-0.576,0.850,-0.076
41.909,-0.570,0.848,-0.076
41.919,-0.570,0.850,-0.076
41.929,-0.576,0.854,-0.074
41.939,-0.576,0.854,-0.078
41.949,-0.574,0.850,-0.078
41.959,-0.574,0.848,-0.078
41.969,-0.576,0.854,-0.080
41.979,-0.578,0.854,-0.078
41.989,-0.578,0.855,-0.082
41.999,-0.576,0.854,-0.076
42.009,-0.578,0.854,-0.078
42.018,-0.572,0.855,-0.076
42.028,-0.574,0.854,-0.078
42.038,-0.576,0.852,-0.074
42.048,-0.576,0.854,-0.074
42.058,-0.572,0.852,-0.072
42.068,-0.572,0.848,-0.074
42.078,-0.574,0.848,-0.076
42.088,-0.574,0.846,-0.080
42.098,-0.576,0.846,-0.078
42.108,-0.576,0.850,-0.082
42.118,-0.576,0.850,-0.076
42.128,-0.572,0.854,-0.076
42.138,-0.574,0.855,-0.074
42.148,-0.576,0.852,-0.074
42.158,-0.576,0.855,-0.078
42.167,-0.574,0.855,-0.076
42.177,-0.576,0.852,-0.080
42.187,-0.576,0.850,-0.078
42.197,-0.576,0.852,-0.082
42.207,-0.576,0.850,-0.078
42.217,-0.572,0.848,-0.076
42.227,-0.572,0.859,-0.074
42.237,-0.572,0.855,-0.076
42.247,-0.568,0.855,-0.072
42.257,-0.570,0.846,-0.078
42.267,-0.572,0.846,-0.078
42.277,-0.574,0.844,-0.080
42.287,-0.572,0.850,-0.078
42.297,-0.572,0.854,-0.080
42.307,-0.572,0.857,-0.078
42.316,-0.572,0.855,-0.078
42.326,-0.572,0.857,-0.080
42.336,-0.574,0.857,-0.080
42.346,-0.568,0.855,-0.078
42.356,-0.572,0.854,-0.080
42.366,-0.572,0.855,-0.080
42.376,-0.576,0.852,-0.078
42.386,-0.572,0.852,-0.076
42.396,-0.570,0.848,-0.078
42.406,-0.572,0.848,-0.076
42.416,-0.572,0.852,-0.076
42.426,-0.570,0.852,-0.074
42.436,-0.576,0.854,-0.076
42.446,-0.572,0.848,-0.074
42.456,-0.574,0.850,-0.078
42.465,-0.574,0.850,-0.078
42.475,-0.576,0.852,-0.080
42.485,-0.572,0.850,-0.080
42.495,-0.576,0.850,-0.082
42.505,-0.576,0.854,-0.078
42.515,-0.576,0.852,-0.080
42.525,-0.572,0.854,-0.080
42.535,-0.574,0.854,-0.078
42.545,-0.578,0.854,-0.078
42.555,-0.578,0.854,-0.076
42.565,-0.578,0.852,-0.076
42.575,-0.578,0.852,-0.076
42.585,-0.576,0.852,-0.080
42.595,-0.578,0.852,-0.076
42.605,-0.576,0.852,-0.076
42.615,-0.576,0.848,-0.078
42.624,-0.576,0.850,-0.078
42.634,-0.580,0.850,-0.074
42.644,-0.578,0.850,-0.080
42.654,-0.578,0.848,-0.080
42.664,-0.580,0.852,-0.080
42.674,-0.580,0.855,-0.078
42.684,-0.580,0.855,-0.080
42.694,-0.578,0.855,-0.078
42.704,-0.576,0.854,-0.076
42.714,-0.572,0.846,-0.080
42.724,-0.574,0.850,-0.080
42.734,-0.574,0.850,-0.076
42.744,-0.576,0.850,-0.074
42.754,-0.572,0.852,-0.076
42.764,-0.572,0.852,-0.076
42.773,-0.574,0.846,-0.078
42.783,-0.574,0.846,-0.076
42.793,-0.574,0.848,-0.076
42.803,-0.576,0.850,-0.070
42.813,-0.578,0.852,-0.074
42.823,-0.578,0.854,-0.078
42.833,-0.574,0.850,-0.078
42.843,-0.578,0.846,-0.076
42.853,-0.580,0.848,-0.076
42.863,-0.580,0.852,-0.080
42.873,-0.580,0.852,-0.076
42.883,-0.578,0.855,-0.076
42.893,-0.582,0.854,-0.074
42.903,-0.580,0.854,-0.072
42.913,-0.580,0.854,-0.078
42.922,-0.580,0.846,-0.076
42.932,-0.582,0.844,-0.080
42.942,-0.580,0.842,-0.080
42.952,-0.580,0.846,-0.078
42.962,-0.580,0.846,-0.080
42.972,-0.576,0.854,-0.076
42.982,-0.576,0.854,-0.078
42.992,-0.578,0.852,-0.078
43.002,-0.576,0.854,-0.078
43.012,-0.576,0.848,-0.080
43.022,-0.576,0.852,-0.078
43.032,-0.580,0.848,-0.074
43.042,-0.580,0.852,-0.078
43.052,-0.578,0.852,-0.076
43.062,-0.576,0.852,-0.084
43.071,-0.576,0.848,-0.074
43.081,-0.578,0.854,-0.074
43.091,-0.576,0.852,-0.070
43.101,-0.576,0.846,-0.076
43.111,-0.576,0.842,-0.074
43.121,-0.574,0.846,-0.080
43.131,-0.574,0.846,-0.078
43.141,-0.576,0.850,-0.078
43.151,-0.580,0.854,-0.080
43.161,-0.578,0.854,-0.078
43.171,-0.576,0.857,-0.080
43.181,-0.578,0.855,-0.082
43.191,-0.578,0.855,-0.084
43.201,-0.580,0.852,-0.078
43.211,-0.580,0.852,-0.084
43.220,-0.578,0.850,-0.078
43.230,-0.576,0.850,-0.080
43.240,-0.580,0.850,-0.078
43.250,-0.576,0.846,-0.078
43.260,-0.576,0.850,-0.078
43.270,-0.580,0.850,-0.076
43.280,-0.576,0.848,-0.076
43.290,-0.576,0.848,-0.080
43.300,-0.578,0.848,-0.080
43.310,-0.580,0.850,-0.076
43.320,-0.578,0.848,-0.078
43.330,-0.580,0.852,-0.078
43.340,-0.580,0.850,-0.076
43.350,-0.582,0.846,-0.080
43.360,-0.584,0.844,-0.076
43.370,-0.578,0.850,-0.078
43.379,-0.578,0.848,-0.076
43.389,-0.580,0.852,-0.076
43.399,-0.574,0.848,-0.076
43.409,-0.580,0.852,-0.078
43.419,-0.578,0.846,-0.072
43.429,-0.578,0.846,-0.078
43.439,-0.578,0.850,-0.076
43.449,-0.580,0.848,-0.076
43.459,-0.578,0.846,-0.078
43.469,-0.580,0.846,-0.076
43.479,-0.580,0.844,-0.078
43.489,-0.580,0.846,-0.076
43.499,-0.584,0.852,-0.076
43.509,-0.582,0.848,-0.078
43.519,-0.582,0.850,-0.076
43.528,-0.580,0.846,-0.074
43.538,-0.580,0.848,-0.076
43.548,-0.582,0.850,-0.076
43.558,-0.582,0.848,-0.074
43.568,-0.580,0.848,-0.076
43.578,-0.578,0.852,-0.072
43.588,-0.576,0.854,-0.076
43.598,-0.576,0.850,-0.074
43.608,-0.576,0.846,-0.076
43.618,-0.578,0.852,-0.076
43.628,-0.574,0.848,-0.074
43.638,-0.576,0.852,-0.074
43.648,-0.578,0.848,-0.074
43.658,-0.580,0.854,-0.078
43.668,-0.578,0.848,-0.074
43.677,-0.580,0.848,-0.074
43.687,-0.580,0.852,-0.074
43.697,-0.580,0.854,-0.074
43.707,-0.578,0.848,-0.078
43.717,-0.580,0.850,-0.074
43.727,-0.580,0.850,-0.076
43.737,-0.576,0.848,-0.078
43.747,-0.576,0.850,-0.078
43.757,-0.580,0.850,-0.070
43.767,-0.578,0.852,-0.070
43.777,-0.580,0.848,-0.070
43.787,-0.574,0.850,-0.074
43.797,-0.576,0.846,-0.070
43.807,-0.580,0.854,-0.072
43.817,-0.580,0.852,-0.074
43.826,-0.580,0.848,-0.072
43.836,-0.580,0.846,-0.072
43.846,-0.582,0.848,-0.074
43.856,-0.584,0.848,-0.078
43.866,-0.586,0.846,-0.074
43.876,-0.584,0.848,-0.072
43.886,-0.584,0.850,-0.076
43.896,-0.580,0.850,-0.072
43.906,-0.584,0.846,-0.072
43.916,-0.582,0.846,-0.072
43.926,-0.584,0.846,-0.074
43.936,-0.582,0.844,-0.078
43.946,-0.580,0.848,-0.074
43.956,-0.580,0.846,-0.074
43.966,-0.582,0.848,-0.078
43.975,-0.582,0.852,-0.076
43.985,-0.580,0.850,-0.076
43.995,-0.578,0.850,-0.076
44.005,-0.580,0.850,-0.076
44.015,-0.580,0.850,-0.074
44.025,-0.580,0.850,-0.074
44.035,-0.576,0.850,-0.078
44.045,-0.580,0.850,-0.076
44.055,-0.584,0.848,-0.078
44.065,-0.580,0.850,-0.078
44.075,-0.580,0.844,-0.074
44.085,-0.578,0.848,-0.076
44.095,-0.578,0.854,-0.074
44.105,-0.576,0.850,-0.074
44.115,-0.576,0.846,-0.072
44.125,-0.578,0.840,-0.078
44.134,-0.578,0.844,-0.076
44.144,-0.582,0.850,-0.078
44.154,-0.582,0.852,-0.076
44.164,-0.580,0.852,-0.076
44.174,-0.578,0.854,-0.078
44.184,-0.584,0.855,-0.076
44.194,-0.580,0.855,-0.074
44.204,-0.576,0.852,-0.076
44.214,-0.582,0.850,-0.074
44.224,-0.578,0.850,-0.076
44.234,-0.582,0.850,-0.076
44.244,-0.578,0.850,-0.074
44.254,-0.578,0.848,-0.074
44.264,-0.578,0.848,-0.074
44.274,-0.580,0.844,-0.074
44.283,-0.576,0.842,-0.074
44.293,-0.582,0.846,-0.078
44.303,-0.580,0.848,-0.076
44.313,-0.582,0.852,-0.076
44.323,-0.582,0.848,-0.076
44.333,-0.582,0.850,-0.078
44.343,-0.584,0.852,-0.074
44.353,-0.584,0.848,-0.076
44.363,-0.586,0.850,-0.074
44.373,-0.584,0.850,-0.078
44.383,-0.580,0.850,-0.076
44.393,-0.584,0.848,-0.078
44.403,-0.582,0.848,-0.076
44.413,-0.582,0.852,-0.076
44.423,-0.582,0.850,-0.074
44.432,-0.580,0.850,-0.076
44.442,-0.582,0.850,-0.070
44.452,-0.580,0.848,-0.072
44.462,-0.578,0.850,-0.076
44.472,-0.584,0.848,-0.076
44.482,-0.580,0.848,-0.072
44.492,-0.580,0.846,-0.074
44.502,-0.580,0.848,-0.076
44.512,-0.580,0.850,-0.076
44.522,-0.578,0.848,-0.074
44.532,-0.582,0.852,-0.074
44.542,-0.578,0.850,-0.074
44.552,-0.580,0.850,-0.076
44.562,-0.580,0.848,-0.072
44.572,-0.576,0.850,-0.076
44.581,-0.578,0.850,-0.072
44.591,-0.578,0.850,-0.072
44.601,-0.576,0.850,-0.076
44.611,-0.576,0.852,-0.074
44.621,-0.578,0.848,-0.074
44.631,-0.576,0.852,-0.072
44.641,-0.574,0.854,-0.074
44.651,-0.576,0.854,-0.070
44.661,-0.570,0.852,-0.078
44.671,-0.582,0.846,-0.070
44.681,-0.578,0.850,-0.074
44.691,-0.574,0.852,-0.072
44.701,-0.586,0.844,-0.070
44.711,-0.584,0.852,-0.078
44.721,-0.578,0.850,-0.074
44.730,-0.578,0.850,-0.078
44.740,-0.582,0.850,-0.074
44.750,-0.578,0.852,-0.076
44.760,-0.582,0.850,-0.076
44.770,-0.580,0.852,-0.076
44.780,-0.576,0.852,-0.072
44.790,-0.582,0.850,-0.074
44.800,-0.580,0.850,-0.074
44.810,-0.580,0.854,-0.074
44.820,-0.578,0.852,-0.074
44.830,-0.578,0.850,-0.074
44.840,-0.578,0.850,-0.074
44.850,-0.578,0.852,-0.074
44.860,-0.580,0.846,-0.074
44.870,-0.576,0.854,-0.074
44.880,-0.580,0.848,-0.072
44.889,-0.576,0.850,-0.076
44.899,-0.578,0.852,-0.074
44.909,-0.580,0.848,-0.076
44.919,-0.576,0.850,-0.074
44.929,-0.578,0.850,-0.074
44.939,-0.578,0.850,-0.076
44.949,-0.574,0.848,-0.074
44.959,-0.576,0.852,-0.074
44.969,-0.578,0.848,-0.070
44.979,-0.576,0.854,-0.074
44.989,-0.578,0.852,-0.074
44.999,-0.574,0.850,-0.074
45.009,-0.576,0.852,-0.074
45.019,-0.576,0.854,-0.070
45.029,-0.576,0.850,-0.068
45.038,-0.572,0.846,-0.074
45.048,-0.572,0.850,-0.072
45.058,-0.576,0.855,-0.070
45.068,-0.574,0.857,-0.068
45.078,-0.576,0.855,-0.072
45.088,-0.578,0.850,-0.074
45.098,-0.580,0.850,-0.072
45.108,-0.580,0.850,-0.078
45.118,-0.580,0.852,-0.074
45.128,-0.578,0.854,-0.074
45.138,-0.574,0.857,-0.072
45.148,-0.576,0.854,-0.068
45.158,-0.572,0.855,-0.074
45.168,-0.576,0.852,-0.074
45.178,-0.574,0.854,-0.074
45.187,-0.574,0.850,-0.072
45.197,-0.574,0.848,-0.076
45.207,-0.572,0.848,-0.074
45.217,-0.572,0.854,-0.074
45.227,-0.574,0.848,-0.074
45.237,-0.570,0.852,-0.072
45.247,-0.574,0.854,-0.072
45.257,-0.576,0.848,-0.072
45.267,-0.574,0.850,-0.076
45.277,-0.578,0.854,-0.072
45.287,-0.580,0.852,-0.074
45.297,-0.578,0.852,-0.076
45.307,-0.578,0.854,-0.072
45.317,-0.582,0.855,-0.072
45.327,-0.580,0.850,-0.072
45.336,-0.576,0.850,-0.072
45.346,-0.574,0.855,-0.070
45.356,-0.576,0.854,-0.068
45.366,-0.576,0.848,-0.072
45.376,-0.576,0.844,-0.076
45.386,-0.576,0.848,-0.076
45.396,-0.576,0.848,-0.070
45.406,-0.576,0.850,-0.076
45.416,-0.574,0.852,-0.074
45.426,-0.574,0.852,-0.068
45.436,-0.574,0.855,-0.076
45.446,-0.578,0.861,-0.076
45.456,-0.576,0.859,-0.076
45.466,-0.580,0.855,-0.072
45.476,-0.578,0.855,-0.074
45.486,-0.578,0.854,-0.074
45.495,-0.574,0.854,-0.070
45.505,-0.572,0.848,-0.074
45.515,-0.574,0.850,-0.070
45.525,-0.572,0.848,-0.074
45.535,-0.576,0.846,-0.074
45.545,-0.574,0.852,-0.070
45.555,-0.574,0.850,-0.074
45.565,-0.574,0.848,-0.074
45.575,-0.580,0.852,-0.076
45.585,-0.576,0.854,-0.074
45.595,-0.578,0.854,-0.078
45.605,-0.580,0.854,-0.078
45.615,-0.578,0.852,-0.076
45.625,-0.580,0.854,-0.074
45.635,-0.580,0.852,-0.076
45.644,-0.576,0.852,-0.076
45.654,-0.578,0.855,-0.074
45.664,-0.580,0.855,-0.074
45.674,-0.574,0.854,-0.070
45.684,-0.576,0.850,-0.072
45.694,-0.570,0.854,-0.074
45.704,-0.570,0.854,-0.074
45.714,-0.574,0.852,-0.072
45.724,-0.576,0.850,-0.070
45.734,-0.574,0.852,-0.074
45.744,-0.574,0.850,-0.072
45.754,-0.576,0.850,-0.072
45.764,-0.580,0.852,-0.074
45.774,-0.576,0.854,-0.074
45.784,-0.578,0.852,-0.074
45.793,-0.578,0.850,-0.074
45.803,-0.576,0.850,-0.074
45.813,-0.574,0.854,-0.072
45.823,-0.574,0.854,-0.070
45.833,-0.572,0.854,-0.074
45.843,-0.570,0.852,-0.074
45.853,-0.576,0.852,-0.074
45.863,-0.572,0.850,-0.070
45.873,-0.574,0.848,-0.072
45.883,-0.574,0.852,-0.074
45.893,-0.578,0.852,-0.072
45.903,-0.574,0.852,-0.074
45.913,-0.578,0.852,-0.072
45.923,-0.574,0.850,-0.072
45.933,-0.576,0.852,-0.076
45.942,-0.576,0.854,-0.074
45.952,-0.576,0.852,-0.074
45.962,-0.578,0.852,-0.076
45.972,-0.578,0.852,-0.074
45.982,-0.578,0.852,-0.074
45.992,-0.578,0.850,-0.072
46.002,-0.578,0.852,-0.072
46.012,-0.578,0.850,-0.074
46.022,-0.576,0.850,-0.072
46.032,-0.574,0.850,-0.076
46.042,-0.574,0.855,-0.074
46.052,-0.574,0.850,-0.070
46.062,-0.576,0.854,-0.072
46.072,-0.578,0.855,-0.072
46.082,-0.578,0.854,-0.068
46.091,-0.582,0.852,-0.074
46.101,-0.578,0.850,-0.074
46.111,-0.578,0.854,-0.072
46.121,-0.578,0.854,-0.072
46.131,-0.580,0.850,-0.072
46.141,-0.578,0.850,-0.072
46.151,-0.574,0.850,-0.072
46.161,-0.576,0.852,-0.070
46.171,-0.570,0.852,-0.074
46.181,-0.576,0.850,-0.072
46.191,-0.572,0.852,-0.072
46.201,-0.576,0.852,-0.074
46.211,-0.580,0.854,-0.074
46.221,-0.576,0.852,-0.074
46.231,-0.576,0.850,-0.074
46.241,-0.578,0.852,-0.076
46.250,-0.576,0.852,-0.074
46.260,-0.576,0.852,-0.074
46.270,-0.574,0.854,-0.074
46.280,-0.576,0.854,-0.076
46.290,-0.574,0.850,-0.072
46.300,-0.574,0.854,-0.072
46.310,-0.576,0.855,-0.074
46.320,-0.574,0.848,-0.074
46.330,-0.574,0.844,-0.068
46.340,-0.574,0.850,-0.072
46.350,-0.578,0.852,-0.072
46.360,-0.574,0.855,-0.068
46.370,-0.580,0.852,-0.070
46.380,-0.578,0.848,-0.074
46.390,-0.580,0.846,-0.074
46.399,-0.582,0.852,-0.076
46.409,-0.580,0.850,-0.072
46.419,-0.580,0.854,-0.068
46.429,-0.578,0.857,-0.070
46.439,-0.576,0.855,-0.070
46.449,-0.574,0.850,-0.072
46.459,-0.576,0.852,-0.074
46.469,-0.578,0.850,-0.074
46.479,-0.578,0.848,-0.076
46.489,-0.576,0.848,-0.074
46.499,-0.576,0.850,-0.072
46.509,-0.576,0.852,-0.070
46.519,-0.574,0.852,-0.072
46.529,-0.576,0.854,-0.068
46.539,-0.574,0.850,-0.072
46.548,-0.578,0.852,-0.072
46.558,-0.576,0.852,-0.072
46.568,-0.576,0.850,-0.074
46.578,-0.578,0.854,-0.072
46.588,-0.578,0.852,-0.072
46.598,-0.580,0.857,-0.074
46.608,-0.578,0.850,-0.070
46.618,-0.572,0.846,-0.070
46.628,-0.572,0.850,-0.070
46.638,-0.574,0.854,-0.070
46.648,-0.576,0.855,-0.068
46.658,-0.578,0.848,-0.072
46.668,-0.578,0.848,-0.070
46.678,-0.580,0.846,-0.072
46.688,-0.580,0.848,-0.074
46.697,-0.580,0.852,-0.074
46.707,-0.580,0.852,-0.074
46.717,-0.580,0.857,-0.076
46.727,-0.578,0.854,-0.074
46.737,-0.580,0.854,-0.076
46.747,-0.578,0.855,-0.074
46.757,-0.580,0.854,-0.076
46.767,-0.580,0.855,-0.074
46.777,-0.580,0.852,-0.072
46.787,-0.576,0.850,-0.074
46.797,-0.576,0.850,-0.070
46.807,-0.572,0.850,-0.070
46.817,-0.576,0.848,-0.072
46.827,-0.572,0.848,-0.070
46.837,-0.572,0.846,-0.074
46.846,-0.570,0.846,-0.072
46.856,-0.572,0.848,-0.070
46.866,-0.578,0.854,-0.074
46.876,-0.578,0.850,-0.074
46.886,-0.574,0.850,-0.072
46.896,-0.578,0.850,-0.078
46.906,-0.578,0.850,-0.072
46.916,-0.580,0.854,-0.074
46.926,-0.578,0.850,-0.074
46.936,-0.576,0.848,-0.074
46.946,-0.576,0.850,-0.072
46.956,-0.580,0.850,-0.074
46.966,-0.578,0.852,-0.072
46.976,-0.576,0.852,-0.076
46.986,-0.578,0.852,-0.074
46.996,-0.576,0.850,-0.076
47.005,-0.578,0.852,-0.076
47.015,-0.580,0.854,-0.074
47.025,-0.580,0.854,-0.076
47.035,-0.574,0.852,-0.076
47.045,-0.576,0.854,-0.074
47.055,-0.576,0.848,-0.074
47.065,-0.576,0.850,-0.078
47.075,-0.574,0.852,-0.076
47.085,-0.576,0.855,-0.076
47.095,-0.576,0.854,-0.076
47.105,-0.572,0.852,-0.076
47.115,-0.576,0.854,-0.078
47.125,-0.572,0.854,-0.072
47.135,-0.572,0.852,-0.072
47.145,-0.574,0.855,-0.074
47.154,-0.572,0.854,-0.074
47.164,-0.572,0.852,-0.072
47.174,-0.576,0.850,-0.074
47.184,-0.576,0.850,-0.076
47.194,-0.576,0.854,-0.074
47.204,-0.576,0.850,-0.074
47.214,-0.572,0.850,-0.072
47.224,-0.570,0.850,-0.080
47.234,-0.574,0.846,-0.076
47.244,-0.578,0.850,-0.076
47.254,-0.578,0.850,-0.076
47.264,-0.578,0.850,-0.074
47.274,-0.580,0.854,-0.076
47.284,-0.582,0.852,-0.078
47.294,-0.582,0.850,-0.078
47.303,-0.580,0.852,-0.074
47.313,-0.582,0.850,-0.076
47.323,-0.578,0.850,-0.078
47.333,-0.580,0.848,-0.074
47.343,-0.580,0.848,-0.076
47.353,-0.580,0.854,-0.078
47.363,-0.578,0.848,-0.076
47.373,-0.578,0.848,-0.076
47.383,-0.578,0.850,-0.076
47.393,-0.580,0.855,-0.074
47.403,-0.576,0.854,-0.074
47.413,-0.578,0.852,-0.076
47.423,-0.582,0.854,-0.074
47.433,-0.580,0.854,-0.078
47.443,-0.578,0.852,-0.072
47.452,-0.576,0.850,-0.076
47.462,-0.574,0.848,-0.076
47.472,-0.574,0.850,-0.074
47.482,-0.576,0.850,-0.076
47.492,-0.576,0.854,-0.076
47.502,-0.576,0.848,-0.074
47.512,-0.576,0.846,-0.074
47.522,-0.578,0.844,-0.074
47.532,-0.578,0.844,-0.072
47.542,-0.576,0.844,-0.074
47.552,-0.582,0.850,-0.076
47.562,-0.582,0.848,-0.072
47.572,-0.582,0.852,-0.078
47.582,-0.588,0.850,-0.080
47.592,-0.586,0.846,-0.080
47.602,-0.588,0.848,-0.080
47.611,-0.588,0.850,-0.076
47.621,-0.586,0.850,-0.074
47.631,-0.584,0.852,-0.074
47.641,-0.580,0.850,-0.070
47.651,-0.582,0.848,-0.072
47.661,-0.576,0.846,-0.076
47.671,-0.580,0.844,-0.074
47.681,-0.580,0.844,-0.076
47.691,-0.582,0.844,-0.078
47.701,-0.582,0.844,-0.076
47.711,-0.584,0.842,-0.076
47.721,-0.578,0.850,-0.076
47.731,-0.578,0.846,-0.074
47.741,-0.580,0.854,-0.076
47.751,-0.578,0.852,-0.078
47.760,-0.578,0.848,-0.076
47.770,-0.580,0.846,-0.078
47.780,-0.578,0.848,-0.078
47.790,-0.578,0.850,-0.076
47.800,-0.582,0.854,-0.078
47.810,-0.582,0.848,-0.076
47.820,-0.580,0.850,-0.076
47.830,-0.578,0.855,-0.072
47.840,-0.576,0.852,-0.076
47.850,-0.574,0.850,-0.072
47.860,-0.576,0.844,-0.076
47.870,-0.576,0.842,-0.076
47.880,-0.580,0.846,-0.078
47.890,-0.582,0.848,-0.076
47.900,-0.584,0.852,-0.076
47.909,-0.582,0.854,-0.074
47.919,-0.586,0.854,-0.074
47.929,-0.582,0.854,-0.076
47.939,-0.580,0.852,-0.078
47.949,-0.584,0.854,-0.076
47.959,-0.582,0.850,-0.072
47.969,-0.582,0.850,-0.076
47.979,-0.578,0.848,-0.072
47.989,-0.580,0.844,-0.074
47.999,-0.578,0.848,-0.074
48.009,-0.574,0.846,-0.074
48.019,-0.578,0.846,-0.070
48.029,-0.578,0.848,-0.070
48.039,-0.580,0.848,-0.070
48.049,-0.576,0.848,-0.074
48.058,-0.578,0.850,-0.072
48.068,-0.582,0.850,-0.072
48.078,-0.582,0.850,-0.074
48.088,-0.584,0.848,-0.076
48.098,-0.584,0.848,-0.076
48.108,-0.584,0.850,-0.074
48.118,-0.584,0.848,-0.074
48.128,-0.580,0.848,-0.072
48.138,-0.580,0.850,-0.074
48.148,-0.580,0.852,-0.070
48.158,-0.580,0.852,-0.072
48.168,-0.580,0.848,-0.070
48.178,-0.578,0.852,-0.074
48.188,-0.580,0.850,-0.074
48.198,-0.578,0.852,-0.076
48.207,-0.580,0.854,-0.072
48.217,-0.576,0.852,-0.074
48.227,-0.574,0.850,-0.074
48.237,-0.576,0.852,-0.070
48.247,-0.578,0.855,-0.072
48.257,-0.578,0.855,-0.076
48.267,-0.576,0.855,-0.072
48.277,-0.580,0.854,-0.074
48.287,-0.582,0.854,-0.072
48.297,-0.576,0.848,-0.074
48.307,-0.574,0.850,-0.072
48.317,-0.574,0.844,-0.070
48.327,-0.578,0.850,-0.074
48.337,-0.574,0.848,-0.074
48.347,-0.578,0.852,-0.072
48.357,-0.576,0.852,-0.072
48.366,-0.576,0.852,-0.072
48.376,-0.582,0.852,-0.070
48.386,-0.580,0.848,-0.074
48.396,-0.580,0.852,-0.076
48.406,-0.580,0.848,-0.074
48.416,-0.580,0.850,-0.072
48.426,-0.578,0.854,-0.074
48.436,-0.576,0.850,-0.072
48.446,-0.576,0.854,-0.074
48.456,-0.576,0.846,-0.074
48.466,-0.578,0.850,-0.070
48.476,-0.578,0.846,-0.070
48.486,-0.574,0.846,-0.070
48.496,-0.576,0.854,-0.068
48.506,-0.574,0.848,-0.070
48.515,-0.572,0.848,-0.070
48.525,-0.574,0.846,-0.074
48.535,-0.576,0.848,-0.072
48.545,-0.576,0.848,-0.076
48.555,-0.576,0.850,-0.076
48.565,-0.580,0.852,-0.078
48.575,-0.578,0.854,-0.080
48.585,-0.580,0.855,-0.074
48.595,-0.584,0.852,-0.074
48.605,-0.580,0.852,-0.078
48.615,-0.580,0.855,-0.072
48.625,-0.582,0.848,-0.072
48.635,-0.584,0.848,-0.074
48.645,-0.582,0.848,-0.076
48.655,-0.584,0.848,-0.076
48.664,-0.584,0.850,-0.076
48.674,-0.584,0.846,-0.074
48.684,-0.584,0.846,-0.076
48.694,-0.582,0.850,-0.078
48.704,-0.580,0.850,-0.076
48.714,-0.582,0.848,-0.080
48.724,-0.580,0.850,-0.078
48.734,-0.584,0.848,-0.078
48.744,-0.576,0.846,-0.076
48.754,-0.578,0.848,-0.076
48.764,-0.582,0.852,-0.076
48.774,-0.576,0.848,-0.080
48.784,-0.578,0.842,-0.078
48.794,-0.576,0.850,-0.072
48.804,-0.580,0.854,-0.074
48.813,-0.576,0.859,-0.074
48.823,-0.574,0.850,-0.074
48.833,-0.582,0.848,-0.080
48.843,-0.582,0.844,-0.078
48.853,-0.582,0.844,-0.076
48.863,-0.580,0.850,-0.078
48.873,-0.578,0.852,-0.076
48.883,-0.580,0.854,-0.078
48.893,-0.582,0.854,-0.076
48.903,-0.580,0.852,-0.076
48.913,-0.582,0.855,-0.078
48.923,-0.578,0.855,-0.076
48.933,-0.582,0.854,-0.078
48.943,-0.580,0.850,-0.074
48.953,-0.578,0.848,-0.078
48.962,-0.576,0.846,-0.078
48.972,-0.578,0.848,-0.082
