df_hash,22ZHK4.S8EAUS
device,HZ2X61
project_hash,29R7
project_name,istanbul_aydin_university
person_hash,29R7.JA8X
person_label,V47(2)
date_time_start,2025-10-30_17-18-53.474000_+03
date_time_start_unix,1761830333.474
date_time_end,2025-10-30_17-27-40.229000_+03
length_difference_noticed,no

time,acc_x,acc_y,acc_z
4.916,-0.572,-0.812,-0.240
4.926,-0.570,-0.809,-0.236
4.936,-0.568,-0.807,-0.234
4.946,-0.568,-0.805,-0.234
4.956,-0.568,-0.793,-0.229
4.966,-0.562,-0.781,-0.221
4.976,-0.562,-0.779,-0.225
4.985,-0.566,-0.775,-0.234
4.995,-0.576,-0.785,-0.240
5.005,-0.582,-0.783,-0.242
5.015,-0.588,-0.773,-0.236
5.025,-0.594,-0.771,-0.234
5.035,-0.604,-0.764,-0.234
5.045,-0.611,-0.758,-0.230
5.055,-0.613,-0.754,-0.227
5.065,-0.621,-0.756,-0.236
5.075,-0.633,-0.760,-0.244
5.085,-0.645,-0.760,-0.248
5.095,-0.650,-0.754,-0.248
5.105,-0.662,-0.750,-0.252
5.115,-0.674,-0.744,-0.256
5.125,-0.680,-0.738,-0.246
5.135,-0.684,-0.727,-0.248
5.145,-0.686,-0.721,-0.248
5.154,-0.686,-0.713,-0.246
5.164,-0.686,-0.705,-0.242
5.174,-0.699,-0.701,-0.248
5.184,-0.717,-0.697,-0.252
5.194,-0.742,-0.682,-0.252
5.204,-0.742,-0.682,-0.252
5.214,-0.748,-0.674,-0.242
5.224,-0.752,-0.668,-0.254
5.234,-0.766,-0.666,-0.252
5.244,-0.764,-0.666,-0.252
5.254,-0.752,-0.654,-0.258
5.264,-0.734,-0.646,-0.250
5.274,-0.723,-0.631,-0.238
5.284,-0.732,-0.625,-0.244
5.294,-0.732,-0.615,-0.244
5.304,-0.734,-0.588,-0.227
5.314,-0.752,-0.588,-0.230
5.323,-0.777,-0.584,-0.244
5.333,-0.793,-0.574,-0.244
5.343,-0.816,-0.572,-0.248
5.353,-0.826,-0.561,-0.256
5.363,-0.832,-0.551,-0.252
5.373,-0.842,-0.543,-0.262
5.383,-0.842,-0.537,-0.250
5.393,-0.840,-0.523,-0.250
5.403,-0.840,-0.514,-0.246
5.413,-0.850,-0.510,-0.248
5.423,-0.861,-0.504,-0.252
5.433,-0.867,-0.498,-0.250
5.443,-0.873,-0.502,-0.252
5.453,-0.879,-0.504,-0.260
5.463,-0.889,-0.504,-0.260
5.473,-0.891,-0.504,-0.254
5.483,-0.887,-0.498,-0.256
5.492,-0.887,-0.490,-0.252
5.502,-0.889,-0.488,-0.242
5.512,-0.885,-0.484,-0.246
5.522,-0.885,-0.484,-0.242
5.532,-0.885,-0.479,-0.244
5.542,-0.887,-0.477,-0.238
5.552,-0.895,-0.477,-0.229
5.562,-0.891,-0.475,-0.227
5.572,-0.893,-0.473,-0.229
5.582,-0.898,-0.479,-0.230
5.592,-0.900,-0.480,-0.230
5.602,-0.902,-0.479,-0.238
5.612,-0.904,-0.488,-0.242
5.622,-0.904,-0.484,-0.244
5.632,-0.902,-0.482,-0.236
5.642,-0.896,-0.480,-0.236
5.651,-0.889,-0.473,-0.236
5.661,-0.891,-0.471,-0.234
5.671,-0.898,-0.477,-0.236
5.681,-0.896,-0.477,-0.232
5.691,-0.896,-0.473,-0.232
5.701,-0.896,-0.475,-0.234
5.711,-0.895,-0.477,-0.238
5.721,-0.904,-0.475,-0.240
5.731,-0.904,-0.469,-0.240
5.741,-0.902,-0.465,-0.236
5.751,-0.896,-0.463,-0.236
5.761,-0.902,-0.465,-0.242
5.771,-0.900,-0.461,-0.238
5.781,-0.896,-0.459,-0.234
5.791,-0.895,-0.457,-0.234
5.801,-0.898,-0.455,-0.236
5.811,-0.900,-0.459,-0.236
5.820,-0.896,-0.459,-0.236
5.830,-0.896,-0.459,-0.234
5.840,-0.895,-0.459,-0.238
5.850,-0.895,-0.465,-0.238
5.860,-0.896,-0.467,-0.244
5.870,-0.893,-0.467,-0.248
5.880,-0.891,-0.471,-0.250
5.890,-0.891,-0.471,-0.248
5.900,-0.895,-0.469,-0.250
5.910,-0.889,-0.467,-0.246
5.920,-0.889,-0.467,-0.248
5.930,-0.881,-0.461,-0.248
5.940,-0.877,-0.459,-0.246
5.950,-0.875,-0.453,-0.244
5.960,-0.863,-0.449,-0.240
5.970,-0.855,-0.449,-0.240
5.980,-0.850,-0.455,-0.242
5.989,-0.846,-0.453,-0.242
5.999,-0.848,-0.461,-0.248
6.009,-0.867,-0.465,-0.252
6.019,-0.881,-0.471,-0.254
6.029,-0.885,-0.465,-0.258
6.039,-0.885,-0.461,-0.260
6.049,-0.895,-0.455,-0.260
6.059,-0.896,-0.441,-0.250
6.069,-0.895,-0.430,-0.250
6.079,-0.898,-0.432,-0.248
6.089,-0.904,-0.430,-0.254
6.099,-0.918,-0.430,-0.252
6.109,-0.916,-0.428,-0.252
6.119,-0.920,-0.428,-0.252
6.129,-0.922,-0.428,-0.248
6.139,-0.920,-0.424,-0.250
6.149,-0.920,-0.426,-0.246
6.158,-0.924,-0.420,-0.252
6.168,-0.922,-0.420,-0.250
6.178,-0.920,-0.418,-0.254
6.188,-0.918,-0.418,-0.248
6.198,-0.924,-0.418,-0.248
6.208,-0.924,-0.410,-0.250
6.218,-0.924,-0.412,-0.250
6.228,-0.932,-0.404,-0.242
6.238,-0.928,-0.400,-0.238
6.248,-0.922,-0.406,-0.258
6.258,-0.924,-0.406,-0.246
6.268,-0.922,-0.404,-0.250
6.278,-0.918,-0.402,-0.252
6.288,-0.920,-0.395,-0.248
6.298,-0.924,-0.395,-0.238
6.308,-0.922,-0.395,-0.242
6.318,-0.920,-0.396,-0.248
6.327,-0.922,-0.396,-0.246
6.337,-0.924,-0.396,-0.244
6.347,-0.924,-0.396,-0.244
6.357,-0.928,-0.398,-0.242
6.367,-0.926,-0.396,-0.242
6.377,-0.920,-0.391,-0.240
6.387,-0.924,-0.393,-0.244
6.397,-0.930,-0.395,-0.240
6.407,-0.926,-0.393,-0.236
6.417,-0.924,-0.395,-0.234
6.427,-0.928,-0.395,-0.232
6.437,-0.926,-0.396,-0.234
6.447,-0.926,-0.395,-0.236
6.457,-0.930,-0.391,-0.229
6.467,-0.934,-0.389,-0.223
6.477,-0.932,-0.393,-0.225
6.487,-0.936,-0.398,-0.230
6.496,-0.934,-0.402,-0.225
6.506,-0.936,-0.400,-0.219
6.516,-0.932,-0.396,-0.217
6.526,-0.936,-0.402,-0.215
6.536,-0.934,-0.400,-0.221
6.546,-0.936,-0.398,-0.215
6.556,-0.941,-0.396,-0.215
6.566,-0.945,-0.395,-0.217
6.576,-0.939,-0.391,-0.217
6.586,-0.939,-0.391,-0.219
6.596,-0.938,-0.393,-0.227
6.606,-0.934,-0.391,-0.229
6.616,-0.928,-0.395,-0.227
6.626,-0.922,-0.391,-0.232
6.636,-0.922,-0.396,-0.230
6.646,-0.922,-0.396,-0.236
6.655,-0.916,-0.391,-0.236
6.665,-0.920,-0.393,-0.238
6.675,-0.926,-0.395,-0.238
6.685,-0.924,-0.391,-0.238
6.695,-0.926,-0.393,-0.244
6.705,-0.926,-0.395,-0.248
6.715,-0.926,-0.395,-0.248
6.725,-0.922,-0.391,-0.246
6.735,-0.926,-0.389,-0.246
6.745,-0.926,-0.391,-0.250
6.755,-0.930,-0.391,-0.250
6.765,-0.928,-0.389,-0.246
6.775,-0.924,-0.391,-0.244
6.785,-0.924,-0.391,-0.244
6.795,-0.924,-0.387,-0.248
6.805,-0.924,-0.389,-0.246
6.815,-0.924,-0.391,-0.244
6.824,-0.930,-0.387,-0.246
6.834,-0.928,-0.393,-0.248
6.844,-0.930,-0.393,-0.246
6.854,-0.928,-0.393,-0.246
6.864,-0.930,-0.383,-0.244
6.874,-0.926,-0.387,-0.246
6.884,-0.924,-0.391,-0.238
6.894,-0.916,-0.395,-0.246
6.904,-0.918,-0.395,-0.252
6.914,-0.922,-0.391,-0.244
6.924,-0.922,-0.391,-0.242
6.934,-0.918,-0.396,-0.244
6.944,-0.924,-0.395,-0.242
6.954,-0.920,-0.393,-0.244
6.964,-0.920,-0.396,-0.252
6.974,-0.920,-0.393,-0.244
6.984,-0.920,-0.395,-0.244
6.993,-0.916,-0.395,-0.246
7.003,-0.918,-0.395,-0.242
7.013,-0.922,-0.395,-0.238
7.023,-0.918,-0.395,-0.242
7.033,-0.920,-0.396,-0.246
7.043,-0.926,-0.396,-0.244
7.053,-0.920,-0.398,-0.244
7.063,-0.922,-0.395,-0.240
7.073,-0.920,-0.398,-0.246
7.083,-0.920,-0.400,-0.250
7.093,-0.920,-0.402,-0.244
7.103,-0.920,-0.400,-0.244
7.113,-0.922,-0.400,-0.246
7.123,-0.916,-0.395,-0.244
7.133,-0.920,-0.398,-0.244
7.143,-0.924,-0.395,-0.246
7.153,-0.920,-0.393,-0.240
7.162,-0.922,-0.395,-0.236
7.172,-0.926,-0.404,-0.248
7.182,-0.926,-0.402,-0.248
7.192,-0.928,-0.395,-0.240
7.202,-0.928,-0.389,-0.238
7.212,-0.926,-0.391,-0.246
7.222,-0.926,-0.393,-0.246
7.232,-0.928,-0.396,-0.244
7.242,-0.922,-0.393,-0.252
7.252,-0.924,-0.393,-0.254
7.262,-0.930,-0.393,-0.246
7.272,-0.924,-0.395,-0.244
7.282,-0.926,-0.391,-0.242
7.292,-0.922,-0.389,-0.244
7.302,-0.922,-0.387,-0.240
7.312,-0.922,-0.393,-0.240
7.322,-0.922,-0.396,-0.244
7.331,-0.922,-0.393,-0.242
7.341,-0.918,-0.393,-0.242
7.351,-0.918,-0.391,-0.240
7.361,-0.920,-0.395,-0.238
7.371,-0.922,-0.395,-0.236
7.381,-0.918,-0.395,-0.248
7.391,-0.914,-0.396,-0.242
7.401,-0.918,-0.395,-0.240
7.411,-0.916,-0.396,-0.240
7.421,-0.912,-0.398,-0.236
7.431,-0.914,-0.404,-0.248
7.441,-0.914,-0.408,-0.242
7.451,-0.906,-0.400,-0.240
7.461,-0.908,-0.402,-0.232
7.471,-0.908,-0.398,-0.232
7.481,-0.910,-0.398,-0.232
7.490,-0.922,-0.406,-0.240
7.500,-0.926,-0.410,-0.240
7.510,-0.926,-0.410,-0.236
7.520,-0.930,-0.410,-0.242
7.530,-0.932,-0.416,-0.250
7.540,-0.930,-0.408,-0.244
7.550,-0.928,-0.410,-0.242
7.560,-0.924,-0.412,-0.250
7.570,-0.922,-0.412,-0.250
7.580,-0.922,-0.408,-0.246
7.590,-0.922,-0.410,-0.240
7.600,-0.920,-0.410,-0.244
7.610,-0.912,-0.408,-0.248
7.620,-0.914,-0.410,-0.250
7.630,-0.920,-0.414,-0.246
7.640,-0.920,-0.408,-0.244
7.650,-0.920,-0.408,-0.240
7.659,-0.916,-0.402,-0.244
7.669,-0.918,-0.408,-0.240
7.679,-0.918,-0.404,-0.240
7.689,-0.918,-0.408,-0.240
7.699,-0.914,-0.406,-0.242
7.709,-0.908,-0.412,-0.244
7.719,-0.910,-0.412,-0.244
7.729,-0.914,-0.412,-0.240
7.739,-0.922,-0.408,-0.238
7.749,-0.918,-0.408,-0.242
7.759,-0.918,-0.406,-0.242
7.769,-0.920,-0.408,-0.242
7.779,-0.918,-0.408,-0.238
7.789,-0.916,-0.408,-0.240
7.799,-0.920,-0.412,-0.240
7.809,-0.922,-0.414,-0.242
7.819,-0.918,-0.416,-0.248
7.828,-0.904,-0.412,-0.244
7.838,-0.912,-0.410,-0.244
7.848,-0.910,-0.408,-0.234
7.858,-0.912,-0.404,-0.244
7.868,-0.912,-0.414,-0.246
7.878,-0.916,-0.420,-0.248
7.888,-0.924,-0.426,-0.250
7.898,-0.926,-0.416,-0.244
7.908,-0.920,-0.408,-0.244
7.918,-0.924,-0.412,-0.244
7.928,-0.914,-0.410,-0.246
7.938,-0.916,-0.410,-0.246
7.948,-0.914,-0.408,-0.240
7.958,-0.912,-0.410,-0.244
7.968,-0.910,-0.408,-0.250
7.978,-0.918,-0.414,-0.248
7.988,-0.914,-0.412,-0.242
7.997,-0.914,-0.410,-0.246
8.007,-0.916,-0.408,-0.242
8.017,-0.916,-0.414,-0.244
8.027,-0.912,-0.418,-0.248
8.037,-0.914,-0.414,-0.242
8.047,-0.908,-0.414,-0.240
8.057,-0.912,-0.414,-0.244
8.067,-0.914,-0.416,-0.244
8.077,-0.916,-0.418,-0.240
8.087,-0.912,-0.418,-0.244
8.097,-0.910,-0.418,-0.244
8.107,-0.914,-0.420,-0.242
8.117,-0.912,-0.418,-0.244
8.127,-0.908,-0.418,-0.252
8.137,-0.912,-0.426,-0.244
8.147,-0.912,-0.426,-0.250
8.157,-0.904,-0.420,-0.248
8.166,-0.908,-0.418,-0.242
8.176,-0.910,-0.420,-0.242
8.186,-0.912,-0.420,-0.240
8.196,-0.908,-0.422,-0.244
8.206,-0.910,-0.422,-0.250
8.216,-0.910,-0.424,-0.244
8.226,-0.912,-0.422,-0.244
8.236,-0.912,-0.420,-0.246
8.246,-0.912,-0.422,-0.246
8.256,-0.916,-0.424,-0.246
8.266,-0.918,-0.426,-0.242
8.276,-0.916,-0.430,-0.252
8.286,-0.916,-0.428,-0.250
8.296,-0.918,-0.424,-0.244
8.306,-0.922,-0.426,-0.244
8.316,-0.916,-0.424,-0.248
8.326,-0.908,-0.422,-0.246
8.335,-0.912,-0.424,-0.246
8.345,-0.912,-0.424,-0.246
8.355,-0.904,-0.426,-0.244
8.365,-0.902,-0.426,-0.248
8.375,-0.898,-0.426,-0.252
8.385,-0.900,-0.430,-0.244
8.395,-0.898,-0.428,-0.254
8.405,-0.895,-0.432,-0.256
8.415,-0.900,-0.434,-0.250
8.425,-0.898,-0.436,-0.244
8.435,-0.891,-0.436,-0.250
8.445,-0.893,-0.434,-0.250
8.455,-0.891,-0.434,-0.246
8.465,-0.893,-0.434,-0.250
8.475,-0.896,-0.434,-0.252
8.485,-0.900,-0.436,-0.250
8.494,-0.902,-0.439,-0.246
8.504,-0.904,-0.443,-0.252
8.514,-0.904,-0.443,-0.248
8.524,-0.904,-0.443,-0.248
8.534,-0.898,-0.447,-0.248
8.544,-0.898,-0.445,-0.244
8.554,-0.891,-0.445,-0.242
8.564,-0.889,-0.445,-0.244
8.574,-0.896,-0.451,-0.248
8.584,-0.895,-0.447,-0.242
8.594,-0.896,-0.449,-0.236
8.604,-0.896,-0.451,-0.240
8.614,-0.893,-0.455,-0.244
8.624,-0.895,-0.453,-0.242
8.634,-0.893,-0.443,-0.234
8.644,-0.895,-0.447,-0.242
8.654,-0.893,-0.451,-0.248
8.663,-0.898,-0.457,-0.256
8.673,-0.896,-0.455,-0.254
8.683,-0.889,-0.451,-0.254
8.693,-0.895,-0.445,-0.240
8.703,-0.893,-0.445,-0.242
8.713,-0.893,-0.451,-0.242
8.723,-0.902,-0.451,-0.240
8.733,-0.893,-0.453,-0.244
8.743,-0.896,-0.457,-0.246
8.753,-0.900,-0.461,-0.246
8.763,-0.893,-0.459,-0.244
8.773,-0.889,-0.461,-0.246
8.783,-0.889,-0.463,-0.250
8.793,-0.891,-0.459,-0.240
8.803,-0.893,-0.463,-0.242
8.813,-0.887,-0.465,-0.246
8.823,-0.893,-0.467,-0.242
8.832,-0.891,-0.469,-0.242
8.842,-0.889,-0.469,-0.242
8.852,-0.889,-0.467,-0.236
8.862,-0.883,-0.469,-0.236
8.872,-0.879,-0.475,-0.242
8.882,-0.879,-0.477,-0.230
8.892,-0.877,-0.479,-0.242
8.902,-0.877,-0.475,-0.236
8.912,-0.883,-0.473,-0.230
8.922,-0.887,-0.479,-0.234
8.932,-0.883,-0.479,-0.240
8.942,-0.887,-0.484,-0.232
8.952,-0.883,-0.477,-0.232
8.962,-0.883,-0.479,-0.236
8.972,-0.883,-0.480,-0.229
8.982,-0.881,-0.477,-0.234
8.992,-0.885,-0.480,-0.236
9.001,-0.885,-0.473,-0.236
9.011,-0.885,-0.475,-0.234
9.021,-0.883,-0.475,-0.236
9.031,-0.883,-0.477,-0.238
9.041,-0.885,-0.477,-0.230
9.051,-0.885,-0.475,-0.234
9.061,-0.885,-0.475,-0.242
9.071,-0.885,-0.473,-0.236
9.081,-0.885,-0.473,-0.232
9.091,-0.889,-0.475,-0.230
9.101,-0.885,-0.473,-0.234
9.111,-0.887,-0.475,-0.242
9.121,-0.885,-0.475,-0.236
9.131,-0.883,-0.477,-0.238
9.141,-0.887,-0.479,-0.244
9.151,-0.883,-0.475,-0.238
9.161,-0.885,-0.475,-0.236
9.170,-0.881,-0.473,-0.236
9.180,-0.885,-0.471,-0.238
9.190,-0.879,-0.467,-0.236
9.200,-0.881,-0.467,-0.236
9.210,-0.883,-0.467,-0.236
9.220,-0.885,-0.473,-0.240
9.230,-0.893,-0.475,-0.242
9.240,-0.885,-0.473,-0.244
9.250,-0.891,-0.475,-0.242
9.260,-0.893,-0.469,-0.234
9.270,-0.889,-0.471,-0.244
9.280,-0.887,-0.475,-0.244
9.290,-0.887,-0.473,-0.240
9.300,-0.885,-0.477,-0.246
9.310,-0.887,-0.473,-0.242
9.320,-0.883,-0.469,-0.236
9.330,-0.891,-0.475,-0.238
9.339,-0.887,-0.475,-0.244
9.349,-0.885,-0.477,-0.238
9.359,-0.883,-0.477,-0.244
9.369,-0.879,-0.480,-0.242
9.379,-0.881,-0.480,-0.242
9.389,-0.883,-0.473,-0.236
9.399,-0.889,-0.471,-0.240
9.409,-0.887,-0.475,-0.244
9.419,-0.885,-0.479,-0.246
9.429,-0.883,-0.475,-0.244
9.439,-0.879,-0.473,-0.244
9.449,-0.877,-0.469,-0.242
9.459,-0.879,-0.475,-0.242
9.469,-0.883,-0.473,-0.238
9.479,-0.881,-0.475,-0.244
9.489,-0.881,-0.473,-0.240
9.498,-0.887,-0.473,-0.240
9.508,-0.887,-0.473,-0.246
9.518,-0.883,-0.473,-0.246
9.528,-0.883,-0.473,-0.244
9.538,-0.881,-0.479,-0.242
9.548,-0.885,-0.473,-0.246
9.558,-0.883,-0.475,-0.244
9.568,-0.883,-0.473,-0.242
9.578,-0.883,-0.477,-0.242
9.588,-0.883,-0.479,-0.240
9.598,-0.881,-0.479,-0.238
9.608,-0.883,-0.475,-0.242
9.618,-0.875,-0.479,-0.244
9.628,-0.881,-0.480,-0.246
9.638,-0.881,-0.480,-0.242
9.648,-0.877,-0.477,-0.242
9.658,-0.877,-0.477,-0.240
9.667,-0.879,-0.479,-0.240
9.677,-0.877,-0.482,-0.242
9.687,-0.879,-0.486,-0.242
9.697,-0.879,-0.480,-0.244
9.707,-0.879,-0.484,-0.238
9.717,-0.879,-0.484,-0.242
9.727,-0.881,-0.484,-0.240
9.737,-0.877,-0.484,-0.244
9.747,-0.879,-0.484,-0.242
9.757,-0.877,-0.480,-0.246
9.767,-0.875,-0.479,-0.236
9.777,-0.881,-0.480,-0.244
9.787,-0.883,-0.480,-0.238
9.797,-0.881,-0.484,-0.240
9.807,-0.881,-0.482,-0.244
9.817,-0.879,-0.484,-0.238
9.827,-0.879,-0.484,-0.244
9.836,-0.877,-0.482,-0.244
9.846,-0.875,-0.482,-0.238
9.856,-0.877,-0.480,-0.242
9.866,-0.877,-0.484,-0.240
9.876,-0.881,-0.482,-0.238
9.886,-0.879,-0.484,-0.240
9.896,-0.873,-0.484,-0.244
9.906,-0.875,-0.486,-0.246
9.916,-0.881,-0.482,-0.246
9.926,-0.879,-0.482,-0.246
9.936,-0.877,-0.484,-0.246
9.946,-0.879,-0.486,-0.248
9.956,-0.877,-0.484,-0.242
9.966,-0.875,-0.486,-0.244
9.976,-0.877,-0.484,-0.244
9.986,-0.869,-0.488,-0.246
9.996,-0.871,-0.486,-0.248
10.005,-0.873,-0.484,-0.250
10.015,-0.875,-0.488,-0.248
10.025,-0.875,-0.488,-0.248
10.035,-0.879,-0.486,-0.244
10.045,-0.875,-0.486,-0.246
10.055,-0.875,-0.484,-0.244
10.065,-0.871,-0.488,-0.246
10.075,-0.869,-0.486,-0.246
10.085,-0.871,-0.492,-0.244
10.095,-0.867,-0.486,-0.248
10.105,-0.867,-0.490,-0.246
10.115,-0.871,-0.488,-0.246
10.125,-0.873,-0.490,-0.248
10.135,-0.871,-0.486,-0.246
10.145,-0.871,-0.490,-0.246
10.155,-0.873,-0.488,-0.246
10.165,-0.871,-0.490,-0.242
10.174,-0.871,-0.488,-0.242
10.184,-0.875,-0.490,-0.250
10.194,-0.873,-0.490,-0.240
10.204,-0.869,-0.492,-0.246
10.214,-0.873,-0.492,-0.244
10.224,-0.869,-0.488,-0.244
10.234,-0.871,-0.486,-0.242
10.244,-0.875,-0.490,-0.246
10.254,-0.869,-0.488,-0.242
10.264,-0.865,-0.492,-0.240
10.274,-0.863,-0.496,-0.250
10.284,-0.867,-0.500,-0.252
10.294,-0.871,-0.496,-0.248
10.304,-0.871,-0.494,-0.244
10.314,-0.875,-0.492,-0.244
10.324,-0.875,-0.492,-0.248
10.334,-0.871,-0.492,-0.250
10.343,-0.875,-0.490,-0.250
10.353,-0.875,-0.486,-0.250
10.363,-0.873,-0.486,-0.242
10.373,-0.877,-0.488,-0.250
10.383,-0.875,-0.488,-0.246
10.393,-0.877,-0.484,-0.244
10.403,-0.877,-0.486,-0.246
10.413,-0.877,-0.488,-0.248
10.423,-0.869,-0.486,-0.246
10.433,-0.875,-0.490,-0.244
10.443,-0.873,-0.488,-0.248
10.453,-0.869,-0.494,-0.246
10.463,-0.871,-0.492,-0.246
10.473,-0.871,-0.492,-0.248
10.483,-0.869,-0.494,-0.246
10.493,-0.871,-0.496,-0.250
10.502,-0.869,-0.492,-0.248
10.512,-0.871,-0.492,-0.246
10.522,-0.861,-0.488,-0.244
10.532,-0.859,-0.496,-0.248
10.542,-0.865,-0.494,-0.248
10.552,-0.867,-0.498,-0.250
10.562,-0.865,-0.494,-0.250
10.572,-0.865,-0.494,-0.246
10.582,-0.869,-0.494,-0.240
10.592,-0.869,-0.498,-0.246
10.602,-0.869,-0.496,-0.248
10.612,-0.871,-0.496,-0.246
10.622,-0.867,-0.496,-0.248
10.632,-0.869,-0.494,-0.248
10.642,-0.871,-0.492,-0.248
10.652,-0.871,-0.492,-0.244
10.662,-0.873,-0.492,-0.248
10.671,-0.871,-0.488,-0.244
10.681,-0.873,-0.490,-0.246
10.691,-0.871,-0.492,-0.250
10.701,-0.873,-0.488,-0.248
10.711,-0.869,-0.488,-0.248
10.721,-0.869,-0.490,-0.246
10.731,-0.869,-0.490,-0.246
10.741,-0.877,-0.494,-0.248
10.751,-0.871,-0.492,-0.248
10.761,-0.869,-0.492,-0.244
10.771,-0.867,-0.494,-0.244
10.781,-0.873,-0.490,-0.246
10.791,-0.871,-0.492,-0.246
10.801,-0.873,-0.494,-0.244
10.811,-0.873,-0.496,-0.246
10.821,-0.873,-0.496,-0.250
10.831,-0.871,-0.496,-0.248
10.840,-0.873,-0.490,-0.244
10.850,-0.869,-0.492,-0.244
10.860,-0.869,-0.492,-0.248
10.870,-0.865,-0.490,-0.244
10.880,-0.871,-0.490,-0.242
10.890,-0.873,-0.492,-0.246
10.900,-0.871,-0.494,-0.248
10.910,-0.871,-0.498,-0.246
10.920,-0.873,-0.494,-0.248
10.930,-0.867,-0.492,-0.246
10.940,-0.867,-0.498,-0.248
10.950,-0.867,-0.496,-0.246
10.960,-0.865,-0.488,-0.250
10.970,-0.867,-0.494,-0.242
10.980,-0.871,-0.494,-0.248
10.990,-0.871,-0.494,-0.252
11.000,-0.871,-0.494,-0.254
11.009,-0.867,-0.494,-0.250
11.019,-0.867,-0.494,-0.254
11.029,-0.865,-0.494,-0.252
11.039,-0.867,-0.494,-0.254
11.049,-0.867,-0.494,-0.254
11.059,-0.869,-0.492,-0.250
11.069,-0.869,-0.492,-0.248
11.079,-0.869,-0.490,-0.246
11.089,-0.871,-0.492,-0.246
11.099,-0.871,-0.492,-0.248
11.109,-0.871,-0.496,-0.250
11.119,-0.871,-0.496,-0.250
11.129,-0.871,-0.494,-0.248
11.139,-0.869,-0.492,-0.248
11.149,-0.875,-0.492,-0.250
11.159,-0.875,-0.492,-0.250
11.169,-0.871,-0.492,-0.244
11.178,-0.865,-0.492,-0.250
11.188,-0.861,-0.496,-0.254
11.198,-0.865,-0.498,-0.256
11.208,-0.867,-0.492,-0.248
11.218,-0.871,-0.490,-0.244
11.228,-0.875,-0.494,-0.252
11.238,-0.875,-0.496,-0.256
11.248,-0.877,-0.492,-0.254
11.258,-0.877,-0.490,-0.254
11.268,-0.873,-0.488,-0.248
11.278,-0.875,-0.492,-0.248
11.288,-0.875,-0.494,-0.250
11.298,-0.873,-0.492,-0.250
11.308,-0.877,-0.494,-0.250
11.318,-0.871,-0.494,-0.252
11.328,-0.871,-0.496,-0.250
11.338,-0.871,-0.496,-0.248
11.347,-0.865,-0.490,-0.252
11.357,-0.865,-0.496,-0.252
11.367,-0.863,-0.496,-0.250
11.377,-0.865,-0.496,-0.250
11.387,-0.871,-0.496,-0.252
11.397,-0.873,-0.496,-0.248
11.407,-0.869,-0.494,-0.250
11.417,-0.873,-0.498,-0.252
11.427,-0.871,-0.494,-0.252
11.437,-0.867,-0.492,-0.250
11.447,-0.869,-0.500,-0.260
11.457,-0.873,-0.500,-0.260
11.467,-0.871,-0.496,-0.260
11.477,-0.871,-0.490,-0.256
11.487,-0.879,-0.492,-0.256
11.497,-0.879,-0.488,-0.256
11.506,-0.885,-0.482,-0.260
11.516,-0.879,-0.486,-0.264
11.526,-0.875,-0.475,-0.260
11.536,-0.875,-0.473,-0.264
11.546,-0.883,-0.473,-0.270
11.556,-0.891,-0.471,-0.277
11.566,-0.896,-0.463,-0.283
11.576,-0.904,-0.441,-0.281
11.586,-0.900,-0.432,-0.266
11.596,-0.902,-0.443,-0.277
11.606,-0.910,-0.463,-0.285
11.616,-0.912,-0.484,-0.281
11.626,-0.910,-0.506,-0.273
11.636,-0.875,-0.512,-0.262
11.646,-0.855,-0.529,-0.254
11.656,-0.844,-0.553,-0.244
11.666,-0.832,-0.568,-0.232
11.675,-0.838,-0.594,-0.223
11.685,-0.838,-0.621,-0.205
11.695,-0.816,-0.639,-0.193
11.705,-0.791,-0.629,-0.176
11.715,-0.771,-0.648,-0.152
11.725,-0.744,-0.680,-0.146
11.735,-0.697,-0.691,-0.150
11.745,-0.666,-0.711,-0.137
11.755,-0.639,-0.754,-0.127
11.765,-0.602,-0.770,-0.125
11.775,-0.572,-0.803,-0.117
11.785,-0.564,-0.846,-0.119
11.795,-0.537,-0.869,-0.107
11.805,-0.502,-0.873,-0.096
11.815,-0.477,-0.879,-0.080
11.825,-0.445,-0.891,-0.068
11.835,-0.412,-0.885,-0.064
11.844,-0.385,-0.871,-0.053
11.854,-0.359,-0.871,-0.027
11.864,-0.342,-0.887,-0.025
11.874,-0.320,-0.902,-0.025
11.884,-0.283,-0.912,-0.018
11.894,-0.256,-0.941,-0.014
11.904,-0.234,-0.979,-0.014
11.914,-0.207,-0.992,-0.010
11.924,-0.188,-0.994,0.000
11.934,-0.170,-0.986,0.008
11.944,-0.154,-0.975,0.014
11.954,-0.141,-0.967,0.029
11.964,-0.127,-0.957,0.037
11.974,-0.111,-0.951,0.043
11.984,-0.096,-0.947,0.047
11.994,-0.076,-0.938,0.051
12.004,-0.062,-0.934,0.061
12.013,-0.041,-0.936,0.068
12.023,-0.014,-0.965,0.066
12.033,0.023,-0.996,0.070
12.043,0.066,-1.041,0.072
12.053,0.080,-1.062,0.057
12.063,0.076,-1.053,0.068
12.073,0.080,-1.037,0.092
12.083,0.090,-1.037,0.086
12.093,0.098,-1.045,0.082
12.103,0.105,-1.045,0.096
12.113,0.119,-1.031,0.111
12.123,0.156,-1.020,0.123
12.133,0.139,-0.986,0.102
12.143,0.139,-0.982,0.123
12.153,0.174,-0.979,0.125
12.163,0.199,-0.973,0.113
12.173,0.207,-0.977,0.117
12.182,0.209,-0.969,0.119
12.192,0.221,-0.959,0.121
12.202,0.227,-0.961,0.115
12.212,0.236,-0.967,0.115
12.222,0.242,-0.963,0.111
12.232,0.246,-0.967,0.121
12.242,0.252,-0.977,0.117
12.252,0.250,-0.977,0.115
12.262,0.268,-0.973,0.121
12.272,0.283,-0.973,0.115
12.282,0.297,-0.979,0.104
12.292,0.309,-0.975,0.115
12.302,0.316,-0.959,0.115
12.312,0.326,-0.951,0.117
12.322,0.314,-0.945,0.107
12.332,0.322,-0.941,0.115
12.342,0.346,-0.918,0.123
12.351,0.373,-0.912,0.127
12.361,0.379,-0.916,0.117
12.371,0.391,-0.926,0.117
12.381,0.395,-0.910,0.109
12.391,0.389,-0.895,0.115
12.401,0.389,-0.902,0.111
12.411,0.404,-0.904,0.107
12.421,0.428,-0.904,0.100
12.431,0.428,-0.898,0.104
12.441,0.428,-0.895,0.113
12.451,0.438,-0.900,0.113
12.461,0.453,-0.902,0.109
12.471,0.465,-0.912,0.109
12.481,0.465,-0.906,0.105
12.491,0.453,-0.908,0.104
12.501,0.451,-0.902,0.100
12.510,0.457,-0.898,0.098
12.520,0.461,-0.900,0.094
12.530,0.463,-0.908,0.090
12.540,0.459,-0.900,0.084
12.550,0.453,-0.893,0.088
12.560,0.455,-0.883,0.092
12.570,0.447,-0.883,0.090
12.580,0.439,-0.881,0.090
12.590,0.432,-0.881,0.094
12.600,0.424,-0.879,0.092
12.610,0.414,-0.879,0.096
12.620,0.404,-0.883,0.094
12.630,0.400,-0.885,0.092
12.640,0.393,-0.893,0.094
12.650,0.385,-0.898,0.098
12.660,0.381,-0.910,0.092
12.670,0.375,-0.918,0.090
12.679,0.367,-0.922,0.090
12.689,0.355,-0.920,0.094
12.699,0.354,-0.918,0.098
12.709,0.344,-0.924,0.104
12.719,0.340,-0.939,0.105
12.729,0.332,-0.945,0.100
12.739,0.322,-0.941,0.105
12.749,0.314,-0.945,0.111
12.759,0.314,-0.955,0.100
12.769,0.312,-0.957,0.102
12.779,0.312,-0.953,0.102
12.789,0.309,-0.951,0.100
12.799,0.311,-0.955,0.105
12.809,0.324,-0.953,0.100
12.819,0.318,-0.953,0.096
12.829,0.318,-0.947,0.104
12.839,0.320,-0.939,0.100
12.848,0.320,-0.938,0.102
12.858,0.322,-0.941,0.107
12.868,0.324,-0.934,0.105
12.878,0.324,-0.936,0.104
12.888,0.320,-0.930,0.109
12.898,0.316,-0.926,0.111
12.908,0.314,-0.924,0.105
12.918,0.322,-0.924,0.104
12.928,0.320,-0.928,0.100
12.938,0.320,-0.932,0.100
12.948,0.326,-0.930,0.102
12.958,0.332,-0.934,0.094
12.968,0.332,-0.932,0.090
12.978,0.338,-0.926,0.100
12.988,0.344,-0.924,0.100
12.998,0.344,-0.908,0.094
13.008,0.342,-0.893,0.102
13.017,0.340,-0.891,0.094
13.027,0.342,-0.898,0.086
13.037,0.344,-0.904,0.086
13.047,0.342,-0.912,0.080
13.057,0.334,-0.924,0.086
13.067,0.340,-0.934,0.090
13.077,0.338,-0.949,0.078
13.087,0.328,-0.953,0.076
13.097,0.328,-0.957,0.076
13.107,0.324,-0.965,0.066
13.117,0.318,-0.961,0.064
13.127,0.312,-0.955,0.068
13.137,0.309,-0.949,0.068
13.147,0.303,-0.945,0.068
13.157,0.301,-0.938,0.064
13.167,0.303,-0.930,0.066
13.177,0.307,-0.930,0.062
13.186,0.301,-0.922,0.061
13.196,0.301,-0.912,0.062
13.206,0.301,-0.914,0.061
13.216,0.299,-0.922,0.053
13.226,0.295,-0.926,0.055
13.236,0.301,-0.922,0.053
13.246,0.305,-0.928,0.062
13.256,0.309,-0.941,0.061
13.266,0.309,-0.957,0.066
13.276,0.309,-0.957,0.074
13.286,0.301,-0.955,0.072
13.296,0.293,-0.969,0.072
13.306,0.291,-0.963,0.070
13.316,0.283,-0.965,0.076
13.326,0.271,-0.951,0.082
13.336,0.271,-0.941,0.090
13.346,0.268,-0.939,0.086
13.355,0.266,-0.938,0.092
13.365,0.264,-0.938,0.094
13.375,0.268,-0.947,0.088
13.385,0.273,-0.961,0.086
13.395,0.279,-0.963,0.088
13.405,0.279,-0.961,0.090
13.415,0.281,-0.967,0.092
13.425,0.285,-0.969,0.094
13.435,0.281,-0.969,0.096
13.445,0.281,-0.975,0.090
13.455,0.281,-0.977,0.084
13.465,0.279,-0.977,0.078
13.475,0.279,-0.975,0.074
13.485,0.283,-0.969,0.068
13.495,0.281,-0.961,0.066
13.505,0.283,-0.947,0.066
13.514,0.283,-0.938,0.057
13.524,0.283,-0.930,0.057
13.534,0.285,-0.928,0.057
13.544,0.299,-0.943,0.039
13.554,0.305,-0.963,0.025
13.564,0.324,-0.990,0.012
13.574,0.340,-1.012,0.002
13.584,0.348,-1.016,0.016
13.594,0.326,-0.996,0.027
13.604,0.291,-0.977,0.051
13.614,0.268,-0.949,0.062
13.624,0.254,-0.934,0.051
13.634,0.252,-0.920,0.035
13.644,0.258,-0.912,0.020
13.654,0.275,-0.908,0.000
13.664,0.299,-0.908,-0.020
13.674,0.314,-0.904,-0.031
13.683,0.330,-0.908,-0.037
13.693,0.338,-0.910,-0.045
13.703,0.348,-0.900,-0.049
13.713,0.350,-0.908,-0.053
13.723,0.357,-0.906,-0.061
13.733,0.344,-0.900,-0.061
13.743,0.336,-0.895,-0.059
13.753,0.332,-0.891,-0.068
13.763,0.330,-0.891,-0.068
13.773,0.334,-0.898,-0.072
13.783,0.328,-0.904,-0.080
13.793,0.324,-0.904,-0.076
13.803,0.320,-0.906,-0.074
13.813,0.311,-0.908,-0.080
13.823,0.307,-0.914,-0.078
13.833,0.305,-0.910,-0.078
13.843,0.297,-0.908,-0.074
13.852,0.299,-0.910,-0.066
13.862,0.301,-0.916,-0.064
13.872,0.299,-0.916,-0.061
13.882,0.291,-0.912,-0.049
13.892,0.293,-0.906,-0.045
13.902,0.299,-0.916,-0.041
13.912,0.307,-0.922,-0.045
13.922,0.305,-0.922,-0.037
13.932,0.301,-0.922,-0.025
13.942,0.312,-0.922,-0.023
13.952,0.316,-0.934,-0.033
13.962,0.318,-0.945,-0.031
13.972,0.318,-0.949,-0.035
13.982,0.318,-0.955,-0.029
13.992,0.314,-0.957,-0.023
14.002,0.316,-0.949,-0.008
14.012,0.312,-0.945,-0.006
14.021,0.312,-0.951,-0.004
14.031,0.318,-0.951,-0.004
14.041,0.322,-0.955,-0.002
14.051,0.326,-0.961,-0.006
14.061,0.320,-0.957,-0.012
14.071,0.322,-0.947,-0.006
14.081,0.322,-0.943,0.000
14.091,0.320,-0.943,-0.008
14.101,0.314,-0.941,-0.006
14.111,0.309,-0.947,-0.002
14.121,0.301,-0.949,-0.006
14.131,0.297,-0.955,-0.008
14.141,0.297,-0.959,0.000
14.151,0.299,-0.955,0.004
14.161,0.301,-0.965,0.002
14.171,0.299,-0.963,0.000
14.181,0.301,-0.957,0.014
14.190,0.295,-0.951,0.014
14.200,0.303,-0.947,0.014
14.210,0.295,-0.941,0.018
14.220,0.291,-0.939,0.023
14.230,0.289,-0.945,0.018
14.240,0.283,-0.947,0.010
14.250,0.283,-0.955,0.018
14.260,0.275,-0.963,0.014
14.270,0.273,-0.963,0.014
14.280,0.254,-0.969,0.008
14.290,0.254,-0.957,0.020
14.300,0.242,-0.953,0.023
14.310,0.234,-0.955,0.021
14.320,0.225,-0.961,0.020
14.330,0.223,-0.965,0.020
14.340,0.217,-0.969,0.020
14.350,0.213,-0.977,0.020
14.359,0.209,-0.979,0.016
14.369,0.205,-0.980,0.020
14.379,0.207,-0.975,0.018
14.389,0.207,-0.973,0.023
14.399,0.207,-0.967,0.025
14.409,0.209,-0.967,0.027
14.419,0.207,-0.961,0.027
14.429,0.203,-0.965,0.027
14.439,0.201,-0.965,0.023
14.449,0.203,-0.971,0.021
14.459,0.201,-0.971,0.020
14.469,0.195,-0.971,0.025
14.479,0.189,-0.969,0.025
14.489,0.189,-0.977,0.023
14.499,0.188,-0.973,0.029
14.509,0.182,-0.979,0.033
14.518,0.180,-0.977,0.029
14.528,0.184,-0.984,0.023
14.538,0.184,-0.988,0.020
14.548,0.178,-0.980,0.021
14.558,0.180,-0.980,0.027
14.568,0.182,-0.980,0.018
14.578,0.186,-0.977,0.023
14.588,0.186,-0.975,0.029
14.598,0.186,-0.975,0.023
14.608,0.189,-0.971,0.023
14.618,0.184,-0.971,0.025
14.628,0.182,-0.973,0.020
14.638,0.184,-0.971,0.014
14.648,0.182,-0.961,0.029
14.658,0.180,-0.965,0.025
14.668,0.178,-0.957,0.021
14.678,0.180,-0.953,0.031
14.687,0.184,-0.955,0.029
14.697,0.191,-0.947,0.025
14.707,0.195,-0.955,0.021
14.717,0.191,-0.971,0.016
14.727,0.199,-0.990,0.012
14.737,0.197,-0.982,0.016
14.747,0.186,-0.982,0.021
14.757,0.178,-0.984,0.031
14.767,0.184,-0.992,0.021
14.777,0.189,-0.996,0.023
14.787,0.172,-0.992,0.035
14.797,0.178,-1.002,0.047
14.807,0.180,-0.994,0.039
14.817,0.176,-1.000,0.037
14.827,0.174,-0.996,0.041
14.837,0.174,-0.996,0.041
14.847,0.164,-1.008,0.033
14.856,0.168,-0.994,0.045
14.866,0.170,-0.988,0.053
14.876,0.168,-0.988,0.045
14.886,0.158,-0.994,0.051
14.896,0.156,-0.990,0.047
14.906,0.154,-0.988,0.047
14.916,0.158,-0.982,0.049
14.926,0.148,-0.992,0.041
14.936,0.146,-0.996,0.039
14.946,0.150,-0.984,0.039
14.956,0.152,-0.984,0.041
14.966,0.150,-0.990,0.035
14.976,0.150,-0.992,0.037
14.986,0.146,-0.992,0.037
14.996,0.146,-0.990,0.037
15.006,0.143,-0.984,0.033
15.016,0.135,-0.984,0.035
15.025,0.139,-0.986,0.029
15.035,0.143,-0.986,0.021
15.045,0.148,-0.988,0.021
15.055,0.150,-0.975,0.031
15.065,0.143,-0.979,0.033
15.075,0.146,-0.977,0.031
15.085,0.148,-0.979,0.025
15.095,0.146,-0.982,0.025
15.105,0.146,-0.982,0.023
15.115,0.148,-0.984,0.025
15.125,0.150,-0.984,0.023
15.135,0.145,-0.986,0.018
15.145,0.141,-0.984,0.018
15.155,0.141,-0.988,0.021
15.165,0.141,-0.990,0.018
15.175,0.141,-0.988,0.018
15.185,0.141,-0.992,0.021
15.194,0.145,-0.984,0.023
15.204,0.145,-0.982,0.021
15.214,0.145,-0.984,0.020
15.224,0.146,-0.984,0.018
15.234,0.145,-0.982,0.010
15.244,0.143,-0.979,0.016
15.254,0.139,-0.979,0.021
15.264,0.143,-0.982,0.020
15.274,0.141,-0.988,0.016
15.284,0.139,-0.980,0.014
15.294,0.137,-0.984,0.018
15.304,0.139,-0.992,0.020
15.314,0.139,-0.988,0.014
15.324,0.139,-0.984,0.018
15.334,0.139,-0.988,0.018
15.344,0.141,-0.992,0.014
15.354,0.145,-0.996,0.014
15.363,0.148,-0.994,0.014
15.373,0.141,-0.990,0.012
15.383,0.141,-0.992,0.016
15.393,0.143,-0.990,0.020
15.403,0.145,-0.992,0.016
15.413,0.143,-0.992,0.010
15.423,0.146,-0.988,0.010
15.433,0.141,-0.988,0.010
15.443,0.139,-0.986,0.012
15.453,0.141,-0.986,0.008
15.463,0.139,-0.990,0.012
15.473,0.139,-0.984,0.008
15.483,0.141,-0.982,0.010
15.493,0.143,-0.982,0.010
15.503,0.143,-0.982,0.010
15.513,0.143,-0.988,0.006
15.522,0.137,-0.988,0.010
15.532,0.141,-0.988,0.010
15.542,0.133,-0.990,0.008
15.552,0.137,-0.990,0.008
15.562,0.133,-0.986,0.008
15.572,0.137,-0.992,0.006
15.582,0.141,-0.990,0.004
15.592,0.137,-0.986,0.008
15.602,0.133,-0.984,0.010
15.612,0.135,-0.988,0.000
15.622,0.141,-0.986,0.004
15.632,0.139,-0.990,0.004
15.642,0.133,-0.994,0.010
15.652,0.135,-0.992,0.010
15.662,0.135,-0.990,0.006
15.672,0.127,-0.996,0.000
15.682,0.127,-0.998,0.000
15.691,0.129,-0.996,-0.004
15.701,0.127,-0.998,0.000
15.711,0.125,-0.994,-0.002
15.721,0.125,-0.994,-0.002
15.731,0.121,-0.986,0.002
15.741,0.121,-0.984,0.004
15.751,0.121,-0.980,0.004
15.761,0.119,-0.979,0.004
15.771,0.119,-0.977,0.000
15.781,0.117,-0.984,-0.004
15.791,0.111,-0.986,-0.002
15.801,0.115,-0.998,-0.004
15.811,0.123,-1.004,-0.004
15.821,0.119,-1.006,-0.008
15.831,0.115,-1.000,-0.008
15.841,0.107,-1.000,-0.002
15.851,0.115,-0.996,-0.002
15.860,0.109,-0.984,0.000
15.870,0.109,-0.988,0.000
15.880,0.107,-0.988,-0.006
15.890,0.107,-0.986,-0.008
15.900,0.104,-0.984,-0.010
15.910,0.096,-0.984,-0.014
15.920,0.100,-0.979,-0.004
15.930,0.100,-0.982,-0.010
15.940,0.094,-0.984,-0.010
15.950,0.098,-0.990,-0.010
15.960,0.096,-0.982,-0.016
15.970,0.096,-0.988,-0.016
15.980,0.086,-0.986,-0.012
15.990,0.088,-0.994,-0.014
16.000,0.088,-0.996,-0.016
16.010,0.092,-0.990,-0.018
16.020,0.080,-0.992,-0.018
16.029,0.086,-0.996,-0.014
16.039,0.092,-0.994,-0.021
16.049,0.092,-1.000,-0.021
16.059,0.096,-0.996,-0.016
16.069,0.096,-0.990,-0.016
16.079,0.102,-0.992,-0.018
16.089,0.104,-0.992,-0.020
16.099,0.105,-0.994,-0.016
16.109,0.109,-0.994,-0.020
16.119,0.107,-0.990,-0.016
16.129,0.111,-0.988,-0.010
16.139,0.111,-0.994,-0.014
16.149,0.109,-0.996,-0.014
16.159,0.109,-0.996,-0.020
16.169,0.113,-0.996,-0.016
16.179,0.107,-0.992,-0.012
16.189,0.111,-0.996,-0.016
16.198,0.105,-0.998,-0.025
16.208,0.104,-0.994,-0.016
16.218,0.107,-0.990,-0.012
16.228,0.109,-0.992,-0.012
16.238,0.111,-0.988,-0.014
16.248,0.117,-0.996,-0.016
16.258,0.115,-0.990,-0.018
16.268,0.113,-0.990,-0.016
16.278,0.113,-0.990,-0.018
16.288,0.109,-0.992,-0.016
16.298,0.104,-0.994,-0.021
16.308,0.102,-0.988,-0.012
16.318,0.102,-0.986,-0.014
16.328,0.098,-0.994,-0.021
16.338,0.096,-0.994,-0.020
16.348,0.096,-0.990,-0.016
16.358,0.094,-0.988,-0.020
16.367,0.090,-0.988,-0.014
16.377,0.100,-0.984,-0.018
16.387,0.096,-0.984,-0.020
16.397,0.092,-0.992,-0.018
16.407,0.096,-0.996,-0.023
16.417,0.092,-0.998,-0.031
16.427,0.094,-0.998,-0.023
16.437,0.094,-0.992,-0.021
16.447,0.088,-0.992,-0.023
16.457,0.090,-0.994,-0.021
16.467,0.092,-0.984,-0.016
16.477,0.088,-0.977,-0.020
16.487,0.090,-0.986,-0.018
16.497,0.092,-0.984,-0.020
16.507,0.096,-0.992,-0.023
16.517,0.094,-0.996,-0.023
16.526,0.082,-1.008,-0.025
16.536,0.084,-1.010,-0.023
16.546,0.084,-1.006,-0.021
16.556,0.084,-1.008,-0.023
16.566,0.082,-1.002,-0.023
16.576,0.078,-1.000,-0.020
16.586,0.080,-0.998,-0.018
16.596,0.080,-0.996,-0.023
16.606,0.080,-0.996,-0.021
16.616,0.078,-0.990,-0.020
16.626,0.082,-0.986,-0.018
16.636,0.082,-0.988,-0.021
16.646,0.078,-0.984,-0.023
16.656,0.080,-0.982,-0.016
16.666,0.082,-0.979,-0.020
16.676,0.078,-0.982,-0.021
16.686,0.078,-0.990,-0.023
16.695,0.088,-0.992,-0.027
16.705,0.084,-1.000,-0.025
16.715,0.082,-1.004,-0.029
16.725,0.080,-1.000,-0.023
16.735,0.086,-1.000,-0.025
16.745,0.082,-0.996,-0.029
16.755,0.084,-0.996,-0.027
16.765,0.082,-0.994,-0.029
16.775,0.086,-0.996,-0.027
16.785,0.086,-0.994,-0.027
16.795,0.082,-0.988,-0.023
16.805,0.086,-0.988,-0.023
16.815,0.084,-0.992,-0.025
16.825,0.088,-0.992,-0.021
16.835,0.086,-0.996,-0.027
16.845,0.082,-0.998,-0.027
16.855,0.082,-0.996,-0.031
16.864,0.078,-0.996,-0.031
16.874,0.074,-0.996,-0.029
16.884,0.076,-0.992,-0.027
16.894,0.074,-0.994,-0.027
16.904,0.074,-0.992,-0.027
16.914,0.072,-0.990,-0.025
16.924,0.072,-0.996,-0.025
16.934,0.074,-0.992,-0.029
16.944,0.076,-0.998,-0.025
16.954,0.072,-0.996,-0.025
16.964,0.074,-0.998,-0.029
16.974,0.074,-1.000,-0.025
16.984,0.074,-1.000,-0.023
16.994,0.078,-0.996,-0.025
17.004,0.078,-0.998,-0.025
17.014,0.074,-1.004,-0.027
17.024,0.078,-0.998,-0.023
17.033,0.080,-0.998,-0.021
17.043,0.072,-1.000,-0.025
17.053,0.074,-0.998,-0.027
17.063,0.074,-1.002,-0.029
17.073,0.072,-1.000,-0.027
17.083,0.068,-1.000,-0.027
17.093,0.068,-1.004,-0.029
17.103,0.064,-1.000,-0.027
17.113,0.066,-0.994,-0.027
17.123,0.066,-0.998,-0.027
17.133,0.066,-1.004,-0.027
17.143,0.068,-1.002,-0.029
17.153,0.059,-1.002,-0.027
17.163,0.061,-1.000,-0.025
17.173,0.043,-0.998,-0.033
17.183,0.035,-1.006,-0.035
17.193,0.035,-1.000,-0.025
17.202,0.043,-0.998,-0.029
17.212,0.045,-0.998,-0.031
17.222,0.037,-1.000,-0.035
17.232,0.035,-0.994,-0.031
17.242,0.033,-0.990,-0.027
17.252,0.031,-0.986,-0.027
17.262,0.035,-0.986,-0.020
17.272,0.033,-0.988,-0.029
17.282,0.027,-1.000,-0.033
17.292,0.020,-1.000,-0.029
17.302,0.023,-1.000,-0.027
17.312,0.025,-1.002,-0.027
17.322,0.010,-1.008,-0.027
17.332,0.008,-1.014,-0.033
17.342,0.006,-1.010,-0.025
17.352,0.008,-1.008,-0.023
17.362,0.002,-1.012,-0.025
17.371,-0.004,-1.012,-0.018
17.381,-0.002,-1.008,-0.018
17.391,-0.012,-1.002,-0.020
17.401,-0.020,-1.004,-0.018
17.411,-0.018,-1.004,-0.018
17.421,-0.020,-0.998,-0.027
17.431,-0.023,-1.002,-0.021
17.441,-0.029,-1.004,-0.020
17.451,-0.023,-1.010,-0.020
17.461,-0.033,-1.006,-0.021
17.471,-0.031,-1.002,-0.016
17.481,-0.035,-0.996,-0.018
17.491,-0.039,-0.992,-0.018
17.501,-0.041,-0.994,-0.012
17.511,-0.043,-1.004,-0.018
17.521,-0.041,-1.018,-0.014
17.530,-0.051,-1.018,-0.018
17.540,-0.055,-1.031,-0.018
17.550,-0.066,-1.049,-0.025
17.560,-0.070,-1.057,-0.029
17.570,-0.072,-1.057,-0.031
17.580,-0.080,-1.023,-0.027
17.590,-0.084,-1.002,-0.012
17.600,-0.084,-0.982,-0.010
17.610,-0.068,-0.973,-0.004
17.620,-0.074,-0.963,-0.004
17.630,-0.070,-0.965,0.006
17.640,-0.064,-0.967,0.006
17.650,-0.072,-0.979,-0.002
17.660,-0.078,-0.988,0.002
17.670,-0.088,-0.996,0.004
17.680,-0.096,-1.000,0.004
17.690,-0.102,-1.000,0.012
17.699,-0.107,-0.998,0.016
17.709,-0.113,-0.994,0.020
17.719,-0.111,-0.994,0.025
17.729,-0.107,-0.996,0.023
17.739,-0.109,-1.006,0.029
17.749,-0.113,-1.018,0.023
17.759,-0.121,-1.016,0.025
17.769,-0.121,-0.998,0.033
17.779,-0.121,-0.996,0.043
17.789,-0.121,-0.998,0.047
17.799,-0.121,-0.986,0.051
17.809,-0.123,-0.986,0.057
17.819,-0.123,-0.980,0.059
17.829,-0.125,-0.980,0.061
17.839,-0.119,-0.982,0.064
17.849,-0.119,-0.984,0.061
17.859,-0.125,-0.982,0.070
17.868,-0.123,-0.977,0.078
17.878,-0.123,-0.980,0.076
17.888,-0.123,-0.979,0.078
17.898,-0.127,-0.973,0.088
17.908,-0.129,-0.980,0.090
17.918,-0.135,-0.984,0.082
17.928,-0.135,-0.990,0.086
17.938,-0.125,-0.992,0.088
17.948,-0.119,-1.002,0.086
17.958,-0.115,-1.008,0.084
17.968,-0.117,-1.012,0.086
17.978,-0.121,-1.012,0.092
17.988,-0.123,-1.008,0.100
17.998,-0.127,-1.010,0.100
18.008,-0.129,-1.023,0.094
18.018,-0.133,-1.023,0.098
18.028,-0.141,-1.027,0.094
18.037,-0.152,-1.025,0.102
18.047,-0.148,-1.016,0.107
18.057,-0.152,-1.010,0.105
18.067,-0.158,-1.010,0.104
18.077,-0.164,-1.008,0.104
18.087,-0.162,-1.010,0.107
18.097,-0.168,-1.031,0.100
18.107,-0.174,-1.035,0.092
18.117,-0.180,-1.031,0.094
18.127,-0.180,-1.031,0.096
18.137,-0.182,-1.031,0.088
18.147,-0.180,-1.021,0.086
18.157,-0.184,-1.014,0.084
18.167,-0.195,-1.008,0.082
18.177,-0.197,-1.002,0.082
18.187,-0.201,-0.996,0.076
18.197,-0.205,-0.996,0.082
18.206,-0.213,-0.982,0.082
18.216,-0.213,-0.984,0.082
18.226,-0.217,-0.984,0.072
18.236,-0.223,-0.982,0.076
18.246,-0.227,-0.986,0.074
18.256,-0.232,-0.992,0.068
18.266,-0.236,-1.006,0.059
18.276,-0.240,-0.998,0.055
18.286,-0.250,-0.998,0.055
18.296,-0.262,-1.002,0.057
18.306,-0.264,-1.004,0.053
18.316,-0.277,-1.006,0.037
18.326,-0.283,-1.004,0.037
18.336,-0.285,-0.994,0.035
18.346,-0.291,-0.994,0.027
18.356,-0.297,-0.988,0.018
18.366,-0.299,-0.977,0.018
18.375,-0.309,-0.963,0.020
18.385,-0.314,-0.961,0.012
18.395,-0.318,-0.957,0.010
18.405,-0.316,-0.951,0.004
18.415,-0.316,-0.947,0.006
18.425,-0.312,-0.945,0.004
18.435,-0.309,-0.938,0.006
18.445,-0.303,-0.930,0.008
18.455,-0.312,-0.930,0.004
18.465,-0.311,-0.934,0.002
18.475,-0.314,-0.930,0.002
18.485,-0.328,-0.932,0.002
18.495,-0.338,-0.934,-0.002
18.505,-0.348,-0.939,-0.006
18.515,-0.354,-0.941,-0.006
18.525,-0.352,-0.945,-0.004
18.534,-0.352,-0.951,-0.008
18.544,-0.350,-0.953,-0.006
18.554,-0.350,-0.951,-0.010
18.564,-0.348,-0.953,-0.006
18.574,-0.340,-0.961,-0.010
18.584,-0.334,-0.955,-0.002
18.594,-0.342,-0.949,0.006
18.604,-0.338,-0.955,0.008
18.614,-0.338,-0.955,-0.002
18.624,-0.346,-0.959,0.002
18.634,-0.357,-0.963,0.002
18.644,-0.365,-0.965,-0.002
18.654,-0.365,-0.979,-0.004
18.664,-0.363,-0.977,-0.002
18.674,-0.357,-0.975,0.010
18.684,-0.357,-0.971,0.006
18.694,-0.359,-0.959,0.008
18.703,-0.354,-0.949,0.014
18.713,-0.348,-0.945,0.016
18.723,-0.344,-0.951,0.016
18.733,-0.346,-0.959,0.010
18.743,-0.342,-0.961,0.014
18.753,-0.334,-0.955,0.016
18.763,-0.330,-0.955,0.010
18.773,-0.336,-0.969,0.000
18.783,-0.330,-0.979,-0.008
18.793,-0.326,-0.973,-0.006
18.803,-0.336,-0.977,0.000
18.813,-0.340,-0.980,-0.004
18.823,-0.328,-0.977,-0.002
18.833,-0.336,-0.971,-0.002
18.843,-0.342,-0.965,0.004
18.853,-0.340,-0.969,0.002
18.863,-0.342,-0.959,-0.002
18.872,-0.338,-0.961,0.006
18.882,-0.336,-0.967,-0.006
18.892,-0.330,-0.969,-0.008
18.902,-0.330,-0.961,-0.010
18.912,-0.344,-0.955,-0.010
18.922,-0.350,-0.957,-0.014
18.932,-0.354,-0.961,-0.012
18.942,-0.361,-0.955,-0.012
18.952,-0.365,-0.955,-0.021
18.962,-0.361,-0.953,-0.018
18.972,-0.363,-0.953,-0.020
18.982,-0.365,-0.951,-0.020
18.992,-0.359,-0.943,-0.018
19.002,-0.361,-0.943,-0.016
19.012,-0.369,-0.939,-0.008
19.022,-0.365,-0.936,-0.012
19.032,-0.369,-0.943,-0.018
19.041,-0.371,-0.951,-0.010
19.051,-0.375,-0.945,-0.016
19.061,-0.381,-0.939,-0.010
19.071,-0.383,-0.938,-0.012
19.081,-0.387,-0.934,-0.018
19.091,-0.396,-0.936,-0.012
19.101,-0.400,-0.934,-0.008
19.111,-0.393,-0.939,-0.010
19.121,-0.398,-0.943,-0.018
19.131,-0.400,-0.951,-0.018
19.141,-0.395,-0.967,-0.018
19.151,-0.387,-0.971,-0.027
19.161,-0.396,-0.906,-0.010
19.171,-0.412,-0.947,0.002
19.181,-0.424,-0.951,-0.033
19.191,-0.416,-0.943,-0.016
19.201,-0.424,-0.930,0.000
19.210,-0.428,-0.934,-0.010
19.220,-0.422,-0.936,-0.018
19.230,-0.420,-0.928,-0.008
19.240,-0.416,-0.922,-0.004
19.250,-0.420,-0.926,-0.006
19.260,-0.430,-0.920,-0.008
19.270,-0.430,-0.920,-0.008
19.280,-0.434,-0.922,-0.010
19.290,-0.439,-0.922,-0.012
19.300,-0.439,-0.924,-0.012
19.310,-0.432,-0.922,-0.012
19.320,-0.426,-0.924,-0.014
19.330,-0.426,-0.926,-0.014
19.340,-0.426,-0.924,-0.010
19.350,-0.430,-0.924,-0.012
19.360,-0.428,-0.920,-0.012
19.370,-0.436,-0.920,-0.012
19.379,-0.432,-0.920,-0.014
19.389,-0.436,-0.924,-0.012
19.399,-0.439,-0.924,-0.014
19.409,-0.445,-0.926,-0.008
19.419,-0.449,-0.924,-0.006
19.429,-0.449,-0.924,-0.016
19.439,-0.445,-0.924,-0.016
19.449,-0.445,-0.918,-0.012
19.459,-0.449,-0.916,-0.012
19.469,-0.449,-0.916,-0.010
19.479,-0.447,-0.916,-0.010
19.489,-0.451,-0.920,-0.010
19.499,-0.457,-0.920,-0.008
19.509,-0.451,-0.918,-0.008
19.519,-0.447,-0.918,-0.010
19.529,-0.451,-0.914,-0.008
19.538,-0.449,-0.912,-0.006
19.548,-0.447,-0.910,-0.006
19.558,-0.445,-0.910,-0.006
19.568,-0.445,-0.912,-0.002
19.578,-0.449,-0.912,-0.004
19.588,-0.449,-0.912,0.000
19.598,-0.453,-0.918,0.004
19.608,-0.459,-0.912,0.002
19.618,-0.455,-0.910,0.002
19.628,-0.447,-0.916,0.000
19.638,-0.439,-0.926,0.000
19.648,-0.430,-0.926,-0.004
19.658,-0.430,-0.928,0.002
19.668,-0.438,-0.926,0.008
19.678,-0.445,-0.926,0.010
19.688,-0.455,-0.924,0.016
19.698,-0.465,-0.918,0.020
19.707,-0.469,-0.918,0.018
19.717,-0.469,-0.922,0.020
19.727,-0.475,-0.926,0.023
19.737,-0.473,-0.928,0.020
19.747,-0.469,-0.928,0.020
19.757,-0.467,-0.930,0.018
19.767,-0.467,-0.930,0.023
19.777,-0.461,-0.928,0.025
19.787,-0.461,-0.924,0.023
19.797,-0.461,-0.920,0.027
19.807,-0.463,-0.920,0.027
19.817,-0.465,-0.920,0.031
19.827,-0.463,-0.916,0.029
19.837,-0.461,-0.916,0.033
19.847,-0.461,-0.918,0.029
19.857,-0.459,-0.920,0.031
19.867,-0.455,-0.924,0.031
19.876,-0.455,-0.920,0.029
19.886,-0.455,-0.918,0.033
19.896,-0.457,-0.918,0.031
19.906,-0.459,-0.920,0.029
19.916,-0.459,-0.920,0.029
19.926,-0.459,-0.920,0.031
19.936,-0.455,-0.922,0.029
19.946,-0.459,-0.918,0.029
19.956,-0.457,-0.912,0.031
19.966,-0.457,-0.922,0.023
19.976,-0.459,-0.916,0.021
19.986,-0.467,-0.914,0.025
19.996,-0.465,-0.914,0.023
20.006,-0.463,-0.912,0.023
20.016,-0.465,-0.910,0.025
20.026,-0.463,-0.918,0.023
20.036,-0.465,-0.920,0.020
20.045,-0.463,-0.918,0.023
20.055,-0.463,-0.922,0.025
20.065,-0.465,-0.920,0.018
20.075,-0.461,-0.920,0.021
20.085,-0.463,-0.922,0.020
20.095,-0.461,-0.918,0.021
20.105,-0.455,-0.918,0.023
20.115,-0.455,-0.918,0.020
20.125,-0.461,-0.912,0.029
20.135,-0.465,-0.910,0.025
20.145,-0.463,-0.906,0.029
20.155,-0.459,-0.908,0.023
20.165,-0.461,-0.910,0.027
20.175,-0.457,-0.912,0.023
20.185,-0.453,-0.922,0.023
20.195,-0.451,-0.916,0.023
20.205,-0.455,-0.920,0.021
20.214,-0.457,-0.920,0.021
20.224,-0.455,-0.922,0.023
20.234,-0.459,-0.922,0.025
20.244,-0.457,-0.916,0.025
20.254,-0.453,-0.920,0.027
20.264,-0.457,-0.920,0.023
20.274,-0.457,-0.924,0.023
20.284,-0.457,-0.918,0.025
20.294,-0.451,-0.912,0.029
20.304,-0.453,-0.910,0.033
20.314,-0.457,-0.914,0.027
20.324,-0.453,-0.912,0.025
20.334,-0.455,-0.920,0.027
20.344,-0.455,-0.920,0.029
20.354,-0.453,-0.922,0.021
20.364,-0.455,-0.926,0.023
20.374,-0.455,-0.922,0.023
20.383,-0.457,-0.920,0.025
20.393,-0.455,-0.920,0.029
20.403,-0.459,-0.922,0.025
20.413,-0.461,-0.916,0.023
20.423,-0.461,-0.914,0.027
20.433,-0.463,-0.916,0.023
20.443,-0.461,-0.914,0.025
20.453,-0.461,-0.916,0.025
20.463,-0.463,-0.912,0.025
20.473,-0.463,-0.916,0.023
20.483,-0.465,-0.916,0.023
20.493,-0.465,-0.916,0.025
20.503,-0.465,-0.916,0.023
20.513,-0.463,-0.912,0.027
20.523,-0.463,-0.918,0.025
20.533,-0.463,-0.914,0.023
20.542,-0.459,-0.918,0.029
20.552,-0.459,-0.914,0.025
20.562,-0.461,-0.910,0.021
20.572,-0.461,-0.916,0.023
20.582,-0.463,-0.912,0.025
20.592,-0.461,-0.916,0.023
20.602,-0.465,-0.918,0.023
20.612,-0.467,-0.916,0.025
20.622,-0.471,-0.916,0.027
20.632,-0.467,-0.912,0.027
20.642,-0.467,-0.916,0.031
20.652,-0.469,-0.916,0.031
20.662,-0.471,-0.918,0.027
20.672,-0.469,-0.908,0.025
20.682,-0.467,-0.910,0.027
20.692,-0.465,-0.914,0.027
20.702,-0.463,-0.924,0.021
20.711,-0.469,-0.920,0.021
20.721,-0.469,-0.912,0.031
20.731,-0.473,-0.910,0.031
20.741,-0.477,-0.916,0.023
20.751,-0.477,-0.916,0.021
20.761,-0.479,-0.912,0.023
20.771,-0.477,-0.916,0.025
20.781,-0.477,-0.914,0.016
20.791,-0.473,-0.914,0.021
20.801,-0.475,-0.912,0.021
20.811,-0.469,-0.908,0.021
20.821,-0.471,-0.904,0.027
20.831,-0.471,-0.904,0.025
20.841,-0.467,-0.906,0.023
20.851,-0.463,-0.910,0.021
20.861,-0.469,-0.910,0.023
20.871,-0.467,-0.910,0.021
20.880,-0.465,-0.912,0.023
20.890,-0.467,-0.914,0.021
20.900,-0.465,-0.914,0.025
20.910,-0.467,-0.910,0.023
20.920,-0.469,-0.908,0.029
20.930,-0.467,-0.912,0.027
20.940,-0.467,-0.920,0.023
20.950,-0.461,-0.916,0.023
20.960,-0.461,-0.912,0.023
20.970,-0.465,-0.912,0.029
20.980,-0.463,-0.914,0.025
20.990,-0.465,-0.916,0.023
21.000,-0.467,-0.914,0.029
21.010,-0.469,-0.914,0.025
21.020,-0.465,-0.914,0.027
21.030,-0.465,-0.918,0.025
21.040,-0.467,-0.916,0.029
21.049,-0.463,-0.916,0.025
21.059,-0.467,-0.916,0.029
21.069,-0.463,-0.912,0.035
21.079,-0.461,-0.916,0.033
21.089,-0.465,-0.914,0.037
21.099,-0.467,-0.914,0.035
21.109,-0.467,-0.918,0.029
21.119,-0.471,-0.916,0.027
21.129,-0.477,-0.914,0.035
21.139,-0.473,-0.918,0.029
21.149,-0.473,-0.916,0.029
21.159,-0.469,-0.910,0.033
21.169,-0.467,-0.912,0.035
21.179,-0.467,-0.914,0.033
21.189,-0.469,-0.912,0.037
21.199,-0.463,-0.912,0.035
21.209,-0.467,-0.912,0.029
21.218,-0.471,-0.914,0.035
21.228,-0.473,-0.916,0.033
21.238,-0.469,-0.916,0.027
21.248,-0.473,-0.916,0.027
21.258,-0.473,-0.910,0.033
21.268,-0.471,-0.912,0.031
21.278,-0.473,-0.912,0.031
21.288,-0.473,-0.914,0.031
21.298,-0.469,-0.912,0.033
21.308,-0.477,-0.912,0.035
21.318,-0.479,-0.912,0.037
21.328,-0.479,-0.910,0.033
21.338,-0.484,-0.910,0.039
21.348,-0.484,-0.910,0.031
21.358,-0.480,-0.916,0.025
21.368,-0.484,-0.914,0.029
21.378,-0.482,-0.908,0.031
21.387,-0.479,-0.900,0.035
21.397,-0.479,-0.904,0.031
21.407,-0.482,-0.908,0.033
21.417,-0.480,-0.896,0.041
21.427,-0.479,-0.896,0.033
21.437,-0.475,-0.904,0.025
21.447,-0.475,-0.912,0.027
21.457,-0.479,-0.914,0.025
21.467,-0.479,-0.916,0.027
21.477,-0.480,-0.912,0.033
21.487,-0.482,-0.914,0.027
21.497,-0.486,-0.916,0.031
21.507,-0.492,-0.912,0.025
21.517,-0.490,-0.906,0.025
21.527,-0.492,-0.904,0.029
21.537,-0.488,-0.904,0.027
21.546,-0.486,-0.902,0.027
21.556,-0.486,-0.900,0.031
21.566,-0.486,-0.900,0.033
21.576,-0.484,-0.898,0.029
21.586,-0.479,-0.902,0.029
21.596,-0.480,-0.898,0.033
21.606,-0.479,-0.902,0.029
21.616,-0.482,-0.904,0.025
21.626,-0.482,-0.908,0.027
21.636,-0.484,-0.908,0.023
21.646,-0.484,-0.908,0.027
21.656,-0.488,-0.908,0.027
21.666,-0.488,-0.908,0.025
21.676,-0.482,-0.902,0.027
21.686,-0.486,-0.904,0.029
21.696,-0.488,-0.904,0.025
21.706,-0.480,-0.910,0.018
21.715,-0.482,-0.902,0.020
21.725,-0.482,-0.902,0.033
21.735,-0.482,-0.902,0.023
21.745,-0.482,-0.904,0.021
21.755,-0.480,-0.904,0.023
21.765,-0.484,-0.908,0.023
21.775,-0.486,-0.906,0.023
21.785,-0.488,-0.906,0.029
21.795,-0.484,-0.908,0.018
21.805,-0.484,-0.906,0.021
21.815,-0.488,-0.906,0.027
21.825,-0.486,-0.902,0.025
21.835,-0.486,-0.906,0.023
21.845,-0.488,-0.902,0.025
21.855,-0.488,-0.904,0.021
21.865,-0.488,-0.906,0.023
21.875,-0.484,-0.904,0.020
21.884,-0.484,-0.902,0.023
21.894,-0.482,-0.900,0.031
21.904,-0.479,-0.904,0.020
21.914,-0.480,-0.904,0.020
21.924,-0.479,-0.904,0.025
21.934,-0.480,-0.906,0.021
21.944,-0.482,-0.908,0.021
21.954,-0.484,-0.906,0.023
21.964,-0.482,-0.910,0.020
21.974,-0.479,-0.914,0.020
21.984,-0.480,-0.910,0.020
21.994,-0.482,-0.908,0.021
22.004,-0.480,-0.908,0.027
22.014,-0.482,-0.906,0.027
22.024,-0.480,-0.910,0.025
22.034,-0.480,-0.906,0.025
22.044,-0.477,-0.910,0.021
22.053,-0.479,-0.908,0.020
22.063,-0.479,-0.910,0.021
22.073,-0.479,-0.910,0.021
22.083,-0.479,-0.908,0.025
22.093,-0.479,-0.906,0.023
22.103,-0.479,-0.906,0.020
22.113,-0.479,-0.908,0.021
22.123,-0.475,-0.906,0.020
22.133,-0.475,-0.908,0.021
22.143,-0.475,-0.906,0.023
22.153,-0.477,-0.912,0.018
22.163,-0.475,-0.912,0.018
22.173,-0.471,-0.906,0.020
22.183,-0.475,-0.904,0.023
22.193,-0.473,-0.908,0.025
22.203,-0.467,-0.914,0.016
22.213,-0.467,-0.914,0.010
22.222,-0.473,-0.914,0.023
22.232,-0.477,-0.906,0.021
22.242,-0.471,-0.920,0.018
22.252,-0.477,-0.916,0.010
22.262,-0.475,-0.912,0.016
22.272,-0.479,-0.908,0.020
22.282,-0.479,-0.908,0.020
22.292,-0.482,-0.906,0.018
22.302,-0.488,-0.908,0.020
22.312,-0.484,-0.904,0.020
22.322,-0.482,-0.900,0.021
22.332,-0.479,-0.902,0.021
22.342,-0.477,-0.902,0.018
22.352,-0.475,-0.904,0.020
22.362,-0.479,-0.906,0.021
22.372,-0.479,-0.904,0.020
22.382,-0.480,-0.906,0.018
22.391,-0.479,-0.908,0.016
22.401,-0.479,-0.910,0.018
22.411,-0.479,-0.912,0.016
22.421,-0.477,-0.914,0.014
22.431,-0.477,-0.910,0.018
22.441,-0.471,-0.906,0.016
22.451,-0.475,-0.912,0.016
22.461,-0.473,-0.914,0.016
22.471,-0.467,-0.910,0.018
22.481,-0.465,-0.902,0.025
22.491,-0.467,-0.904,0.025
22.501,-0.469,-0.908,0.018
22.511,-0.475,-0.910,0.018
22.521,-0.477,-0.912,0.023
22.531,-0.475,-0.914,0.020
22.541,-0.471,-0.914,0.020
22.550,-0.475,-0.914,0.020
22.560,-0.473,-0.912,0.020
22.570,-0.473,-0.910,0.018
22.580,-0.473,-0.908,0.021
22.590,-0.471,-0.910,0.021
22.600,-0.471,-0.910,0.018
22.610,-0.475,-0.914,0.020
22.620,-0.471,-0.910,0.020
22.630,-0.471,-0.912,0.023
22.640,-0.473,-0.912,0.020
22.650,-0.475,-0.910,0.020
22.660,-0.475,-0.906,0.021
22.670,-0.473,-0.908,0.021
22.680,-0.473,-0.912,0.021
22.690,-0.475,-0.912,0.020
22.700,-0.475,-0.914,0.020
22.710,-0.475,-0.912,0.020
22.719,-0.473,-0.916,0.020
22.729,-0.479,-0.912,0.021
22.739,-0.473,-0.910,0.021
22.749,-0.475,-0.908,0.023
22.759,-0.473,-0.910,0.023
22.769,-0.475,-0.910,0.023
22.779,-0.473,-0.912,0.021
22.789,-0.473,-0.910,0.021
22.799,-0.477,-0.914,0.014
22.809,-0.477,-0.914,0.020
22.819,-0.477,-0.912,0.016
22.829,-0.477,-0.908,0.020
22.839,-0.475,-0.910,0.020
22.849,-0.477,-0.912,0.018
22.859,-0.477,-0.908,0.021
22.869,-0.475,-0.908,0.018
22.879,-0.475,-0.908,0.020
22.888,-0.471,-0.910,0.021
22.898,-0.471,-0.910,0.020
22.908,-0.467,-0.910,0.018
22.918,-0.471,-0.908,0.020
22.928,-0.471,-0.912,0.021
22.938,-0.471,-0.910,0.021
22.948,-0.471,-0.910,0.020
22.958,-0.475,-0.912,0.020
22.968,-0.475,-0.916,0.016
22.978,-0.473,-0.914,0.016
22.988,-0.475,-0.914,0.021
22.998,-0.469,-0.910,0.020
23.008,-0.469,-0.910,0.023
23.018,-0.469,-0.910,0.023
23.028,-0.469,-0.912,0.021
23.038,-0.471,-0.906,0.020
23.048,-0.467,-0.902,0.029
23.057,-0.469,-0.910,0.021
23.067,-0.465,-0.916,0.020
23.077,-0.467,-0.918,0.020
23.087,-0.473,-0.916,0.025
23.097,-0.480,-0.912,0.023
23.107,-0.482,-0.922,0.018
23.117,-0.480,-0.922,0.012
23.127,-0.479,-0.918,0.016
23.137,-0.477,-0.912,0.021
23.147,-0.473,-0.906,0.020
23.157,-0.475,-0.908,0.021
23.167,-0.477,-0.906,0.020
23.177,-0.475,-0.904,0.023
23.187,-0.477,-0.904,0.021
23.197,-0.477,-0.902,0.023
23.207,-0.475,-0.910,0.020
23.217,-0.473,-0.908,0.016
23.226,-0.475,-0.914,0.016
23.236,-0.469,-0.908,0.020
23.246,-0.469,-0.912,0.020
23.256,-0.471,-0.914,0.020
23.266,-0.469,-0.912,0.016
23.276,-0.467,-0.914,0.016
23.286,-0.467,-0.914,0.016
23.296,-0.467,-0.918,0.018
23.306,-0.467,-0.906,0.021
23.316,-0.467,-0.908,0.018
23.326,-0.465,-0.912,0.018
23.336,-0.465,-0.910,0.020
23.346,-0.467,-0.904,0.021
23.356,-0.467,-0.900,0.025
23.366,-0.469,-0.908,0.023
23.376,-0.471,-0.914,0.016
23.386,-0.473,-0.916,0.020
23.395,-0.471,-0.918,0.020
23.405,-0.471,-0.920,0.016
23.415,-0.471,-0.916,0.020
23.425,-0.465,-0.916,0.020
23.435,-0.469,-0.912,0.025
23.445,-0.471,-0.910,0.023
23.455,-0.469,-0.912,0.023
23.465,-0.471,-0.912,0.021
23.475,-0.469,-0.910,0.018
23.485,-0.469,-0.912,0.021
23.495,-0.473,-0.910,0.020
23.505,-0.469,-0.908,0.023
23.515,-0.471,-0.904,0.021
23.525,-0.471,-0.906,0.021
23.535,-0.473,-0.908,0.023
23.545,-0.475,-0.908,0.021
23.554,-0.479,-0.910,0.016
23.564,-0.480,-0.914,0.020
23.574,-0.480,-0.916,0.018
23.584,-0.479,-0.914,0.018
23.594,-0.477,-0.916,0.020
23.604,-0.477,-0.910,0.020
23.614,-0.475,-0.910,0.021
23.624,-0.473,-0.904,0.021
23.634,-0.473,-0.902,0.023
23.644,-0.477,-0.906,0.020
23.654,-0.473,-0.908,0.023
23.664,-0.475,-0.914,0.016
23.674,-0.469,-0.912,0.016
23.684,-0.475,-0.914,0.016
23.694,-0.471,-0.912,0.018
23.704,-0.473,-0.910,0.016
23.714,-0.471,-0.910,0.020
23.723,-0.473,-0.910,0.016
23.733,-0.473,-0.908,0.018
23.743,-0.475,-0.908,0.021
23.753,-0.475,-0.910,0.018
23.763,-0.473,-0.906,0.020
23.773,-0.475,-0.910,0.020
23.783,-0.473,-0.912,0.018
23.793,-0.473,-0.908,0.018
23.803,-0.475,-0.908,0.020
23.813,-0.473,-0.912,0.021
23.823,-0.469,-0.916,0.016
23.833,-0.473,-0.912,0.021
23.843,-0.467,-0.912,0.020
23.853,-0.471,-0.910,0.021
23.863,-0.473,-0.906,0.023
23.873,-0.471,-0.906,0.021
23.883,-0.467,-0.916,0.023
23.892,-0.469,-0.914,0.018
23.902,-0.467,-0.916,0.021
23.912,-0.469,-0.918,0.018
23.922,-0.461,-0.924,0.018
23.932,-0.471,-0.918,0.014
23.942,-0.467,-0.912,0.020
23.952,-0.467,-0.910,0.023
23.962,-0.467,-0.916,0.021
23.972,-0.471,-0.910,0.018
23.982,-0.473,-0.918,0.021
23.992,-0.475,-0.916,0.018
24.002,-0.469,-0.906,0.018
24.012,-0.471,-0.912,0.025
24.022,-0.475,-0.918,0.016
24.032,-0.475,-0.914,0.016
24.042,-0.477,-0.906,0.016
24.052,-0.482,-0.908,0.021
24.061,-0.482,-0.906,0.018
24.071,-0.482,-0.898,0.027
24.081,-0.475,-0.904,0.029
24.091,-0.475,-0.902,0.020
24.101,-0.477,-0.904,0.023
24.111,-0.469,-0.898,0.029
24.121,-0.473,-0.906,0.020
24.131,-0.465,-0.914,0.018
24.141,-0.473,-0.914,0.016
24.151,-0.479,-0.916,0.023
24.161,-0.482,-0.910,0.023
24.171,-0.482,-0.914,0.014
24.181,-0.480,-0.922,0.012
24.191,-0.480,-0.920,0.012
24.201,-0.475,-0.910,0.020
24.211,-0.477,-0.908,0.021
24.221,-0.479,-0.908,0.018
24.230,-0.480,-0.908,0.018
24.240,-0.477,-0.904,0.018
24.250,-0.477,-0.906,0.016
24.260,-0.475,-0.898,0.020
24.270,-0.479,-0.900,0.020
24.280,-0.477,-0.904,0.021
24.290,-0.480,-0.906,0.016
24.300,-0.482,-0.910,0.018
24.310,-0.480,-0.910,0.014
24.320,-0.479,-0.914,0.018
24.330,-0.479,-0.908,0.018
24.340,-0.480,-0.910,0.018
24.350,-0.477,-0.906,0.020
24.360,-0.480,-0.912,0.014
24.370,-0.477,-0.906,0.018
24.380,-0.473,-0.906,0.020
24.390,-0.475,-0.904,0.018
24.399,-0.473,-0.906,0.018
24.409,-0.467,-0.906,0.018
24.419,-0.467,-0.900,0.018
24.429,-0.475,-0.904,0.025
24.439,-0.479,-0.910,0.020
24.449,-0.477,-0.916,0.014
24.459,-0.480,-0.920,0.014
24.469,-0.479,-0.916,0.016
24.479,-0.473,-0.914,0.020
24.489,-0.477,-0.914,0.018
24.499,-0.477,-0.910,0.021
24.509,-0.479,-0.902,0.023
24.519,-0.475,-0.906,0.023
24.529,-0.477,-0.906,0.021
24.539,-0.475,-0.908,0.018
24.549,-0.475,-0.908,0.020
24.558,-0.475,-0.912,0.020
24.568,-0.475,-0.906,0.021
24.578,-0.473,-0.908,0.018
24.588,-0.477,-0.914,0.023
24.598,-0.480,-0.910,0.020
24.608,-0.480,-0.908,0.025
24.618,-0.482,-0.906,0.025
24.628,-0.480,-0.912,0.025
24.638,-0.484,-0.912,0.020
24.648,-0.488,-0.910,0.025
24.658,-0.482,-0.910,0.021
24.668,-0.484,-0.912,0.023
24.678,-0.480,-0.912,0.023
24.688,-0.480,-0.908,0.023
24.698,-0.480,-0.908,0.021
24.708,-0.477,-0.906,0.021
24.718,-0.480,-0.902,0.021
24.727,-0.480,-0.906,0.025
24.737,-0.482,-0.904,0.023
24.747,-0.482,-0.902,0.021
24.757,-0.479,-0.898,0.023
24.767,-0.488,-0.904,0.021
24.777,-0.484,-0.904,0.027
24.787,-0.488,-0.900,0.025
24.797,-0.490,-0.906,0.027
24.807,-0.494,-0.908,0.025
24.817,-0.488,-0.916,0.023
24.827,-0.488,-0.914,0.020
24.837,-0.490,-0.920,0.025
24.847,-0.492,-0.920,0.021
24.857,-0.484,-0.922,0.023
24.867,-0.477,-0.918,0.021
24.877,-0.480,-0.922,0.025
24.887,-0.477,-0.922,0.021
24.896,-0.467,-0.930,0.027
24.906,-0.461,-0.928,0.029
24.916,-0.457,-0.930,0.033
24.926,-0.445,-0.934,0.033
24.936,-0.438,-0.936,0.031
24.946,-0.439,-0.941,0.029
24.956,-0.439,-0.949,0.037
24.966,-0.439,-0.955,0.033
24.976,-0.432,-0.957,0.043
24.986,-0.438,-0.953,0.045
24.996,-0.434,-0.955,0.055
25.006,-0.422,-0.947,0.059
25.016,-0.410,-0.943,0.057
25.026,-0.398,-0.941,0.061
25.036,-0.389,-0.941,0.057
25.046,-0.369,-0.947,0.037
25.056,-0.348,-0.963,0.021
25.065,-0.326,-0.977,0.004
25.075,-0.314,-0.982,-0.008
25.085,-0.295,-0.982,-0.006
25.095,-0.283,-0.988,-0.012
25.105,-0.270,-0.992,-0.016
25.115,-0.254,-0.988,-0.027
25.125,-0.244,-0.990,-0.033
25.135,-0.236,-0.998,-0.035
25.145,-0.236,-0.996,-0.045
25.155,-0.230,-0.994,-0.057
25.165,-0.227,-0.979,-0.070
25.175,-0.207,-0.967,-0.076
25.185,-0.209,-0.963,-0.090
25.195,-0.201,-0.969,-0.098
25.205,-0.195,-0.971,-0.104
25.215,-0.191,-0.971,-0.100
25.225,-0.182,-0.955,-0.094
25.234,-0.180,-0.945,-0.086
25.244,-0.172,-0.945,-0.088
25.254,-0.176,-0.939,-0.086
25.264,-0.168,-0.941,-0.082
25.274,-0.164,-0.945,-0.086
25.284,-0.164,-0.943,-0.094
25.294,-0.160,-0.949,-0.100
25.304,-0.154,-0.951,-0.105
25.314,-0.156,-0.961,-0.113
25.324,-0.152,-0.967,-0.109
25.334,-0.152,-0.977,-0.117
25.344,-0.154,-0.980,-0.113
25.354,-0.154,-0.977,-0.109
25.364,-0.150,-0.977,-0.109
25.374,-0.154,-0.973,-0.107
25.384,-0.156,-0.977,-0.105
25.393,-0.164,-0.971,-0.109
25.403,-0.178,-0.971,-0.109
25.413,-0.178,-0.967,-0.111
25.423,-0.182,-0.965,-0.104
25.433,-0.189,-0.961,-0.098
25.443,-0.193,-0.961,-0.096
25.453,-0.201,-0.973,-0.096
25.463,-0.213,-0.977,-0.098
25.473,-0.221,-0.973,-0.088
25.483,-0.242,-0.973,-0.086
25.493,-0.254,-0.973,-0.078
25.503,-0.258,-0.969,-0.074
25.513,-0.266,-0.975,-0.074
25.523,-0.277,-0.975,-0.078
25.533,-0.277,-0.973,-0.072
25.543,-0.287,-0.973,-0.070
25.553,-0.289,-0.986,-0.074
25.562,-0.303,-0.986,-0.070
25.572,-0.309,-0.984,-0.068
25.582,-0.312,-0.977,-0.068
25.592,-0.324,-0.969,-0.062
25.602,-0.332,-0.965,-0.057
25.612,-0.336,-0.951,-0.047
25.622,-0.336,-0.943,-0.037
25.632,-0.340,-0.941,-0.027
25.642,-0.346,-0.938,-0.023
25.652,-0.354,-0.936,-0.018
25.662,-0.361,-0.930,-0.014
25.672,-0.367,-0.930,-0.008
25.682,-0.373,-0.928,-0.010
25.692,-0.385,-0.934,-0.016
25.702,-0.395,-0.938,-0.012
25.712,-0.402,-0.938,-0.010
25.722,-0.410,-0.936,-0.004
25.731,-0.416,-0.932,-0.006
25.741,-0.430,-0.930,0.004
25.751,-0.441,-0.924,0.006
25.761,-0.455,-0.916,0.010
25.771,-0.469,-0.908,0.012
25.781,-0.467,-0.908,0.018
25.791,-0.463,-0.912,0.014
25.801,-0.463,-0.900,0.016
25.811,-0.473,-0.896,0.020
25.821,-0.488,-0.895,0.023
25.831,-0.504,-0.889,0.023
25.841,-0.516,-0.883,0.027
25.851,-0.531,-0.879,0.025
25.861,-0.551,-0.881,0.029
25.871,-0.561,-0.881,0.035
25.881,-0.566,-0.881,0.039
25.891,-0.570,-0.881,0.041
25.900,-0.572,-0.883,0.045
25.910,-0.574,-0.879,0.049
25.920,-0.574,-0.873,0.055
25.930,-0.580,-0.867,0.055
25.940,-0.598,-0.859,0.061
25.950,-0.607,-0.855,0.062
25.960,-0.605,-0.857,0.061
25.970,-0.609,-0.852,0.055
25.980,-0.609,-0.848,0.062
25.990,-0.600,-0.854,0.051
26.000,-0.582,-0.865,0.031
26.010,-0.572,-0.881,0.045
26.020,-0.543,-0.891,0.061
26.030,-0.564,-0.844,0.055
26.040,-0.578,-0.838,0.098
26.050,-0.537,-0.840,0.094
26.060,-0.523,-0.824,0.080
26.069,-0.537,-0.836,0.094
26.079,-0.525,-0.836,0.092
26.089,-0.529,-0.828,0.076
26.099,-0.553,-0.820,0.086
26.109,-0.562,-0.840,0.086
26.119,-0.566,-0.846,0.061
26.129,-0.578,-0.859,0.061
26.139,-0.596,-0.865,0.068
26.149,-0.598,-0.869,0.070
26.159,-0.604,-0.857,0.078
26.169,-0.617,-0.852,0.096
26.179,-0.617,-0.848,0.105
26.189,-0.619,-0.838,0.111
26.199,-0.627,-0.832,0.119
26.209,-0.627,-0.834,0.129
26.219,-0.633,-0.836,0.129
26.229,-0.623,-0.848,0.137
26.238,-0.623,-0.846,0.139
26.248,-0.623,-0.850,0.141
26.258,-0.621,-0.855,0.145
26.268,-0.617,-0.857,0.148
26.278,-0.611,-0.854,0.154
26.288,-0.611,-0.844,0.156
26.298,-0.611,-0.844,0.162
26.308,-0.604,-0.832,0.166
26.318,-0.604,-0.836,0.172
26.328,-0.609,-0.838,0.168
26.338,-0.619,-0.836,0.170
26.348,-0.631,-0.834,0.168
26.358,-0.635,-0.824,0.168
26.368,-0.639,-0.822,0.168
26.378,-0.641,-0.826,0.160
26.388,-0.641,-0.826,0.158
26.397,-0.639,-0.822,0.156
26.407,-0.627,-0.820,0.156
26.417,-0.625,-0.820,0.152
26.427,-0.625,-0.818,0.152
26.437,-0.617,-0.816,0.156
26.447,-0.617,-0.822,0.160
26.457,-0.617,-0.826,0.158
26.467,-0.613,-0.824,0.164
26.477,-0.617,-0.822,0.168
26.487,-0.617,-0.824,0.170
26.497,-0.604,-0.830,0.166
26.507,-0.602,-0.826,0.168
26.517,-0.592,-0.824,0.170
26.527,-0.582,-0.826,0.172
26.537,-0.578,-0.824,0.170
26.547,-0.580,-0.826,0.182
26.557,-0.590,-0.826,0.191
26.566,-0.586,-0.824,0.197
26.576,-0.592,-0.824,0.197
26.586,-0.600,-0.828,0.207
26.596,-0.602,-0.828,0.213
26.606,-0.602,-0.826,0.215
26.616,-0.602,-0.826,0.217
26.626,-0.604,-0.826,0.221
26.636,-0.596,-0.830,0.221
26.646,-0.596,-0.830,0.215
26.656,-0.596,-0.838,0.219
26.666,-0.600,-0.840,0.219
26.676,-0.596,-0.846,0.221
26.686,-0.592,-0.848,0.225
26.696,-0.598,-0.846,0.227
26.706,-0.594,-0.852,0.234
26.716,-0.588,-0.859,0.234
26.726,-0.586,-0.852,0.234
26.735,-0.588,-0.855,0.238
26.745,-0.582,-0.855,0.236
26.755,-0.582,-0.859,0.232
26.765,-0.584,-0.863,0.230
26.775,-0.576,-0.859,0.234
26.785,-0.568,-0.859,0.232
26.795,-0.564,-0.859,0.229
26.805,-0.559,-0.861,0.225
26.815,-0.559,-0.863,0.221
26.825,-0.564,-0.857,0.221
26.835,-0.574,-0.844,0.229
26.845,-0.586,-0.832,0.234
26.855,-0.594,-0.828,0.240
26.865,-0.588,-0.832,0.229
26.875,-0.586,-0.836,0.221
26.885,-0.582,-0.840,0.221
26.895,-0.576,-0.842,0.217
26.904,-0.576,-0.842,0.209
26.914,-0.576,-0.850,0.205
26.924,-0.582,-0.852,0.209
26.934,-0.578,-0.852,0.205
26.944,-0.576,-0.846,0.205
26.954,-0.576,-0.842,0.209
26.964,-0.578,-0.840,0.209
26.974,-0.572,-0.838,0.209
26.984,-0.574,-0.838,0.205
26.994,-0.580,-0.838,0.209
27.004,-0.586,-0.836,0.211
27.014,-0.588,-0.840,0.207
27.024,-0.586,-0.840,0.211
27.034,-0.590,-0.838,0.213
27.044,-0.588,-0.836,0.211
27.054,-0.592,-0.830,0.213
27.064,-0.588,-0.828,0.219
27.073,-0.594,-0.838,0.213
27.083,-0.588,-0.838,0.211
27.093,-0.588,-0.836,0.211
27.103,-0.588,-0.830,0.213
27.113,-0.584,-0.826,0.215
27.123,-0.584,-0.830,0.215
27.133,-0.586,-0.834,0.217
27.143,-0.584,-0.838,0.219
27.153,-0.576,-0.844,0.217
27.163,-0.574,-0.848,0.211
27.173,-0.574,-0.852,0.209
27.183,-0.570,-0.846,0.213
27.193,-0.570,-0.846,0.209
27.203,-0.564,-0.842,0.211
27.213,-0.564,-0.844,0.219
27.223,-0.570,-0.842,0.219
27.233,-0.570,-0.844,0.223
27.242,-0.568,-0.838,0.217
27.252,-0.568,-0.840,0.217
27.262,-0.568,-0.844,0.211
27.272,-0.570,-0.844,0.207
27.282,-0.572,-0.852,0.211
27.292,-0.576,-0.852,0.217
27.302,-0.574,-0.852,0.219
27.312,-0.570,-0.846,0.225
27.322,-0.580,-0.846,0.236
27.332,-0.596,-0.852,0.234
27.342,-0.602,-0.850,0.234
27.352,-0.604,-0.846,0.236
27.362,-0.604,-0.852,0.232
27.372,-0.596,-0.863,0.227
27.382,-0.578,-0.867,0.221
27.392,-0.582,-0.877,0.213
27.401,-0.580,-0.875,0.213
27.411,-0.572,-0.877,0.215
27.421,-0.578,-0.883,0.207
27.431,-0.576,-0.883,0.201
27.441,-0.576,-0.867,0.209
27.451,-0.576,-0.861,0.211
27.461,-0.562,-0.855,0.205
27.471,-0.557,-0.850,0.197
27.481,-0.549,-0.844,0.197
27.491,-0.551,-0.840,0.195
27.501,-0.549,-0.857,0.188
27.511,-0.551,-0.867,0.168
27.521,-0.539,-0.865,0.166
27.531,-0.523,-0.857,0.172
27.541,-0.523,-0.854,0.168
27.551,-0.520,-0.852,0.174
27.561,-0.518,-0.848,0.170
27.570,-0.510,-0.846,0.172
27.580,-0.500,-0.848,0.172
27.590,-0.488,-0.873,0.162
27.600,-0.518,-0.846,0.152
27.610,-0.523,-0.855,0.182
27.620,-0.541,-0.846,0.164
27.630,-0.559,-0.816,0.180
27.640,-0.574,-0.814,0.201
27.650,-0.588,-0.820,0.184
27.660,-0.584,-0.824,0.176
27.670,-0.588,-0.832,0.174
27.680,-0.592,-0.844,0.170
27.690,-0.586,-0.848,0.156
27.700,-0.588,-0.855,0.152
27.710,-0.578,-0.859,0.156
27.720,-0.574,-0.859,0.156
27.730,-0.566,-0.855,0.172
27.739,-0.564,-0.848,0.184
27.749,-0.566,-0.854,0.191
27.759,-0.572,-0.846,0.188
27.769,-0.568,-0.848,0.191
27.779,-0.564,-0.846,0.195
27.789,-0.572,-0.844,0.201
27.799,-0.570,-0.852,0.203
27.809,-0.568,-0.861,0.193
27.819,-0.562,-0.869,0.189
27.829,-0.561,-0.867,0.193
27.839,-0.559,-0.867,0.205
27.849,-0.559,-0.865,0.203
27.859,-0.566,-0.861,0.199
27.869,-0.572,-0.863,0.211
27.879,-0.576,-0.861,0.209
27.889,-0.574,-0.861,0.209
27.899,-0.574,-0.857,0.203
27.908,-0.576,-0.854,0.211
27.918,-0.576,-0.852,0.211
27.928,-0.574,-0.855,0.205
27.938,-0.570,-0.857,0.207
27.948,-0.568,-0.854,0.211
27.958,-0.566,-0.854,0.211
27.968,-0.562,-0.857,0.203
27.978,-0.561,-0.863,0.203
27.988,-0.559,-0.861,0.203
27.998,-0.561,-0.859,0.199
28.008,-0.561,-0.861,0.201
28.018,-0.562,-0.861,0.201
28.028,-0.561,-0.859,0.199
28.038,-0.557,-0.865,0.193
28.048,-0.557,-0.867,0.197
28.058,-0.555,-0.861,0.197
28.068,-0.557,-0.859,0.203
28.077,-0.555,-0.861,0.197
28.087,-0.557,-0.859,0.205
28.097,-0.553,-0.855,0.201
28.107,-0.549,-0.859,0.195
28.117,-0.549,-0.861,0.189
28.127,-0.549,-0.854,0.195
28.137,-0.549,-0.854,0.195
28.147,-0.547,-0.857,0.189
28.157,-0.551,-0.855,0.188
28.167,-0.547,-0.855,0.193
28.177,-0.553,-0.855,0.191
28.187,-0.553,-0.850,0.195
28.197,-0.559,-0.854,0.197
28.207,-0.561,-0.855,0.197
28.217,-0.564,-0.855,0.199
28.227,-0.566,-0.855,0.197
28.237,-0.568,-0.855,0.197
28.246,-0.566,-0.861,0.197
28.256,-0.562,-0.861,0.193
28.266,-0.562,-0.865,0.195
28.276,-0.561,-0.863,0.191
28.286,-0.561,-0.865,0.193
28.296,-0.561,-0.859,0.195
28.306,-0.561,-0.855,0.199
28.316,-0.553,-0.852,0.201
28.326,-0.559,-0.855,0.195
28.336,-0.553,-0.855,0.199
28.346,-0.559,-0.855,0.197
28.356,-0.562,-0.850,0.199
28.366,-0.566,-0.850,0.203
28.376,-0.570,-0.855,0.195
28.386,-0.566,-0.865,0.186
28.396,-0.568,-0.863,0.188
28.405,-0.564,-0.861,0.188
28.415,-0.561,-0.863,0.193
28.425,-0.564,-0.861,0.191
28.435,-0.564,-0.857,0.193
28.445,-0.566,-0.855,0.201
28.455,-0.562,-0.854,0.199
28.465,-0.561,-0.852,0.195
28.475,-0.555,-0.850,0.197
28.485,-0.553,-0.855,0.193
28.495,-0.553,-0.857,0.195
28.505,-0.553,-0.859,0.191
28.515,-0.553,-0.857,0.193
28.525,-0.553,-0.861,0.191
28.535,-0.561,-0.857,0.188
28.545,-0.564,-0.854,0.193
28.555,-0.562,-0.854,0.191
28.565,-0.561,-0.854,0.184
28.574,-0.561,-0.855,0.189
28.584,-0.559,-0.857,0.193
28.594,-0.561,-0.859,0.186
28.604,-0.555,-0.861,0.186
28.614,-0.553,-0.857,0.180
28.624,-0.557,-0.854,0.189
28.634,-0.557,-0.848,0.193
28.644,-0.561,-0.852,0.193
28.654,-0.564,-0.850,0.191
28.664,-0.564,-0.854,0.193
28.674,-0.564,-0.855,0.189
28.684,-0.566,-0.855,0.186
28.694,-0.564,-0.857,0.186
28.704,-0.564,-0.857,0.188
28.714,-0.566,-0.857,0.189
28.724,-0.572,-0.854,0.191
28.734,-0.572,-0.850,0.191
28.743,-0.566,-0.854,0.188
28.753,-0.566,-0.848,0.193
28.763,-0.566,-0.850,0.195
28.773,-0.568,-0.850,0.193
28.783,-0.566,-0.852,0.191
28.793,-0.568,-0.854,0.191
28.803,-0.568,-0.854,0.193
28.813,-0.568,-0.854,0.193
28.823,-0.570,-0.854,0.195
28.833,-0.574,-0.855,0.189
28.843,-0.566,-0.859,0.191
28.853,-0.564,-0.857,0.191
28.863,-0.561,-0.859,0.188
28.873,-0.562,-0.857,0.193
28.883,-0.561,-0.857,0.191
28.893,-0.555,-0.854,0.189
28.903,-0.559,-0.859,0.189
28.912,-0.559,-0.859,0.191
28.922,-0.559,-0.855,0.191
28.932,-0.561,-0.857,0.193
28.942,-0.559,-0.857,0.193
28.952,-0.561,-0.861,0.189
28.962,-0.561,-0.855,0.191
28.972,-0.561,-0.854,0.193
28.982,-0.561,-0.855,0.195
28.992,-0.562,-0.855,0.193
29.002,-0.562,-0.855,0.189
29.012,-0.566,-0.854,0.191
29.022,-0.564,-0.852,0.193
29.032,-0.564,-0.852,0.191
29.042,-0.568,-0.850,0.189
29.052,-0.564,-0.850,0.191
29.062,-0.570,-0.852,0.191
29.072,-0.570,-0.852,0.189
29.081,-0.572,-0.852,0.189
29.091,-0.568,-0.852,0.188
29.101,-0.568,-0.852,0.184
29.111,-0.568,-0.848,0.186
29.121,-0.572,-0.854,0.189
29.131,-0.568,-0.854,0.184
29.141,-0.570,-0.850,0.184
29.151,-0.574,-0.850,0.186
29.161,-0.568,-0.850,0.184
29.171,-0.566,-0.846,0.188
29.181,-0.566,-0.848,0.188
29.191,-0.564,-0.850,0.184
29.201,-0.564,-0.854,0.184
29.211,-0.566,-0.855,0.186
29.221,-0.570,-0.848,0.189
29.231,-0.574,-0.852,0.188
29.241,-0.576,-0.859,0.178
29.250,-0.582,-0.861,0.178
29.260,-0.580,-0.857,0.182
29.270,-0.580,-0.854,0.184
29.280,-0.578,-0.852,0.186
29.290,-0.574,-0.848,0.186
29.300,-0.572,-0.848,0.184
29.310,-0.570,-0.848,0.184
29.320,-0.568,-0.846,0.184
29.330,-0.566,-0.848,0.182
29.340,-0.564,-0.852,0.184
29.350,-0.562,-0.854,0.180
29.360,-0.564,-0.852,0.180
29.370,-0.562,-0.854,0.182
29.380,-0.559,-0.850,0.182
29.390,-0.561,-0.850,0.184
29.400,-0.561,-0.854,0.180
29.409,-0.564,-0.852,0.182
29.419,-0.572,-0.852,0.186
29.429,-0.570,-0.854,0.180
29.439,-0.574,-0.850,0.180
29.449,-0.572,-0.854,0.184
29.459,-0.578,-0.854,0.180
29.469,-0.576,-0.854,0.180
29.479,-0.574,-0.850,0.182
29.489,-0.574,-0.844,0.191
29.499,-0.572,-0.844,0.193
29.509,-0.572,-0.850,0.184
29.519,-0.576,-0.852,0.182
29.529,-0.578,-0.852,0.186
29.539,-0.574,-0.852,0.182
29.549,-0.578,-0.852,0.182
29.559,-0.578,-0.848,0.184
29.569,-0.576,-0.850,0.180
29.578,-0.582,-0.848,0.182
29.588,-0.580,-0.848,0.188
29.598,-0.580,-0.844,0.188
29.608,-0.580,-0.846,0.188
29.618,-0.576,-0.846,0.188
29.628,-0.570,-0.852,0.188
29.638,-0.574,-0.852,0.182
29.648,-0.570,-0.850,0.186
29.658,-0.570,-0.846,0.188
29.668,-0.568,-0.850,0.182
29.678,-0.570,-0.848,0.184
29.688,-0.574,-0.848,0.186
29.698,-0.578,-0.846,0.191
29.708,-0.576,-0.850,0.189
29.718,-0.576,-0.852,0.189
29.728,-0.574,-0.850,0.188
29.738,-0.574,-0.854,0.189
29.747,-0.570,-0.855,0.188
29.757,-0.572,-0.855,0.188
29.767,-0.572,-0.852,0.189
29.777,-0.568,-0.854,0.191
29.787,-0.570,-0.852,0.186
29.797,-0.574,-0.854,0.189
29.807,-0.570,-0.852,0.189
29.817,-0.572,-0.852,0.189
29.827,-0.572,-0.852,0.186
29.837,-0.574,-0.857,0.189
29.847,-0.576,-0.854,0.186
29.857,-0.572,-0.854,0.186
29.867,-0.570,-0.854,0.188
29.877,-0.572,-0.850,0.188
29.887,-0.568,-0.850,0.189
29.897,-0.570,-0.850,0.186
29.907,-0.570,-0.846,0.184
29.916,-0.572,-0.848,0.186
29.926,-0.570,-0.848,0.184
29.936,-0.570,-0.848,0.186
29.946,-0.572,-0.848,0.186
29.956,-0.574,-0.850,0.182
29.966,-0.574,-0.854,0.182
29.976,-0.572,-0.855,0.180
29.986,-0.572,-0.854,0.180
29.996,-0.576,-0.850,0.182
30.006,-0.576,-0.850,0.182
30.016,-0.576,-0.848,0.180
30.026,-0.578,-0.846,0.184
30.036,-0.576,-0.846,0.188
30.046,-0.578,-0.850,0.186
30.056,-0.578,-0.848,0.186
30.066,-0.574,-0.846,0.184
30.076,-0.570,-0.848,0.186
30.085,-0.570,-0.852,0.184
30.095,-0.574,-0.854,0.180
30.105,-0.568,-0.857,0.182
30.115,-0.572,-0.855,0.184
30.125,-0.578,-0.854,0.186
30.135,-0.578,-0.850,0.186
30.145,-0.578,-0.852,0.184
30.155,-0.582,-0.850,0.182
30.165,-0.582,-0.852,0.184
30.175,-0.582,-0.848,0.188
30.185,-0.578,-0.850,0.182
30.195,-0.576,-0.852,0.180
30.205,-0.578,-0.848,0.184
30.215,-0.576,-0.848,0.184
30.225,-0.572,-0.846,0.184
30.235,-0.572,-0.844,0.184
30.245,-0.570,-0.844,0.186
30.254,-0.572,-0.844,0.184
30.264,-0.568,-0.850,0.188
30.274,-0.570,-0.848,0.184
30.284,-0.568,-0.852,0.182
30.294,-0.572,-0.852,0.186
30.304,-0.570,-0.855,0.188
30.314,-0.568,-0.852,0.184
30.324,-0.570,-0.852,0.188
30.334,-0.572,-0.850,0.184
30.344,-0.572,-0.848,0.184
30.354,-0.570,-0.850,0.186
30.364,-0.568,-0.855,0.184
30.374,-0.568,-0.854,0.184
30.384,-0.568,-0.852,0.182
30.394,-0.570,-0.850,0.188
30.404,-0.572,-0.844,0.186
30.413,-0.574,-0.848,0.189
30.423,-0.580,-0.846,0.186
30.433,-0.574,-0.846,0.189
30.443,-0.578,-0.848,0.188
30.453,-0.574,-0.852,0.184
30.463,-0.578,-0.850,0.188
30.473,-0.580,-0.850,0.188
30.483,-0.576,-0.848,0.186
30.493,-0.580,-0.848,0.188
30.503,-0.576,-0.844,0.189
30.513,-0.580,-0.844,0.188
30.523,-0.580,-0.846,0.193
30.533,-0.580,-0.846,0.191
30.543,-0.576,-0.848,0.186
30.553,-0.580,-0.852,0.186
30.563,-0.576,-0.852,0.186
30.573,-0.576,-0.852,0.184
30.582,-0.576,-0.852,0.184
30.592,-0.578,-0.854,0.186
30.602,-0.576,-0.852,0.186
30.612,-0.574,-0.852,0.188
30.622,-0.572,-0.850,0.188
30.632,-0.572,-0.850,0.182
30.642,-0.574,-0.846,0.191
30.652,-0.570,-0.848,0.186
30.662,-0.570,-0.846,0.188
30.672,-0.570,-0.846,0.189
30.682,-0.566,-0.852,0.182
30.692,-0.564,-0.852,0.186
30.702,-0.566,-0.855,0.184
30.712,-0.570,-0.854,0.182
30.722,-0.572,-0.850,0.184
30.732,-0.572,-0.848,0.184
30.742,-0.572,-0.848,0.184
30.751,-0.576,-0.850,0.184
30.761,-0.578,-0.846,0.186
30.771,-0.578,-0.848,0.184
30.781,-0.578,-0.846,0.188
30.791,-0.572,-0.852,0.186
30.801,-0.578,-0.854,0.184
30.811,-0.576,-0.854,0.182
30.821,-0.572,-0.854,0.184
30.831,-0.574,-0.852,0.178
30.841,-0.574,-0.852,0.180
30.851,-0.576,-0.848,0.184
30.861,-0.578,-0.850,0.180
30.871,-0.570,-0.846,0.180
30.881,-0.572,-0.846,0.180
30.891,-0.572,-0.850,0.182
30.901,-0.576,-0.852,0.180
30.911,-0.576,-0.852,0.178
30.920,-0.576,-0.855,0.180
30.930,-0.576,-0.854,0.176
30.940,-0.574,-0.852,0.174
30.950,-0.576,-0.850,0.174
30.960,-0.576,-0.846,0.174
30.970,-0.576,-0.846,0.180
30.980,-0.578,-0.844,0.174
30.990,-0.576,-0.846,0.178
31.000,-0.574,-0.848,0.180
31.010,-0.578,-0.854,0.174
31.020,-0.576,-0.852,0.180
31.030,-0.572,-0.852,0.174
31.040,-0.572,-0.850,0.176
31.050,-0.574,-0.846,0.180
31.060,-0.574,-0.848,0.178
31.070,-0.572,-0.846,0.178
31.080,-0.572,-0.846,0.176
31.089,-0.568,-0.850,0.174
31.099,-0.566,-0.855,0.176
31.109,-0.568,-0.855,0.172
31.119,-0.572,-0.855,0.174
31.129,-0.576,-0.852,0.178
31.139,-0.578,-0.855,0.182
31.149,-0.582,-0.859,0.170
31.159,-0.580,-0.859,0.168
31.169,-0.580,-0.854,0.176
31.179,-0.578,-0.852,0.174
31.189,-0.576,-0.848,0.176
31.199,-0.576,-0.842,0.182
31.209,-0.574,-0.842,0.186
31.219,-0.574,-0.842,0.178
31.229,-0.576,-0.842,0.178
31.239,-0.576,-0.844,0.178
31.249,-0.570,-0.854,0.176
31.258,-0.570,-0.855,0.172
31.268,-0.570,-0.857,0.174
31.278,-0.568,-0.857,0.172
31.288,-0.568,-0.854,0.176
31.298,-0.568,-0.850,0.176
31.308,-0.570,-0.850,0.178
31.318,-0.568,-0.846,0.178
31.328,-0.574,-0.848,0.178
31.338,-0.574,-0.848,0.178
31.348,-0.576,-0.852,0.176
31.358,-0.576,-0.848,0.180
31.368,-0.576,-0.852,0.180
31.378,-0.580,-0.854,0.180
31.388,-0.572,-0.855,0.178
31.398,-0.570,-0.850,0.176
31.408,-0.572,-0.844,0.184
31.417,-0.570,-0.848,0.184
31.427,-0.570,-0.855,0.182
31.437,-0.572,-0.857,0.182
31.447,-0.576,-0.854,0.182
31.457,-0.574,-0.855,0.182
31.467,-0.570,-0.854,0.180
31.477,-0.574,-0.852,0.184
31.487,-0.574,-0.848,0.186
31.497,-0.578,-0.846,0.182
31.507,-0.574,-0.846,0.182
31.517,-0.580,-0.846,0.186
31.527,-0.576,-0.848,0.184
31.537,-0.572,-0.848,0.182
31.547,-0.576,-0.852,0.186
31.557,-0.574,-0.848,0.188
31.567,-0.572,-0.852,0.182
31.577,-0.572,-0.854,0.184
31.586,-0.574,-0.854,0.186
31.596,-0.574,-0.850,0.184
31.606,-0.572,-0.855,0.184
31.616,-0.572,-0.854,0.184
31.626,-0.570,-0.854,0.184
31.636,-0.570,-0.850,0.182
31.646,-0.568,-0.852,0.184
31.656,-0.570,-0.852,0.182
31.666,-0.570,-0.852,0.186
31.676,-0.570,-0.848,0.186
31.686,-0.570,-0.850,0.180
31.696,-0.574,-0.852,0.188
31.706,-0.570,-0.852,0.182
31.716,-0.572,-0.850,0.180
31.726,-0.574,-0.854,0.180
31.736,-0.574,-0.854,0.180
31.746,-0.574,-0.852,0.180
31.755,-0.576,-0.852,0.178
31.765,-0.578,-0.850,0.182
31.775,-0.574,-0.850,0.180
31.785,-0.574,-0.850,0.180
31.795,-0.574,-0.850,0.182
31.805,-0.574,-0.848,0.180
31.815,-0.576,-0.848,0.180
31.825,-0.574,-0.850,0.178
31.835,-0.576,-0.852,0.184
31.845,-0.574,-0.848,0.180
31.855,-0.572,-0.852,0.172
31.865,-0.574,-0.848,0.176
31.875,-0.578,-0.848,0.180
31.885,-0.578,-0.848,0.176
31.895,-0.576,-0.850,0.178
31.905,-0.574,-0.848,0.176
31.915,-0.574,-0.850,0.182
31.924,-0.574,-0.852,0.180
31.934,-0.576,-0.852,0.176
31.944,-0.576,-0.850,0.193
31.954,-0.576,-0.848,0.180
31.964,-0.570,-0.850,0.178
31.974,-0.574,-0.848,0.180
31.984,-0.574,-0.852,0.184
31.994,-0.572,-0.852,0.180
32.004,-0.572,-0.852,0.180
32.014,-0.568,-0.848,0.178
32.024,-0.572,-0.854,0.180
32.034,-0.572,-0.850,0.182
32.044,-0.574,-0.850,0.184
32.054,-0.574,-0.852,0.182
32.064,-0.576,-0.854,0.184
32.074,-0.576,-0.852,0.178
32.084,-0.578,-0.854,0.180
32.093,-0.572,-0.850,0.184
32.103,-0.568,-0.850,0.182
32.113,-0.568,-0.852,0.180
32.123,-0.570,-0.852,0.180
32.133,-0.568,-0.846,0.182
32.143,-0.566,-0.848,0.184
32.153,-0.566,-0.852,0.182
32.163,-0.566,-0.852,0.182
32.173,-0.568,-0.852,0.182
32.183,-0.574,-0.852,0.182
32.193,-0.578,-0.848,0.182
32.203,-0.580,-0.850,0.184
32.213,-0.582,-0.857,0.174
32.223,-0.582,-0.859,0.174
32.233,-0.580,-0.852,0.178
32.243,-0.578,-0.852,0.182
32.253,-0.574,-0.850,0.178
32.262,-0.572,-0.846,0.176
32.272,-0.572,-0.846,0.184
32.282,-0.570,-0.848,0.188
32.292,-0.570,-0.846,0.182
32.302,-0.572,-0.844,0.178
32.312,-0.572,-0.850,0.182
32.322,-0.566,-0.848,0.180
32.332,-0.568,-0.850,0.182
32.342,-0.570,-0.850,0.178
32.352,-0.574,-0.850,0.180
32.362,-0.572,-0.850,0.182
32.372,-0.574,-0.848,0.186
32.382,-0.572,-0.846,0.184
32.392,-0.572,-0.852,0.180
32.402,-0.570,-0.854,0.182
32.412,-0.574,-0.855,0.178
32.421,-0.572,-0.852,0.182
32.431,-0.568,-0.854,0.184
32.441,-0.570,-0.854,0.184
32.451,-0.566,-0.855,0.180
32.461,-0.568,-0.846,0.184
32.471,-0.566,-0.842,0.191
32.481,-0.572,-0.842,0.191
32.491,-0.576,-0.850,0.186
32.501,-0.578,-0.852,0.186
32.511,-0.582,-0.854,0.186
32.521,-0.578,-0.855,0.184
32.531,-0.580,-0.855,0.180
32.541,-0.578,-0.854,0.182
32.551,-0.578,-0.855,0.186
32.561,-0.578,-0.850,0.186
32.571,-0.578,-0.848,0.186
32.581,-0.574,-0.846,0.186
32.590,-0.574,-0.844,0.184
32.600,-0.568,-0.844,0.186
32.610,-0.572,-0.848,0.182
32.620,-0.572,-0.846,0.186
32.630,-0.572,-0.852,0.184
32.640,-0.570,-0.850,0.184
32.650,-0.572,-0.854,0.186
32.660,-0.574,-0.850,0.186
32.670,-0.572,-0.854,0.188
32.680,-0.572,-0.850,0.189
32.690,-0.570,-0.854,0.189
32.700,-0.568,-0.852,0.188
32.710,-0.570,-0.848,0.193
32.720,-0.570,-0.846,0.191
32.730,-0.570,-0.852,0.191
32.740,-0.568,-0.850,0.191
32.750,-0.572,-0.850,0.186
32.759,-0.570,-0.852,0.189
32.769,-0.570,-0.852,0.188
32.779,-0.568,-0.854,0.188
32.789,-0.566,-0.854,0.191
32.799,-0.568,-0.859,0.189
32.809,-0.570,-0.852,0.188
32.819,-0.570,-0.852,0.188
32.829,-0.570,-0.850,0.189
32.839,-0.570,-0.846,0.189
32.849,-0.572,-0.848,0.193
32.859,-0.576,-0.850,0.191
32.869,-0.572,-0.850,0.188
32.879,-0.576,-0.852,0.189
32.889,-0.576,-0.854,0.186
32.899,-0.578,-0.854,0.189
32.909,-0.582,-0.850,0.188
32.919,-0.582,-0.850,0.189
32.928,-0.580,-0.848,0.188
32.938,-0.582,-0.846,0.188
32.948,-0.576,-0.848,0.189
32.958,-0.580,-0.850,0.186
32.968,-0.578,-0.852,0.182
32.978,-0.576,-0.850,0.188
32.988,-0.574,-0.846,0.189
32.998,-0.572,-0.850,0.184
33.008,-0.572,-0.848,0.184
33.018,-0.570,-0.846,0.189
33.028,-0.574,-0.846,0.189
33.038,-0.574,-0.848,0.191
33.048,-0.570,-0.850,0.188
33.058,-0.570,-0.852,0.188
33.068,-0.574,-0.852,0.189
33.078,-0.572,-0.854,0.191
33.088,-0.574,-0.852,0.188
33.097,-0.574,-0.854,0.193
33.107,-0.574,-0.854,0.189
33.117,-0.574,-0.852,0.191
33.127,-0.576,-0.850,0.193
33.137,-0.572,-0.846,0.193
33.147,-0.570,-0.844,0.193
33.157,-0.566,-0.844,0.188
33.167,-0.564,-0.844,0.191
33.177,-0.562,-0.850,0.193
33.187,-0.564,-0.850,0.189
33.197,-0.562,-0.854,0.189
33.207,-0.572,-0.857,0.193
33.217,-0.576,-0.854,0.195
33.227,-0.578,-0.857,0.191
33.237,-0.580,-0.857,0.188
33.247,-0.582,-0.857,0.188
33.257,-0.584,-0.854,0.191
33.266,-0.582,-0.848,0.189
33.276,-0.578,-0.850,0.188
33.286,-0.578,-0.846,0.189
33.296,-0.582,-0.844,0.188
33.306,-0.578,-0.846,0.189
33.316,-0.580,-0.842,0.189
33.326,-0.580,-0.844,0.186
33.336,-0.578,-0.840,0.186
33.346,-0.578,-0.842,0.189
33.356,-0.578,-0.844,0.189
33.366,-0.576,-0.846,0.189
33.376,-0.578,-0.846,0.186
33.386,-0.576,-0.846,0.189
33.396,-0.574,-0.846,0.188
33.406,-0.576,-0.848,0.188
33.416,-0.578,-0.848,0.188
33.425,-0.578,-0.852,0.186
33.435,-0.578,-0.848,0.188
33.445,-0.576,-0.846,0.188
33.455,-0.576,-0.848,0.184
33.465,-0.578,-0.850,0.186
33.475,-0.572,-0.846,0.188
33.485,-0.576,-0.844,0.189
33.495,-0.576,-0.842,0.195
33.505,-0.572,-0.842,0.191
33.515,-0.574,-0.842,0.191
33.525,-0.576,-0.848,0.189
33.535,-0.578,-0.848,0.189
33.545,-0.578,-0.852,0.189
33.555,-0.580,-0.852,0.189
33.565,-0.576,-0.850,0.188
33.575,-0.580,-0.846,0.191
33.585,-0.576,-0.846,0.193
33.594,-0.574,-0.846,0.191
33.604,-0.578,-0.848,0.195
33.614,-0.574,-0.846,0.191
33.624,-0.568,-0.850,0.195
33.634,-0.570,-0.848,0.193
33.644,-0.574,-0.852,0.191
33.654,-0.572,-0.850,0.191
33.664,-0.570,-0.846,0.197
33.674,-0.574,-0.850,0.195
33.684,-0.572,-0.848,0.197
33.694,-0.578,-0.844,0.195
33.704,-0.576,-0.846,0.201
33.714,-0.576,-0.850,0.197
33.724,-0.576,-0.848,0.199
33.734,-0.576,-0.850,0.201
33.744,-0.576,-0.848,0.199
33.754,-0.578,-0.846,0.203
33.763,-0.576,-0.844,0.201
33.773,-0.574,-0.844,0.201
33.783,-0.574,-0.842,0.199
33.793,-0.572,-0.848,0.197
33.803,-0.574,-0.848,0.195
33.813,-0.576,-0.850,0.197
33.823,-0.574,-0.846,0.197
33.833,-0.572,-0.846,0.195
33.843,-0.572,-0.846,0.195
33.853,-0.572,-0.846,0.199
33.863,-0.572,-0.846,0.197
33.873,-0.572,-0.848,0.197
33.883,-0.576,-0.846,0.199
33.893,-0.572,-0.850,0.197
33.903,-0.572,-0.846,0.199
33.913,-0.572,-0.846,0.199
33.923,-0.574,-0.848,0.197
33.932,-0.574,-0.848,0.197
33.942,-0.574,-0.848,0.201
33.952,-0.574,-0.848,0.203
33.962,-0.576,-0.848,0.205
33.972,-0.570,-0.848,0.201
33.982,-0.572,-0.846,0.201
33.992,-0.574,-0.848,0.205
34.002,-0.570,-0.848,0.205
34.012,-0.566,-0.852,0.205
34.022,-0.566,-0.855,0.199
34.032,-0.570,-0.857,0.203
34.042,-0.572,-0.855,0.201
34.052,-0.572,-0.850,0.201
34.062,-0.574,-0.852,0.205
34.072,-0.574,-0.852,0.203
34.082,-0.578,-0.848,0.197
34.092,-0.580,-0.850,0.203
34.101,-0.576,-0.850,0.201
34.111,-0.578,-0.848,0.201
34.121,-0.578,-0.852,0.197
34.131,-0.578,-0.854,0.197
34.141,-0.572,-0.850,0.201
34.151,-0.574,-0.848,0.199
34.161,-0.574,-0.846,0.197
34.171,-0.576,-0.844,0.197
34.181,-0.570,-0.846,0.197
34.191,-0.570,-0.844,0.199
34.201,-0.572,-0.846,0.197
34.211,-0.570,-0.848,0.199
34.221,-0.568,-0.846,0.195
34.231,-0.572,-0.850,0.193
34.241,-0.568,-0.850,0.197
34.251,-0.572,-0.852,0.195
34.261,-0.574,-0.852,0.193
34.270,-0.570,-0.852,0.193
34.280,-0.568,-0.850,0.197
34.290,-0.570,-0.854,0.193
34.300,-0.570,-0.854,0.193
34.310,-0.572,-0.848,0.189
34.320,-0.570,-0.846,0.195
34.330,-0.572,-0.842,0.195
34.340,-0.576,-0.844,0.197
34.350,-0.572,-0.844,0.199
34.360,-0.570,-0.846,0.199
34.370,-0.572,-0.846,0.193
34.380,-0.572,-0.854,0.193
34.390,-0.574,-0.854,0.193
34.400,-0.574,-0.852,0.193
34.410,-0.572,-0.850,0.195
34.420,-0.572,-0.846,0.197
34.429,-0.576,-0.842,0.195
34.439,-0.578,-0.846,0.199
34.449,-0.574,-0.848,0.199
34.459,-0.578,-0.850,0.195
34.469,-0.580,-0.852,0.197
34.479,-0.576,-0.854,0.195
34.489,-0.576,-0.852,0.189
34.499,-0.572,-0.848,0.199
34.509,-0.574,-0.848,0.197
34.519,-0.570,-0.846,0.197
34.529,-0.570,-0.846,0.197
34.539,-0.568,-0.848,0.189
34.549,-0.572,-0.850,0.197
34.559,-0.572,-0.850,0.197
34.569,-0.572,-0.850,0.195
34.579,-0.574,-0.850,0.197
34.589,-0.574,-0.850,0.195
34.598,-0.572,-0.850,0.199
34.608,-0.572,-0.848,0.199
34.618,-0.572,-0.848,0.201
34.628,-0.570,-0.850,0.207
34.638,-0.574,-0.848,0.203
34.648,-0.572,-0.850,0.195
34.658,-0.572,-0.850,0.191
34.668,-0.574,-0.850,0.201
34.678,-0.574,-0.850,0.199
34.688,-0.574,-0.850,0.193
34.698,-0.576,-0.850,0.199
34.708,-0.578,-0.848,0.205
34.718,-0.576,-0.846,0.195
34.728,-0.576,-0.850,0.195
34.738,-0.578,-0.852,0.197
34.748,-0.576,-0.850,0.195
34.758,-0.574,-0.848,0.193
34.767,-0.574,-0.842,0.197
34.777,-0.574,-0.846,0.191
34.787,-0.576,-0.844,0.193
34.797,-0.576,-0.840,0.193
34.807,-0.574,-0.842,0.199
34.817,-0.572,-0.848,0.193
34.827,-0.568,-0.850,0.188
34.837,-0.576,-0.852,0.188
34.847,-0.578,-0.854,0.193
34.857,-0.578,-0.846,0.197
34.867,-0.582,-0.855,0.191
34.877,-0.588,-0.861,0.182
34.887,-0.584,-0.857,0.186
34.897,-0.582,-0.850,0.189
34.907,-0.578,-0.850,0.188
34.917,-0.580,-0.846,0.186
34.927,-0.580,-0.844,0.188
34.936,-0.580,-0.842,0.195
34.946,-0.590,-0.840,0.197
34.956,-0.582,-0.842,0.197
34.966,-0.578,-0.840,0.186
34.976,-0.580,-0.842,0.188
34.986,-0.580,-0.844,0.186
34.996,-0.574,-0.844,0.184
35.006,-0.570,-0.840,0.191
35.016,-0.570,-0.840,0.186
35.026,-0.572,-0.840,0.184
35.036,-0.574,-0.844,0.182
35.046,-0.580,-0.848,0.186
35.056,-0.578,-0.846,0.188
35.066,-0.574,-0.844,0.178
35.076,-0.576,-0.840,0.180
35.086,-0.578,-0.846,0.184
35.096,-0.578,-0.846,0.180
35.105,-0.572,-0.844,0.182
35.115,-0.572,-0.844,0.178
35.125,-0.574,-0.842,0.184
35.135,-0.578,-0.844,0.188
35.145,-0.576,-0.846,0.184
35.155,-0.578,-0.848,0.182
35.165,-0.584,-0.854,0.180
35.175,-0.584,-0.850,0.186
35.185,-0.584,-0.848,0.182
35.195,-0.588,-0.850,0.182
35.205,-0.590,-0.844,0.186
35.215,-0.588,-0.848,0.186
35.225,-0.584,-0.844,0.184
35.235,-0.580,-0.840,0.184
35.245,-0.584,-0.844,0.189
35.255,-0.580,-0.846,0.186
35.265,-0.580,-0.846,0.188
35.274,-0.582,-0.846,0.188
35.284,-0.578,-0.846,0.182
35.294,-0.576,-0.846,0.188
35.304,-0.578,-0.846,0.188
35.314,-0.578,-0.850,0.186
35.324,-0.578,-0.846,0.188
35.334,-0.578,-0.844,0.189
35.344,-0.578,-0.848,0.188
35.354,-0.576,-0.846,0.186
35.364,-0.574,-0.848,0.188
35.374,-0.578,-0.850,0.189
35.384,-0.576,-0.848,0.186
35.394,-0.576,-0.848,0.188
35.404,-0.578,-0.848,0.189
35.414,-0.574,-0.846,0.191
35.424,-0.576,-0.848,0.188
35.433,-0.578,-0.848,0.188
35.443,-0.578,-0.848,0.189
35.453,-0.576,-0.850,0.189
35.463,-0.578,-0.848,0.184
35.473,-0.578,-0.850,0.189
35.483,-0.580,-0.846,0.189
35.493,-0.582,-0.846,0.184
35.503,-0.578,-0.844,0.188
35.513,-0.584,-0.848,0.189
35.523,-0.578,-0.846,0.188
35.533,-0.578,-0.844,0.189
35.543,-0.580,-0.846,0.189
35.553,-0.578,-0.846,0.189
35.563,-0.576,-0.850,0.189
35.573,-0.578,-0.848,0.188
35.583,-0.576,-0.850,0.186
35.593,-0.578,-0.848,0.188
35.602,-0.574,-0.846,0.189
35.612,-0.574,-0.846,0.188
35.622,-0.570,-0.846,0.184
35.632,-0.574,-0.848,0.184
35.642,-0.572,-0.844,0.189
35.652,-0.572,-0.844,0.186
35.662,-0.574,-0.852,0.186
35.672,-0.574,-0.854,0.188
35.682,-0.580,-0.850,0.186
35.692,-0.582,-0.846,0.189
35.702,-0.582,-0.844,0.191
35.712,-0.588,-0.850,0.188
35.722,-0.582,-0.855,0.176
35.732,-0.584,-0.857,0.186
35.742,-0.580,-0.846,0.189
35.752,-0.576,-0.846,0.186
35.762,-0.582,-0.848,0.188
35.771,-0.580,-0.846,0.184
35.781,-0.582,-0.842,0.188
35.791,-0.578,-0.844,0.186
35.801,-0.578,-0.844,0.188
35.811,-0.574,-0.844,0.186
35.821,-0.576,-0.846,0.184
35.831,-0.574,-0.846,0.184
35.841,-0.574,-0.848,0.186
35.851,-0.574,-0.846,0.182
35.861,-0.572,-0.846,0.184
35.871,-0.574,-0.846,0.186
35.881,-0.578,-0.848,0.184
35.891,-0.576,-0.850,0.180
35.901,-0.576,-0.850,0.182
35.911,-0.582,-0.848,0.184
35.921,-0.580,-0.844,0.184
35.931,-0.576,-0.844,0.188
35.940,-0.578,-0.844,0.182
35.950,-0.576,-0.846,0.184
35.960,-0.568,-0.842,0.184
35.970,-0.572,-0.838,0.188
35.980,-0.572,-0.844,0.189
35.990,-0.578,-0.850,0.184
36.000,-0.582,-0.854,0.184
36.010,-0.584,-0.857,0.186
36.020,-0.580,-0.852,0.188
36.030,-0.582,-0.854,0.184
36.040,-0.582,-0.852,0.184
36.050,-0.582,-0.844,0.184
36.060,-0.582,-0.844,0.182
36.070,-0.582,-0.840,0.186
36.080,-0.582,-0.844,0.193
36.090,-0.580,-0.844,0.189
36.100,-0.582,-0.842,0.184
36.109,-0.584,-0.846,0.188
36.119,-0.580,-0.846,0.188
36.129,-0.576,-0.846,0.184
36.139,-0.578,-0.848,0.186
36.149,-0.576,-0.848,0.188
36.159,-0.576,-0.846,0.186
36.169,-0.576,-0.844,0.188
36.179,-0.576,-0.848,0.189
36.189,-0.576,-0.844,0.191
36.199,-0.576,-0.846,0.186
36.209,-0.576,-0.846,0.191
36.219,-0.574,-0.850,0.188
36.229,-0.576,-0.848,0.189
36.239,-0.574,-0.850,0.189
36.249,-0.572,-0.848,0.189
36.259,-0.576,-0.848,0.188
36.269,-0.578,-0.846,0.189
36.278,-0.576,-0.850,0.189
36.288,-0.578,-0.850,0.188
36.298,-0.582,-0.846,0.188
36.308,-0.578,-0.848,0.184
36.318,-0.582,-0.848,0.188
36.328,-0.582,-0.848,0.188
36.338,-0.580,-0.846,0.188
36.348,-0.580,-0.844,0.186
36.358,-0.578,-0.846,0.186
36.368,-0.580,-0.844,0.186
36.378,-0.578,-0.844,0.186
36.388,-0.576,-0.844,0.184
36.398,-0.580,-0.844,0.186
36.408,-0.576,-0.844,0.188
36.418,-0.578,-0.844,0.182
36.428,-0.578,-0.846,0.184
36.437,-0.578,-0.848,0.184
36.447,-0.574,-0.848,0.184
36.457,-0.578,-0.848,0.182
36.467,-0.576,-0.848,0.182
36.477,-0.578,-0.848,0.186
36.487,-0.578,-0.846,0.184
36.497,-0.578,-0.846,0.186
36.507,-0.580,-0.850,0.184
36.517,-0.578,-0.846,0.188
36.527,-0.580,-0.846,0.188
36.537,-0.578,-0.846,0.184
36.547,-0.580,-0.846,0.184
36.557,-0.578,-0.850,0.186
36.567,-0.576,-0.852,0.186
36.577,-0.574,-0.850,0.184
36.587,-0.572,-0.848,0.186
36.597,-0.576,-0.848,0.188
36.606,-0.572,-0.844,0.182
36.616,-0.572,-0.844,0.186
36.626,-0.570,-0.848,0.184
36.636,-0.568,-0.846,0.184
36.646,-0.572,-0.850,0.186
36.656,-0.578,-0.850,0.188
36.666,-0.584,-0.844,0.188
36.676,-0.586,-0.852,0.188
36.686,-0.588,-0.855,0.178
36.696,-0.586,-0.861,0.178
36.706,-0.582,-0.854,0.184
36.716,-0.582,-0.846,0.184
36.726,-0.580,-0.846,0.184
36.736,-0.584,-0.844,0.186
36.746,-0.578,-0.844,0.188
36.756,-0.578,-0.838,0.186
36.766,-0.578,-0.840,0.186
36.775,-0.578,-0.840,0.186
36.785,-0.576,-0.844,0.184
36.795,-0.572,-0.846,0.176
36.805,-0.578,-0.848,0.178
36.815,-0.576,-0.846,0.180
36.825,-0.576,-0.844,0.184
36.835,-0.578,-0.842,0.186
36.845,-0.578,-0.844,0.184
36.855,-0.580,-0.842,0.184
36.865,-0.584,-0.846,0.182
36.875,-0.584,-0.852,0.184
36.885,-0.582,-0.848,0.184
36.895,-0.580,-0.854,0.180
36.905,-0.576,-0.854,0.178
36.915,-0.576,-0.852,0.180
36.925,-0.574,-0.850,0.180
36.935,-0.574,-0.840,0.186
36.944,-0.574,-0.836,0.189
36.954,-0.578,-0.840,0.188
36.964,-0.582,-0.846,0.184
36.974,-0.582,-0.852,0.182
36.984,-0.578,-0.854,0.184
36.994,-0.580,-0.857,0.180
37.004,-0.578,-0.854,0.178
37.014,-0.580,-0.854,0.188
37.024,-0.584,-0.848,0.184
37.034,-0.580,-0.846,0.188
37.044,-0.580,-0.842,0.186
37.054,-0.582,-0.844,0.184
37.064,-0.580,-0.844,0.186
37.074,-0.576,-0.846,0.182
37.084,-0.578,-0.846,0.182
37.094,-0.582,-0.848,0.184
37.104,-0.576,-0.844,0.180
37.113,-0.576,-0.844,0.184
37.123,-0.578,-0.848,0.182
37.133,-0.578,-0.846,0.186
37.143,-0.576,-0.848,0.188
37.153,-0.578,-0.846,0.186
37.163,-0.582,-0.846,0.188
37.173,-0.580,-0.848,0.188
37.183,-0.582,-0.848,0.184
37.193,-0.580,-0.850,0.180
37.203,-0.580,-0.850,0.182
37.213,-0.580,-0.848,0.182
37.223,-0.578,-0.848,0.182
37.233,-0.576,-0.848,0.182
37.243,-0.578,-0.846,0.186
37.253,-0.580,-0.844,0.182
37.263,-0.580,-0.844,0.184
37.273,-0.580,-0.844,0.182
37.282,-0.580,-0.844,0.182
37.292,-0.582,-0.842,0.180
37.302,-0.582,-0.848,0.176
37.312,-0.582,-0.844,0.180
37.322,-0.582,-0.844,0.182
37.332,-0.580,-0.848,0.176
37.342,-0.578,-0.848,0.176
37.352,-0.576,-0.846,0.178
37.362,-0.580,-0.846,0.178
37.372,-0.582,-0.844,0.180
37.382,-0.582,-0.844,0.180
37.392,-0.580,-0.844,0.178
37.402,-0.582,-0.844,0.174
37.412,-0.580,-0.844,0.176
37.422,-0.578,-0.850,0.178
37.432,-0.578,-0.846,0.176
37.441,-0.578,-0.850,0.172
37.451,-0.576,-0.846,0.174
37.461,-0.580,-0.844,0.176
37.471,-0.582,-0.844,0.176
37.481,-0.580,-0.842,0.172
37.491,-0.582,-0.842,0.174
37.501,-0.584,-0.844,0.176
37.511,-0.582,-0.846,0.172
37.521,-0.584,-0.848,0.172
37.531,-0.582,-0.848,0.178
37.541,-0.586,-0.850,0.174
37.551,-0.584,-0.848,0.172
37.561,-0.584,-0.850,0.176
37.571,-0.584,-0.850,0.174
37.581,-0.582,-0.844,0.174
37.591,-0.584,-0.846,0.178
37.601,-0.582,-0.846,0.174
37.610,-0.580,-0.840,0.176
37.620,-0.578,-0.834,0.178
37.630,-0.572,-0.838,0.174
37.640,-0.574,-0.846,0.170
37.650,-0.578,-0.846,0.170
37.660,-0.576,-0.854,0.174
37.670,-0.584,-0.854,0.172
37.680,-0.590,-0.852,0.168
37.690,-0.592,-0.857,0.172
37.700,-0.592,-0.859,0.160
37.710,-0.592,-0.854,0.164
37.720,-0.592,-0.848,0.168
37.730,-0.586,-0.842,0.170
37.740,-0.586,-0.834,0.172
37.750,-0.584,-0.836,0.170
37.760,-0.582,-0.834,0.172
37.770,-0.582,-0.838,0.170
37.779,-0.582,-0.838,0.168
37.789,-0.578,-0.842,0.164
37.799,-0.582,-0.840,0.166
37.809,-0.580,-0.842,0.168
37.819,-0.580,-0.844,0.168
37.829,-0.582,-0.848,0.170
37.839,-0.582,-0.848,0.168
37.849,-0.584,-0.848,0.166
37.859,-0.586,-0.848,0.168
37.869,-0.586,-0.852,0.168
37.879,-0.588,-0.848,0.168
37.889,-0.586,-0.846,0.168
37.899,-0.586,-0.844,0.172
37.909,-0.582,-0.842,0.168
37.919,-0.582,-0.844,0.164
37.929,-0.582,-0.846,0.166
37.939,-0.582,-0.842,0.166
37.948,-0.580,-0.842,0.172
37.958,-0.582,-0.840,0.172
37.968,-0.580,-0.844,0.170
37.978,-0.580,-0.848,0.166
37.988,-0.584,-0.848,0.172
37.998,-0.580,-0.850,0.166
38.008,-0.582,-0.848,0.168
38.018,-0.586,-0.848,0.168
38.028,-0.584,-0.846,0.168
38.038,-0.586,-0.846,0.166
38.048,-0.584,-0.844,0.168
38.058,-0.582,-0.846,0.170
38.068,-0.582,-0.848,0.170
38.078,-0.584,-0.842,0.170
38.088,-0.582,-0.846,0.170
38.098,-0.584,-0.844,0.170
38.108,-0.584,-0.846,0.166
38.117,-0.586,-0.846,0.168
38.127,-0.586,-0.842,0.166
38.137,-0.584,-0.846,0.168
38.147,-0.584,-0.846,0.168
38.157,-0.582,-0.846,0.168
38.167,-0.584,-0.848,0.168
38.177,-0.582,-0.848,0.166
38.187,-0.582,-0.850,0.168
38.197,-0.582,-0.848,0.168
38.207,-0.582,-0.848,0.170
38.217,-0.580,-0.846,0.172
38.227,-0.580,-0.844,0.172
38.237,-0.582,-0.842,0.172
38.247,-0.582,-0.846,0.176
38.257,-0.580,-0.846,0.172
38.267,-0.584,-0.846,0.174
38.277,-0.582,-0.850,0.172
38.286,-0.580,-0.854,0.172
38.296,-0.584,-0.852,0.170
38.306,-0.582,-0.846,0.172
38.316,-0.580,-0.846,0.174
38.326,-0.580,-0.844,0.174
38.336,-0.582,-0.842,0.174
38.346,-0.582,-0.846,0.174
38.356,-0.582,-0.850,0.174
38.366,-0.584,-0.852,0.170
38.376,-0.580,-0.848,0.172
38.386,-0.582,-0.850,0.174
38.396,-0.582,-0.852,0.174
38.406,-0.578,-0.846,0.172
38.416,-0.578,-0.846,0.174
38.426,-0.580,-0.848,0.174
38.436,-0.580,-0.842,0.172
38.445,-0.582,-0.844,0.170
38.455,-0.582,-0.842,0.174
38.465,-0.582,-0.844,0.176
38.475,-0.584,-0.846,0.172
38.485,-0.584,-0.848,0.176
38.495,-0.586,-0.852,0.168
38.505,-0.580,-0.850,0.170
38.515,-0.580,-0.848,0.172
38.525,-0.580,-0.848,0.176
38.535,-0.578,-0.844,0.176
38.545,-0.580,-0.846,0.174
38.555,-0.580,-0.844,0.178
38.565,-0.582,-0.844,0.174
38.575,-0.580,-0.846,0.174
38.585,-0.580,-0.848,0.174
38.595,-0.578,-0.854,0.170
38.605,-0.580,-0.850,0.170
38.614,-0.584,-0.848,0.176
38.624,-0.586,-0.842,0.176
38.634,-0.588,-0.848,0.172
38.644,-0.588,-0.850,0.166
38.654,-0.588,-0.854,0.168
38.664,-0.586,-0.852,0.170
38.674,-0.582,-0.842,0.172
38.684,-0.584,-0.848,0.168
38.694,-0.584,-0.846,0.170
38.704,-0.582,-0.844,0.170
38.714,-0.582,-0.842,0.172
38.724,-0.578,-0.842,0.168
38.734,-0.578,-0.842,0.170
38.744,-0.576,-0.842,0.168
38.754,-0.576,-0.844,0.170
38.764,-0.578,-0.842,0.170
38.774,-0.576,-0.844,0.170
38.783,-0.576,-0.846,0.170
38.793,-0.574,-0.850,0.168
38.803,-0.576,-0.850,0.170
38.813,-0.578,-0.846,0.170
38.823,-0.580,-0.848,0.172
38.833,-0.580,-0.846,0.170
38.843,-0.584,-0.848,0.170
38.853,-0.582,-0.846,0.172
38.863,-0.580,-0.850,0.170
38.873,-0.582,-0.848,0.170
38.883,-0.580,-0.846,0.170
38.893,-0.576,-0.836,0.170
38.903,-0.578,-0.836,0.182
38.913,-0.582,-0.844,0.178
38.923,-0.584,-0.850,0.168
38.933,-0.588,-0.850,0.174
38.943,-0.586,-0.854,0.172
38.952,-0.588,-0.852,0.166
38.962,-0.588,-0.850,0.170
38.972,-0.586,-0.842,0.172
38.982,-0.586,-0.844,0.172
38.992,-0.584,-0.844,0.176
39.002,-0.584,-0.840,0.176
39.012,-0.582,-0.844,0.174
39.022,-0.582,-0.844,0.172
39.032,-0.582,-0.844,0.170
39.042,-0.582,-0.848,0.170
39.052,-0.582,-0.846,0.172
39.062,-0.582,-0.844,0.172
39.072,-0.580,-0.846,0.172
39.082,-0.580,-0.844,0.174
39.092,-0.580,-0.842,0.174
39.102,-0.582,-0.844,0.172
39.112,-0.582,-0.848,0.174
39.121,-0.580,-0.850,0.176
39.131,-0.580,-0.854,0.172
39.141,-0.580,-0.852,0.174
39.151,-0.582,-0.852,0.174
39.161,-0.584,-0.850,0.176
39.171,-0.580,-0.848,0.174
39.181,-0.580,-0.844,0.170
39.191,-0.582,-0.846,0.172
39.201,-0.580,-0.844,0.172
39.211,-0.580,-0.846,0.174
39.221,-0.578,-0.850,0.174
39.231,-0.576,-0.850,0.170
39.241,-0.580,-0.848,0.168
39.251,-0.584,-0.848,0.170
39.261,-0.580,-0.846,0.168
39.271,-0.582,-0.848,0.168
39.281,-0.582,-0.848,0.166
39.290,-0.584,-0.844,0.172
39.300,-0.584,-0.848,0.172
39.310,-0.588,-0.842,0.170
39.320,-0.588,-0.844,0.166
39.330,-0.584,-0.842,0.170
39.340,-0.586,-0.842,0.168
39.350,-0.586,-0.844,0.168
39.360,-0.584,-0.842,0.170
39.370,-0.584,-0.842,0.170
39.380,-0.590,-0.846,0.168
39.390,-0.588,-0.846,0.168
39.400,-0.584,-0.850,0.162
39.410,-0.584,-0.844,0.168
39.420,-0.584,-0.846,0.166
39.430,-0.580,-0.848,0.170
39.440,-0.584,-0.842,0.170
39.449,-0.586,-0.842,0.168
39.459,-0.584,-0.844,0.170
39.469,-0.582,-0.844,0.168
39.479,-0.582,-0.848,0.170
39.489,-0.584,-0.852,0.164
39.499,-0.586,-0.846,0.164
39.509,-0.582,-0.848,0.166
39.519,-0.578,-0.844,0.168
39.529,-0.582,-0.846,0.170
39.539,-0.580,-0.842,0.168
39.549,-0.580,-0.842,0.170
39.559,-0.578,-0.840,0.168
39.569,-0.576,-0.846,0.164
39.579,-0.578,-0.846,0.164
39.589,-0.576,-0.852,0.162
39.599,-0.582,-0.850,0.166
39.609,-0.586,-0.850,0.168
39.618,-0.590,-0.844,0.170
39.628,-0.590,-0.852,0.166
39.638,-0.592,-0.857,0.158
39.648,-0.594,-0.855,0.166
39.658,-0.590,-0.844,0.170
39.668,-0.586,-0.840,0.170
39.678,-0.588,-0.848,0.164
39.688,-0.588,-0.842,0.168
39.698,-0.584,-0.836,0.170
39.708,-0.582,-0.836,0.166
39.718,-0.584,-0.842,0.164
39.728,-0.578,-0.844,0.164
39.738,-0.582,-0.844,0.164
39.748,-0.580,-0.846,0.164
39.758,-0.580,-0.848,0.164
39.768,-0.582,-0.850,0.162
39.778,-0.580,-0.846,0.164
39.787,-0.580,-0.846,0.166
39.797,-0.580,-0.842,0.164
39.807,-0.580,-0.840,0.168
39.817,-0.580,-0.842,0.164
39.827,-0.582,-0.848,0.162
39.837,-0.582,-0.846,0.166
39.847,-0.582,-0.848,0.164
39.857,-0.580,-0.846,0.160
39.867,-0.582,-0.848,0.168
39.877,-0.582,-0.842,0.166
39.887,-0.580,-0.838,0.168
39.897,-0.582,-0.838,0.174
39.907,-0.584,-0.844,0.166
39.917,-0.588,-0.850,0.162
39.927,-0.590,-0.852,0.170
39.937,-0.588,-0.852,0.162
39.947,-0.588,-0.848,0.166
39.956,-0.590,-0.848,0.170
39.966,-0.586,-0.848,0.166
39.976,-0.586,-0.842,0.168
39.986,-0.584,-0.840,0.170
39.996,-0.582,-0.842,0.168
40.006,-0.580,-0.842,0.170
40.016,-0.580,-0.844,0.170
40.026,-0.584,-0.844,0.170
40.036,-0.582,-0.846,0.170
40.046,-0.580,-0.848,0.170
40.056,-0.586,-0.848,0.172
40.066,-0.582,-0.848,0.168
40.076,-0.582,-0.846,0.168
40.086,-0.582,-0.844,0.168
40.096,-0.584,-0.846,0.172
40.106,-0.584,-0.848,0.172
40.116,-0.584,-0.846,0.168
40.125,-0.582,-0.846,0.168
40.135,-0.580,-0.846,0.166
40.145,-0.582,-0.846,0.172
40.155,-0.584,-0.850,0.170
40.165,-0.584,-0.848,0.172
40.175,-0.582,-0.846,0.168
40.185,-0.584,-0.844,0.170
40.195,-0.584,-0.848,0.170
40.205,-0.584,-0.844,0.168
40.215,-0.586,-0.850,0.166
40.225,-0.584,-0.850,0.164
40.235,-0.584,-0.846,0.166
40.245,-0.584,-0.844,0.168
40.255,-0.586,-0.844,0.168
40.265,-0.584,-0.844,0.168
40.275,-0.584,-0.846,0.168
40.285,-0.586,-0.848,0.166
40.294,-0.580,-0.846,0.168
40.304,-0.580,-0.848,0.168
40.314,-0.582,-0.844,0.164
40.324,-0.582,-0.844,0.164
40.334,-0.582,-0.844,0.164
40.344,-0.586,-0.844,0.164
40.354,-0.584,-0.844,0.166
40.364,-0.582,-0.848,0.168
40.374,-0.582,-0.844,0.166
40.384,-0.582,-0.844,0.168
40.394,-0.580,-0.844,0.168
40.404,-0.582,-0.842,0.166
40.414,-0.582,-0.844,0.168
40.424,-0.582,-0.846,0.170
40.434,-0.582,-0.850,0.164
40.444,-0.582,-0.854,0.164
40.453,-0.586,-0.852,0.162
40.463,-0.582,-0.848,0.166
40.473,-0.586,-0.848,0.170
40.483,-0.586,-0.846,0.168
40.493,-0.584,-0.846,0.170
40.503,-0.582,-0.846,0.172
40.513,-0.580,-0.844,0.164
40.523,-0.578,-0.844,0.166
40.533,-0.580,-0.844,0.170
40.543,-0.578,-0.844,0.166
40.553,-0.584,-0.846,0.166
40.563,-0.580,-0.848,0.166
40.573,-0.584,-0.848,0.166
40.583,-0.584,-0.846,0.166
40.593,-0.590,-0.844,0.166
40.603,-0.592,-0.842,0.174
40.613,-0.592,-0.850,0.162
40.622,-0.594,-0.855,0.158
40.632,-0.590,-0.854,0.158
40.642,-0.588,-0.846,0.164
40.652,-0.588,-0.840,0.170
40.662,-0.590,-0.840,0.166
40.672,-0.590,-0.840,0.170
40.682,-0.588,-0.840,0.172
40.692,-0.590,-0.840,0.164
40.702,-0.582,-0.842,0.164
40.712,-0.580,-0.846,0.162
40.722,-0.582,-0.844,0.162
40.732,-0.582,-0.844,0.160
40.742,-0.580,-0.846,0.162
40.752,-0.576,-0.844,0.162
40.762,-0.578,-0.844,0.162
40.772,-0.580,-0.840,0.166
40.782,-0.582,-0.840,0.164
40.791,-0.580,-0.844,0.168
40.801,-0.584,-0.848,0.164
40.811,-0.580,-0.846,0.166
40.821,-0.582,-0.850,0.164
40.831,-0.578,-0.850,0.164
40.841,-0.580,-0.850,0.162
40.851,-0.584,-0.850,0.166
40.861,-0.582,-0.846,0.166
40.871,-0.582,-0.840,0.172
40.881,-0.582,-0.838,0.174
40.891,-0.586,-0.842,0.170
40.901,-0.584,-0.846,0.162
40.911,-0.588,-0.846,0.166
40.921,-0.586,-0.850,0.172
40.931,-0.588,-0.852,0.166
40.941,-0.588,-0.852,0.164
40.951,-0.588,-0.850,0.168
40.960,-0.592,-0.842,0.166
40.970,-0.592,-0.842,0.166
40.980,-0.586,-0.838,0.168
40.990,-0.584,-0.840,0.168
41.000,-0.586,-0.836,0.168
41.010,-0.584,-0.842,0.162
41.020,-0.584,-0.840,0.168
41.030,-0.586,-0.844,0.166
41.040,-0.584,-0.846,0.164
41.050,-0.584,-0.848,0.166
41.060,-0.584,-0.842,0.168
41.070,-0.586,-0.844,0.168
41.080,-0.586,-0.846,0.168
41.090,-0.584,-0.846,0.170
41.100,-0.584,-0.844,0.168
41.110,-0.584,-0.848,0.168
41.120,-0.582,-0.848,0.166
41.129,-0.582,-0.850,0.166
41.139,-0.584,-0.850,0.166
41.149,-0.588,-0.850,0.166
41.159,-0.586,-0.848,0.164
41.169,-0.586,-0.844,0.164
41.179,-0.588,-0.842,0.168
41.189,-0.584,-0.846,0.170
41.199,-0.586,-0.844,0.166
41.209,-0.586,-0.846,0.166
41.219,-0.586,-0.846,0.164
41.229,-0.586,-0.848,0.164
41.239,-0.584,-0.848,0.164
41.249,-0.584,-0.848,0.164
41.259,-0.586,-0.846,0.164
41.269,-0.586,-0.844,0.162
41.279,-0.586,-0.844,0.166
41.289,-0.586,-0.844,0.160
41.298,-0.582,-0.840,0.164
41.308,-0.582,-0.842,0.162
41.318,-0.580,-0.844,0.162
41.328,-0.582,-0.842,0.164
41.338,-0.582,-0.840,0.162
41.348,-0.582,-0.846,0.164
41.358,-0.588,-0.846,0.164
41.368,-0.588,-0.846,0.158
41.378,-0.592,-0.854,0.160
41.388,-0.590,-0.848,0.162
41.398,-0.588,-0.844,0.162
41.408,-0.586,-0.846,0.160
41.418,-0.586,-0.842,0.162
41.428,-0.588,-0.840,0.164
41.438,-0.588,-0.842,0.162
41.448,-0.586,-0.840,0.162
41.457,-0.584,-0.844,0.162
41.467,-0.584,-0.842,0.162
41.477,-0.586,-0.842,0.162
41.487,-0.584,-0.840,0.162
41.497,-0.582,-0.842,0.160
41.507,-0.580,-0.846,0.162
41.517,-0.584,-0.846,0.158
41.527,-0.586,-0.852,0.160
41.537,-0.588,-0.852,0.156
41.547,-0.594,-0.850,0.160
41.557,-0.594,-0.850,0.160
41.567,-0.596,-0.852,0.156
41.577,-0.592,-0.852,0.148
41.587,-0.590,-0.846,0.158
41.597,-0.590,-0.842,0.158
41.607,-0.590,-0.836,0.158
41.617,-0.588,-0.838,0.156
41.626,-0.586,-0.836,0.158
41.636,-0.584,-0.836,0.162
41.646,-0.580,-0.840,0.158
41.656,-0.586,-0.842,0.156
41.666,-0.590,-0.842,0.160
41.676,-0.590,-0.844,0.158
41.686,-0.588,-0.844,0.154
41.696,-0.586,-0.850,0.154
41.706,-0.584,-0.848,0.156
41.716,-0.588,-0.844,0.158
41.726,-0.586,-0.844,0.154
41.736,-0.582,-0.844,0.154
41.746,-0.584,-0.844,0.158
41.756,-0.590,-0.846,0.156
41.766,-0.590,-0.844,0.158
41.776,-0.584,-0.844,0.152
41.786,-0.588,-0.846,0.150
41.795,-0.588,-0.848,0.152
41.805,-0.588,-0.846,0.154
41.815,-0.590,-0.842,0.158
41.825,-0.590,-0.838,0.164
41.835,-0.586,-0.842,0.158
41.845,-0.582,-0.844,0.160
41.855,-0.586,-0.844,0.160
41.865,-0.588,-0.846,0.154
41.875,-0.586,-0.846,0.154
41.885,-0.594,-0.844,0.154
41.895,-0.592,-0.844,0.156
41.905,-0.592,-0.840,0.160
41.915,-0.592,-0.840,0.158
41.925,-0.588,-0.842,0.156
41.935,-0.590,-0.844,0.158
41.945,-0.588,-0.844,0.158
41.955,-0.588,-0.844,0.156
41.964,-0.584,-0.848,0.156
41.974,-0.586,-0.844,0.158
41.984,-0.584,-0.844,0.164
41.994,-0.584,-0.842,0.162
42.004,-0.582,-0.842,0.160
42.014,-0.588,-0.840,0.164
42.024,-0.586,-0.840,0.166
42.034,-0.584,-0.850,0.164
42.044,-0.584,-0.848,0.162
42.054,-0.586,-0.850,0.162
42.064,-0.584,-0.854,0.166
42.074,-0.582,-0.850,0.164
42.084,-0.580,-0.846,0.164
42.094,-0.582,-0.846,0.168
42.104,-0.584,-0.844,0.164
42.114,-0.582,-0.846,0.168
42.124,-0.586,-0.842,0.166
42.133,-0.582,-0.848,0.166
42.143,-0.586,-0.848,0.166
42.153,-0.586,-0.850,0.164
42.163,-0.586,-0.852,0.166
42.173,-0.584,-0.850,0.164
42.183,-0.584,-0.844,0.164
42.193,-0.586,-0.844,0.164
42.203,-0.586,-0.846,0.168
42.213,-0.586,-0.844,0.170
42.223,-0.588,-0.844,0.168
42.233,-0.586,-0.844,0.166
42.243,-0.586,-0.850,0.164
42.253,-0.586,-0.848,0.162
42.263,-0.584,-0.848,0.164
42.273,-0.586,-0.844,0.168
42.283,-0.584,-0.846,0.160
42.293,-0.582,-0.846,0.162
42.302,-0.582,-0.842,0.164
42.312,-0.582,-0.844,0.168
42.322,-0.578,-0.848,0.164
42.332,-0.584,-0.846,0.162
42.342,-0.586,-0.844,0.164
42.352,-0.588,-0.842,0.170
42.362,-0.588,-0.846,0.166
42.372,-0.594,-0.850,0.162
42.382,-0.590,-0.857,0.162
42.392,-0.590,-0.854,0.164
42.402,-0.588,-0.846,0.164
42.412,-0.588,-0.844,0.164
42.422,-0.588,-0.846,0.166
42.432,-0.588,-0.842,0.166
42.442,-0.584,-0.838,0.166
42.452,-0.588,-0.838,0.160
42.461,-0.582,-0.840,0.164
42.471,-0.584,-0.842,0.162
42.481,-0.578,-0.846,0.160
42.491,-0.580,-0.848,0.162
42.501,-0.578,-0.846,0.162
42.511,-0.578,-0.844,0.162
42.521,-0.580,-0.848,0.166
42.531,-0.580,-0.846,0.162
42.541,-0.580,-0.848,0.164
42.551,-0.582,-0.848,0.162
42.561,-0.582,-0.850,0.164
42.571,-0.584,-0.846,0.164
42.581,-0.584,-0.846,0.164
42.591,-0.580,-0.848,0.160
42.601,-0.580,-0.848,0.164
42.611,-0.580,-0.848,0.162
42.621,-0.580,-0.836,0.164
42.630,-0.584,-0.840,0.172
42.640,-0.586,-0.844,0.168
42.650,-0.586,-0.848,0.164
42.660,-0.588,-0.848,0.166
42.670,-0.588,-0.850,0.166
42.680,-0.584,-0.850,0.158
42.690,-0.586,-0.848,0.160
42.700,-0.586,-0.846,0.168
42.710,-0.588,-0.844,0.162
42.720,-0.588,-0.846,0.168
42.730,-0.588,-0.844,0.166
42.740,-0.584,-0.844,0.166
42.750,-0.586,-0.844,0.168
42.760,-0.582,-0.844,0.164
42.770,-0.582,-0.848,0.166
42.780,-0.582,-0.846,0.162
42.790,-0.580,-0.848,0.162
42.799,-0.584,-0.846,0.168
42.809,-0.582,-0.840,0.166
42.819,-0.584,-0.846,0.166
42.829,-0.586,-0.848,0.168
42.839,-0.584,-0.848,0.166
42.849,-0.582,-0.852,0.166
42.859,-0.584,-0.850,0.164
42.869,-0.582,-0.850,0.166
42.879,-0.580,-0.848,0.166
42.889,-0.578,-0.846,0.164
42.899,-0.580,-0.844,0.168
42.909,-0.580,-0.844,0.166
42.919,-0.578,-0.842,0.168
42.929,-0.578,-0.844,0.170
42.939,-0.578,-0.846,0.168
42.949,-0.578,-0.846,0.166
42.959,-0.582,-0.850,0.166
42.968,-0.584,-0.850,0.168
42.978,-0.588,-0.852,0.168
42.988,-0.588,-0.850,0.168
42.998,-0.590,-0.848,0.168
43.008,-0.584,-0.850,0.170
43.018,-0.584,-0.850,0.168
43.028,-0.588,-0.846,0.166
43.038,-0.584,-0.848,0.166
43.048,-0.584,-0.844,0.166
43.058,-0.580,-0.842,0.168
43.068,-0.578,-0.842,0.168
43.078,-0.574,-0.842,0.168
43.088,-0.576,-0.846,0.164
43.098,-0.580,-0.848,0.160
43.108,-0.582,-0.842,0.166
43.118,-0.580,-0.846,0.162
43.128,-0.582,-0.850,0.160
43.137,-0.578,-0.852,0.160
43.147,-0.580,-0.850,0.160
43.157,-0.582,-0.846,0.164
43.167,-0.588,-0.842,0.168
43.177,-0.590,-0.844,0.166
43.187,-0.594,-0.850,0.160
43.197,-0.592,-0.855,0.158
43.207,-0.590,-0.850,0.164
43.217,-0.588,-0.846,0.164
43.227,-0.588,-0.842,0.162
43.237,-0.586,-0.844,0.166
43.247,-0.586,-0.844,0.164
43.257,-0.582,-0.846,0.166
43.267,-0.582,-0.844,0.166
43.277,-0.580,-0.844,0.160
43.287,-0.576,-0.842,0.162
43.297,-0.578,-0.842,0.160
43.306,-0.578,-0.842,0.162
43.316,-0.576,-0.846,0.164
43.326,-0.578,-0.848,0.162
43.336,-0.576,-0.848,0.162
43.346,-0.578,-0.846,0.160
43.356,-0.574,-0.850,0.160
43.366,-0.576,-0.850,0.162
43.376,-0.582,-0.850,0.166
43.386,-0.584,-0.848,0.162
43.396,-0.578,-0.846,0.162
43.406,-0.584,-0.850,0.162
43.416,-0.584,-0.848,0.164
43.426,-0.582,-0.844,0.160
43.436,-0.578,-0.838,0.170
43.446,-0.584,-0.842,0.172
43.456,-0.584,-0.844,0.166
43.465,-0.586,-0.850,0.162
43.475,-0.590,-0.848,0.168
43.485,-0.588,-0.848,0.168
43.495,-0.586,-0.852,0.166
43.505,-0.586,-0.846,0.162
43.515,-0.586,-0.848,0.166
43.525,-0.588,-0.844,0.168
43.535,-0.584,-0.842,0.166
43.545,-0.582,-0.842,0.166
43.555,-0.584,-0.842,0.168
43.565,-0.582,-0.844,0.164
43.575,-0.580,-0.844,0.166
43.585,-0.580,-0.844,0.170
43.595,-0.582,-0.844,0.170
43.605,-0.580,-0.848,0.166
43.615,-0.584,-0.846,0.164
43.625,-0.582,-0.850,0.168
43.634,-0.582,-0.844,0.170
43.644,-0.582,-0.850,0.170
43.654,-0.584,-0.852,0.170
43.664,-0.578,-0.850,0.168
43.674,-0.578,-0.852,0.170
43.684,-0.576,-0.850,0.164
43.694,-0.584,-0.846,0.170
43.704,-0.580,-0.848,0.170
43.714,-0.580,-0.846,0.170
43.724,-0.582,-0.844,0.168
43.734,-0.578,-0.846,0.172
43.744,-0.580,-0.848,0.170
43.754,-0.580,-0.848,0.168
43.764,-0.580,-0.848,0.170
43.774,-0.580,-0.850,0.166
43.784,-0.582,-0.850,0.166
43.794,-0.582,-0.848,0.166
43.803,-0.580,-0.846,0.170
43.813,-0.580,-0.850,0.166
43.823,-0.580,-0.848,0.168
43.833,-0.582,-0.846,0.166
43.843,-0.584,-0.846,0.164
43.853,-0.586,-0.844,0.170
43.863,-0.584,-0.844,0.170
43.873,-0.584,-0.844,0.168
43.883,-0.588,-0.842,0.166
43.893,-0.588,-0.846,0.168
43.903,-0.588,-0.848,0.162
43.913,-0.586,-0.850,0.166
43.923,-0.586,-0.852,0.164
43.933,-0.582,-0.848,0.166
43.943,-0.582,-0.848,0.164
43.953,-0.580,-0.846,0.168
43.963,-0.574,-0.846,0.166
43.972,-0.580,-0.846,0.160
43.982,-0.580,-0.844,0.162
43.992,-0.576,-0.844,0.166
44.002,-0.576,-0.846,0.162
44.012,-0.574,-0.848,0.162
44.022,-0.576,-0.848,0.166
44.032,-0.584,-0.852,0.164
44.042,-0.588,-0.846,0.166
44.052,-0.592,-0.848,0.168
44.062,-0.590,-0.861,0.158
44.072,-0.590,-0.859,0.158
44.082,-0.590,-0.852,0.160
44.092,-0.586,-0.848,0.160
44.102,-0.582,-0.844,0.162
44.112,-0.584,-0.842,0.168
44.122,-0.586,-0.834,0.168
44.132,-0.584,-0.836,0.168
44.141,-0.582,-0.836,0.164
44.151,-0.582,-0.842,0.166
44.161,-0.580,-0.846,0.162
44.171,-0.580,-0.846,0.156
44.181,-0.576,-0.850,0.160
44.191,-0.578,-0.848,0.160
44.201,-0.578,-0.850,0.162
44.211,-0.576,-0.848,0.160
44.221,-0.578,-0.848,0.162
44.231,-0.578,-0.848,0.162
44.241,-0.578,-0.846,0.160
44.251,-0.582,-0.848,0.162
44.261,-0.586,-0.844,0.166
44.271,-0.580,-0.848,0.160
44.281,-0.582,-0.846,0.158
44.291,-0.580,-0.848,0.160
44.300,-0.580,-0.848,0.162
44.310,-0.580,-0.840,0.168
44.320,-0.582,-0.840,0.176
44.330,-0.582,-0.844,0.166
44.340,-0.582,-0.850,0.162
44.350,-0.584,-0.852,0.168
44.360,-0.582,-0.852,0.166
44.370,-0.584,-0.854,0.164
44.380,-0.586,-0.852,0.158
44.390,-0.586,-0.850,0.164
44.400,-0.584,-0.844,0.164
44.410,-0.586,-0.840,0.168
44.420,-0.586,-0.840,0.166
44.430,-0.584,-0.838,0.166
44.440,-0.580,-0.840,0.168
44.450,-0.582,-0.844,0.166
44.460,-0.582,-0.848,0.164
44.469,-0.580,-0.846,0.166
44.479,-0.584,-0.850,0.168
44.489,-0.582,-0.850,0.166
44.499,-0.584,-0.850,0.168
44.509,-0.582,-0.850,0.168
44.519,-0.584,-0.850,0.168
44.529,-0.586,-0.850,0.170
44.539,-0.582,-0.848,0.168
44.549,-0.580,-0.850,0.170
44.559,-0.582,-0.850,0.164
44.569,-0.580,-0.848,0.166
44.579,-0.582,-0.846,0.168
44.589,-0.578,-0.844,0.170
44.599,-0.578,-0.848,0.168
44.609,-0.580,-0.852,0.168
44.619,-0.580,-0.848,0.168
44.629,-0.574,-0.850,0.164
44.638,-0.578,-0.848,0.162
44.648,-0.580,-0.848,0.164
44.658,-0.580,-0.846,0.164
44.668,-0.580,-0.846,0.164
44.678,-0.582,-0.846,0.162
44.688,-0.580,-0.846,0.166
44.698,-0.580,-0.846,0.162
44.708,-0.580,-0.850,0.166
44.718,-0.582,-0.848,0.168
44.728,-0.580,-0.848,0.166
44.738,-0.582,-0.844,0.164
44.748,-0.582,-0.846,0.164
44.758,-0.584,-0.842,0.162
44.768,-0.584,-0.844,0.166
44.778,-0.584,-0.844,0.168
44.788,-0.586,-0.846,0.166
44.798,-0.584,-0.848,0.164
44.807,-0.584,-0.848,0.162
44.817,-0.584,-0.848,0.164
44.827,-0.582,-0.852,0.164
44.837,-0.582,-0.852,0.160
44.847,-0.584,-0.852,0.162
44.857,-0.580,-0.850,0.164
44.867,-0.582,-0.848,0.160
44.877,-0.580,-0.846,0.168
44.887,-0.580,-0.846,0.166
44.897,-0.576,-0.846,0.166
44.907,-0.578,-0.846,0.162
44.917,-0.578,-0.846,0.164
44.927,-0.580,-0.842,0.166
44.937,-0.578,-0.846,0.162
44.947,-0.576,-0.846,0.160
44.957,-0.582,-0.850,0.162
44.967,-0.582,-0.850,0.160
44.976,-0.588,-0.846,0.162
44.986,-0.590,-0.850,0.164
44.996,-0.592,-0.854,0.154
45.006,-0.594,-0.855,0.152
45.016,-0.594,-0.848,0.162
45.026,-0.590,-0.846,0.166
45.036,-0.582,-0.844,0.156
45.046,-0.584,-0.848,0.158
45.056,-0.586,-0.840,0.164
45.066,-0.582,-0.838,0.160
45.076,-0.580,-0.838,0.160
45.086,-0.582,-0.840,0.158
45.096,-0.582,-0.842,0.158
45.106,-0.578,-0.844,0.158
45.116,-0.580,-0.846,0.156
45.126,-0.574,-0.844,0.156
45.136,-0.580,-0.846,0.158
45.145,-0.584,-0.848,0.158
45.155,-0.580,-0.848,0.158
45.165,-0.584,-0.848,0.158
45.175,-0.584,-0.848,0.158
45.185,-0.584,-0.850,0.156
45.195,-0.586,-0.848,0.160
45.205,-0.582,-0.846,0.158
45.215,-0.584,-0.850,0.158
45.225,-0.582,-0.846,0.158
45.235,-0.582,-0.844,0.152
45.245,-0.582,-0.840,0.158
45.255,-0.584,-0.840,0.164
45.265,-0.584,-0.842,0.164
45.275,-0.584,-0.852,0.156
45.285,-0.588,-0.854,0.158
45.295,-0.586,-0.852,0.156
45.305,-0.584,-0.852,0.154
45.314,-0.582,-0.850,0.160
45.324,-0.586,-0.848,0.158
45.334,-0.590,-0.844,0.156
45.344,-0.588,-0.844,0.158
45.354,-0.588,-0.840,0.160
45.364,-0.588,-0.840,0.160
45.374,-0.588,-0.840,0.162
45.384,-0.588,-0.842,0.160
45.394,-0.588,-0.846,0.158
45.404,-0.586,-0.844,0.158
45.414,-0.586,-0.846,0.154
45.424,-0.582,-0.848,0.154
45.434,-0.580,-0.846,0.158
45.444,-0.584,-0.846,0.158
45.454,-0.584,-0.846,0.158
45.464,-0.584,-0.846,0.160
45.473,-0.586,-0.846,0.160
45.483,-0.586,-0.844,0.160
45.493,-0.584,-0.846,0.160
45.503,-0.588,-0.846,0.156
45.513,-0.584,-0.850,0.156
45.523,-0.584,-0.846,0.158
45.533,-0.586,-0.848,0.156
45.543,-0.584,-0.846,0.158
45.553,-0.580,-0.844,0.154
45.563,-0.580,-0.848,0.158
45.573,-0.582,-0.846,0.160
45.583,-0.582,-0.844,0.154
45.593,-0.584,-0.848,0.158
45.603,-0.584,-0.848,0.158
45.613,-0.586,-0.848,0.156
45.623,-0.584,-0.846,0.154
45.633,-0.584,-0.846,0.156
45.642,-0.584,-0.846,0.156
45.652,-0.582,-0.848,0.156
45.662,-0.582,-0.844,0.154
45.672,-0.584,-0.844,0.158
45.682,-0.584,-0.844,0.156
45.692,-0.586,-0.846,0.156
45.702,-0.586,-0.844,0.152
45.712,-0.584,-0.846,0.156
45.722,-0.586,-0.846,0.154
45.732,-0.586,-0.850,0.152
45.742,-0.584,-0.850,0.154
45.752,-0.586,-0.846,0.160
45.762,-0.584,-0.848,0.154
45.772,-0.584,-0.846,0.154
45.782,-0.586,-0.848,0.152
45.792,-0.582,-0.848,0.154
45.802,-0.582,-0.850,0.156
45.811,-0.586,-0.846,0.154
45.821,-0.584,-0.844,0.154
45.831,-0.586,-0.844,0.158
45.841,-0.582,-0.846,0.158
45.851,-0.578,-0.846,0.154
45.861,-0.578,-0.846,0.154
45.871,-0.580,-0.848,0.156
45.881,-0.582,-0.848,0.154
45.891,-0.584,-0.852,0.154
45.901,-0.584,-0.848,0.156
45.911,-0.584,-0.842,0.160
45.921,-0.592,-0.848,0.156
45.931,-0.592,-0.854,0.152
45.941,-0.594,-0.852,0.152
45.951,-0.594,-0.848,0.156
45.961,-0.594,-0.850,0.156
45.971,-0.586,-0.848,0.156
45.980,-0.590,-0.846,0.156
45.990,-0.582,-0.842,0.156
46.000,-0.582,-0.842,0.158
46.010,-0.582,-0.840,0.156
46.020,-0.582,-0.842,0.156
46.030,-0.584,-0.838,0.158
46.040,-0.576,-0.848,0.154
46.050,-0.576,-0.848,0.154
46.060,-0.580,-0.846,0.156
46.070,-0.578,-0.850,0.158
46.080,-0.580,-0.850,0.154
46.090,-0.578,-0.852,0.156
46.100,-0.578,-0.848,0.156
46.110,-0.580,-0.850,0.156
46.120,-0.580,-0.846,0.158
46.130,-0.578,-0.846,0.162
46.140,-0.578,-0.844,0.156
46.149,-0.580,-0.848,0.158
46.159,-0.584,-0.848,0.158
46.169,-0.584,-0.842,0.158
46.179,-0.586,-0.842,0.164
46.189,-0.586,-0.842,0.162
46.199,-0.586,-0.846,0.166
46.209,-0.586,-0.846,0.164
46.219,-0.586,-0.852,0.160
46.229,-0.588,-0.852,0.160
46.239,-0.586,-0.848,0.160
46.249,-0.586,-0.848,0.164
46.259,-0.586,-0.846,0.164
46.269,-0.584,-0.844,0.164
46.279,-0.586,-0.844,0.164
46.289,-0.582,-0.846,0.164
46.299,-0.584,-0.844,0.162
46.308,-0.584,-0.848,0.164
46.318,-0.586,-0.850,0.162
46.328,-0.584,-0.848,0.164
46.338,-0.580,-0.846,0.162
46.348,-0.582,-0.846,0.162
46.358,-0.582,-0.844,0.164
46.368,-0.578,-0.848,0.164
46.378,-0.578,-0.844,0.166
46.388,-0.578,-0.848,0.164
46.398,-0.582,-0.850,0.168
46.408,-0.586,-0.852,0.168
46.418,-0.588,-0.850,0.166
46.428,-0.584,-0.855,0.166
46.438,-0.584,-0.854,0.164
46.448,-0.582,-0.850,0.168
46.458,-0.580,-0.848,0.164
46.468,-0.578,-0.850,0.166
46.477,-0.580,-0.842,0.164
46.487,-0.578,-0.844,0.164
46.497,-0.578,-0.844,0.162
46.507,-0.576,-0.844,0.162
46.517,-0.578,-0.848,0.162
46.527,-0.580,-0.848,0.160
46.537,-0.580,-0.850,0.160
46.547,-0.582,-0.852,0.160
46.557,-0.584,-0.848,0.160
46.567,-0.586,-0.848,0.162
46.577,-0.584,-0.846,0.164
46.587,-0.586,-0.850,0.160
46.597,-0.586,-0.850,0.160
46.607,-0.586,-0.848,0.162
46.617,-0.586,-0.848,0.160
46.627,-0.586,-0.846,0.160
46.637,-0.580,-0.846,0.160
46.646,-0.582,-0.844,0.162
46.656,-0.582,-0.844,0.156
46.666,-0.580,-0.842,0.158
46.676,-0.578,-0.846,0.160
46.686,-0.582,-0.844,0.160
46.696,-0.580,-0.846,0.156
46.706,-0.582,-0.850,0.160
46.716,-0.584,-0.848,0.160
46.726,-0.582,-0.852,0.162
46.736,-0.582,-0.848,0.160
46.746,-0.584,-0.852,0.162
46.756,-0.582,-0.854,0.164
46.766,-0.582,-0.850,0.160
46.776,-0.580,-0.848,0.164
46.786,-0.576,-0.842,0.158
46.796,-0.578,-0.846,0.160
46.806,-0.580,-0.842,0.168
46.815,-0.578,-0.842,0.164
46.825,-0.576,-0.848,0.160
46.835,-0.576,-0.850,0.156
46.845,-0.574,-0.852,0.156
46.855,-0.576,-0.850,0.160
46.865,-0.584,-0.844,0.160
46.875,-0.590,-0.846,0.162
46.885,-0.590,-0.855,0.156
46.895,-0.592,-0.857,0.154
46.905,-0.592,-0.854,0.160
46.915,-0.588,-0.848,0.162
46.925,-0.588,-0.846,0.162
46.935,-0.590,-0.842,0.162
46.945,-0.586,-0.842,0.162
46.955,-0.586,-0.842,0.160
46.965,-0.584,-0.842,0.160
46.975,-0.582,-0.842,0.160
46.984,-0.578,-0.842,0.156
46.994,-0.574,-0.844,0.154
47.004,-0.572,-0.846,0.156
47.014,-0.574,-0.848,0.154
47.024,-0.574,-0.848,0.156
47.034,-0.580,-0.844,0.158
47.044,-0.576,-0.846,0.156
47.054,-0.580,-0.846,0.156
47.064,-0.580,-0.850,0.160
47.074,-0.580,-0.846,0.158
47.084,-0.582,-0.846,0.158
47.094,-0.584,-0.846,0.158
47.104,-0.582,-0.848,0.160
47.114,-0.584,-0.848,0.160
47.124,-0.584,-0.854,0.164
47.134,-0.582,-0.848,0.162
47.144,-0.580,-0.838,0.168
47.153,-0.582,-0.842,0.168
47.163,-0.584,-0.850,0.162
47.173,-0.582,-0.852,0.162
47.183,-0.586,-0.854,0.162
47.193,-0.586,-0.852,0.164
47.203,-0.582,-0.857,0.154
47.213,-0.586,-0.852,0.156
47.223,-0.584,-0.848,0.158
47.233,-0.582,-0.848,0.160
47.243,-0.586,-0.842,0.166
47.253,-0.584,-0.842,0.164
47.263,-0.582,-0.842,0.162
47.273,-0.584,-0.846,0.162
47.283,-0.582,-0.848,0.160
47.293,-0.586,-0.848,0.160
47.303,-0.584,-0.850,0.162
47.312,-0.582,-0.846,0.160
47.322,-0.584,-0.846,0.160
47.332,-0.586,-0.842,0.166
47.342,-0.588,-0.842,0.166
47.352,-0.584,-0.850,0.164
47.362,-0.584,-0.850,0.160
47.372,-0.582,-0.852,0.162
47.382,-0.580,-0.852,0.162
47.392,-0.580,-0.854,0.160
47.402,-0.580,-0.848,0.160
47.412,-0.578,-0.846,0.160
47.422,-0.580,-0.844,0.162
47.432,-0.576,-0.844,0.164
47.442,-0.578,-0.844,0.164
47.452,-0.578,-0.846,0.160
47.462,-0.580,-0.850,0.160
47.472,-0.580,-0.854,0.156
47.481,-0.584,-0.852,0.158
47.491,-0.580,-0.852,0.158
47.501,-0.584,-0.850,0.158
47.511,-0.584,-0.846,0.158
47.521,-0.582,-0.846,0.158
47.531,-0.580,-0.842,0.162
47.541,-0.582,-0.846,0.160
47.551,-0.582,-0.846,0.162
47.561,-0.576,-0.848,0.160
47.571,-0.578,-0.850,0.158
47.581,-0.580,-0.850,0.156
47.591,-0.584,-0.852,0.158
47.601,-0.580,-0.850,0.160
47.611,-0.580,-0.850,0.158
47.621,-0.580,-0.848,0.160
47.631,-0.584,-0.846,0.158
47.641,-0.582,-0.844,0.160
47.650,-0.580,-0.844,0.158
47.660,-0.580,-0.846,0.162
47.670,-0.578,-0.848,0.158
47.680,-0.580,-0.850,0.158
47.690,-0.578,-0.848,0.162
47.700,-0.578,-0.850,0.162
47.710,-0.582,-0.848,0.158
47.720,-0.586,-0.846,0.164
47.730,-0.588,-0.846,0.164
47.740,-0.588,-0.850,0.158
47.750,-0.586,-0.848,0.162
47.760,-0.590,-0.850,0.160
47.770,-0.584,-0.850,0.162
47.780,-0.584,-0.850,0.162
47.790,-0.586,-0.848,0.156
47.800,-0.584,-0.850,0.158
47.810,-0.580,-0.850,0.158
47.819,-0.578,-0.846,0.160
47.829,-0.580,-0.846,0.160
47.839,-0.576,-0.844,0.156
47.849,-0.578,-0.842,0.160
47.859,-0.578,-0.848,0.158
47.869,-0.574,-0.846,0.154
47.879,-0.572,-0.848,0.158
47.889,-0.572,-0.852,0.158
47.899,-0.580,-0.854,0.154
47.909,-0.586,-0.852,0.154
47.919,-0.588,-0.850,0.160
47.929,-0.588,-0.854,0.150
47.939,-0.590,-0.857,0.148
47.949,-0.590,-0.852,0.156
47.959,-0.588,-0.848,0.158
47.969,-0.582,-0.848,0.154
47.979,-0.582,-0.846,0.158
47.988,-0.584,-0.842,0.158
47.998,-0.582,-0.842,0.154
48.008,-0.584,-0.842,0.154
48.018,-0.582,-0.844,0.152
48.028,-0.580,-0.846,0.156
48.038,-0.578,-0.846,0.154
48.048,-0.578,-0.848,0.152
48.058,-0.576,-0.850,0.152
48.068,-0.576,-0.848,0.156
48.078,-0.576,-0.850,0.152
48.088,-0.580,-0.854,0.154
48.098,-0.586,-0.850,0.152
48.108,-0.586,-0.848,0.154
48.118,-0.588,-0.846,0.156
48.128,-0.592,-0.848,0.156
48.138,-0.592,-0.846,0.154
48.148,-0.598,-0.844,0.148
48.157,-0.602,-0.850,0.148
48.167,-0.602,-0.854,0.148
48.177,-0.602,-0.854,0.148
48.187,-0.600,-0.842,0.158
48.197,-0.596,-0.840,0.160
48.207,-0.594,-0.848,0.152
48.217,-0.590,-0.846,0.154
48.227,-0.592,-0.838,0.152
48.237,-0.584,-0.842,0.158
48.247,-0.590,-0.836,0.148
48.257,-0.588,-0.838,0.150
48.267,-0.592,-0.838,0.152
48.277,-0.590,-0.836,0.150
48.287,-0.588,-0.836,0.150
48.297,-0.588,-0.832,0.152
48.307,-0.584,-0.834,0.152
48.316,-0.580,-0.834,0.152
48.326,-0.580,-0.834,0.150
48.336,-0.580,-0.834,0.148
48.346,-0.588,-0.834,0.152
48.356,-0.586,-0.840,0.154
48.366,-0.586,-0.840,0.148
48.376,-0.590,-0.842,0.152
48.386,-0.590,-0.840,0.154
48.396,-0.592,-0.842,0.154
48.406,-0.590,-0.842,0.150
48.416,-0.596,-0.842,0.146
48.426,-0.604,-0.842,0.152
48.436,-0.607,-0.840,0.146
48.446,-0.596,-0.848,0.154
48.456,-0.605,-0.832,0.150
48.466,-0.600,-0.852,0.150
48.476,-0.605,-0.840,0.143
48.485,-0.594,-0.842,0.156
48.495,-0.590,-0.844,0.148
48.505,-0.586,-0.848,0.146
48.515,-0.588,-0.848,0.148
48.525,-0.588,-0.844,0.148
48.535,-0.588,-0.844,0.146
48.545,-0.590,-0.844,0.148
48.555,-0.596,-0.840,0.150
48.565,-0.598,-0.838,0.150
48.575,-0.594,-0.834,0.150
48.585,-0.594,-0.836,0.148
48.595,-0.590,-0.842,0.146
48.605,-0.592,-0.842,0.146
48.615,-0.590,-0.840,0.145
48.625,-0.590,-0.838,0.146
48.635,-0.592,-0.834,0.154
48.645,-0.592,-0.838,0.154
48.654,-0.594,-0.838,0.152
48.664,-0.594,-0.844,0.148
48.674,-0.594,-0.850,0.146
48.684,-0.596,-0.850,0.146
48.694,-0.596,-0.844,0.146
48.704,-0.596,-0.840,0.148
48.714,-0.592,-0.838,0.156
48.724,-0.594,-0.838,0.154
48.734,-0.592,-0.838,0.152
48.744,-0.590,-0.844,0.148
48.754,-0.592,-0.842,0.148
48.764,-0.590,-0.844,0.148
48.774,-0.592,-0.842,0.150
48.784,-0.592,-0.846,0.154
48.794,-0.590,-0.844,0.150
48.804,-0.594,-0.844,0.150
48.814,-0.596,-0.844,0.150
48.823,-0.590,-0.846,0.150
48.833,-0.592,-0.844,0.146
48.843,-0.588,-0.844,0.154
48.853,-0.584,-0.838,0.152
48.863,-0.590,-0.836,0.152
48.873,-0.588,-0.836,0.150
48.883,-0.586,-0.838,0.154
48.893,-0.588,-0.842,0.148
48.903,-0.588,-0.844,0.150
48.913,-0.586,-0.844,0.148
48.923,-0.592,-0.848,0.148
48.933,-0.594,-0.846,0.152
48.943,-0.598,-0.848,0.150
