df_hash,22ZHK4.Z7HMM1
device,HZ2X61
project_hash,29R7
project_name,istanbul_aydin_university
person_hash,29R7.7235
person_label,v141
date_time_start,2026-04-14_16-53-01.848000_+03
date_time_start_unix,1776167581.848
date_time_end,2026-04-14_17-01-17.693000_+03
length_difference_noticed,no

time,acc_x,acc_y,acc_z
5.962,-0.238,0.957,-0.027
5.972,-0.234,0.979,-0.035
5.982,-0.236,0.980,-0.039
5.992,-0.234,0.979,-0.031
6.002,-0.225,0.951,-0.043
6.012,-0.209,0.910,-0.039
6.021,-0.207,0.879,-0.049
6.031,-0.232,0.875,-0.053
6.041,-0.254,0.854,-0.041
6.051,-0.258,0.850,-0.020
6.061,-0.227,0.869,-0.027
6.071,-0.215,0.889,-0.051
6.081,-0.189,0.906,-0.037
6.091,-0.182,0.910,-0.031
6.101,-0.191,0.930,-0.027
6.111,-0.186,0.955,-0.012
6.121,-0.195,0.975,-0.010
6.131,-0.195,0.986,0.002
6.141,-0.193,0.965,0.018
6.150,-0.189,0.990,0.031
6.160,-0.217,0.969,0.027
6.170,-0.217,0.943,0.059
6.180,-0.230,0.932,0.068
6.190,-0.254,0.936,0.066
6.200,-0.262,0.943,0.072
6.210,-0.234,0.961,0.076
6.220,-0.199,0.980,0.078
6.230,-0.160,0.992,0.072
6.240,-0.121,0.996,0.076
6.250,-0.121,0.996,0.076
6.260,-0.080,1.000,0.072
6.270,-0.039,0.990,0.059
6.280,-0.002,0.980,0.068
6.289,0.020,0.955,0.064
6.299,0.021,0.932,0.057
6.309,0.027,0.920,0.053
6.319,0.025,0.924,0.047
6.329,0.023,0.930,0.041
6.339,0.010,0.928,0.049
6.349,0.012,0.934,0.062
6.359,0.018,0.924,0.064
6.369,-0.002,0.908,0.066
6.379,-0.025,0.893,0.078
6.389,-0.035,0.900,0.078
6.399,-0.037,0.891,0.066
6.409,-0.039,0.887,0.082
6.418,-0.033,0.904,0.082
6.428,-0.020,0.916,0.084
6.438,-0.014,0.922,0.088
6.448,-0.021,0.926,0.092
6.458,-0.010,0.926,0.086
6.468,-0.023,0.930,0.078
6.478,-0.045,0.930,0.088
6.488,-0.053,0.934,0.094
6.498,-0.062,0.943,0.096
6.508,-0.076,0.977,0.098
6.518,-0.080,1.006,0.096
6.528,-0.066,1.012,0.096
6.538,-0.057,0.998,0.098
6.547,-0.062,0.988,0.090
6.557,-0.070,0.979,0.082
6.567,-0.080,0.973,0.082
6.577,-0.084,0.959,0.078
6.587,-0.096,0.959,0.074
6.597,-0.096,0.949,0.078
6.607,-0.090,0.949,0.078
6.617,-0.082,0.961,0.070
6.627,-0.076,0.963,0.076
6.637,-0.078,0.934,0.076
6.647,-0.082,0.912,0.080
6.657,-0.084,0.900,0.090
6.667,-0.090,0.891,0.084
6.676,-0.098,0.883,0.084
6.686,-0.098,0.883,0.086
6.696,-0.092,0.891,0.084
6.706,-0.066,0.891,0.080
6.716,-0.051,0.898,0.094
6.726,-0.039,0.908,0.094
6.736,-0.039,0.924,0.096
6.746,-0.045,0.934,0.094
6.756,-0.055,0.945,0.100
6.766,-0.045,0.947,0.100
6.776,-0.041,0.951,0.098
6.786,-0.041,0.953,0.102
6.796,-0.037,0.967,0.105
6.805,-0.041,0.977,0.107
6.815,-0.041,0.982,0.109
6.825,-0.047,0.979,0.109
6.835,-0.053,0.986,0.109
6.845,-0.055,0.986,0.111
6.855,-0.047,0.990,0.109
6.865,-0.037,0.979,0.109
6.875,-0.035,0.984,0.115
6.885,-0.018,0.979,0.109
6.895,-0.021,0.973,0.104
6.905,-0.043,0.971,0.098
6.915,-0.055,0.969,0.100
6.925,-0.055,0.951,0.100
6.935,-0.064,0.941,0.094
6.944,-0.076,0.926,0.096
6.954,-0.076,0.932,0.096
6.964,-0.078,0.924,0.088
6.974,-0.066,0.924,0.088
6.984,-0.066,0.930,0.084
6.994,-0.057,0.914,0.076
7.004,-0.070,0.910,0.078
7.014,-0.080,0.910,0.080
7.024,-0.074,0.912,0.080
7.034,-0.059,0.916,0.086
7.044,-0.045,0.922,0.084
7.054,-0.039,0.936,0.074
7.064,-0.035,0.941,0.076
7.073,-0.031,0.941,0.076
7.083,-0.035,0.928,0.078
7.093,-0.051,0.928,0.074
7.103,-0.074,0.926,0.080
7.113,-0.066,0.926,0.094
7.123,-0.053,0.934,0.092
7.133,-0.055,0.953,0.090
7.143,-0.053,0.971,0.094
7.153,-0.033,0.973,0.102
7.163,-0.033,0.984,0.102
7.173,-0.043,0.992,0.100
7.183,-0.061,1.000,0.102
7.193,-0.057,0.998,0.109
7.202,-0.035,1.008,0.107
7.212,-0.053,1.021,0.088
7.222,-0.061,1.035,0.086
7.232,-0.039,1.037,0.092
7.242,-0.023,1.029,0.070
7.252,-0.020,1.004,0.066
7.262,-0.018,0.967,0.078
7.272,-0.006,0.953,0.086
7.282,-0.010,0.930,0.078
7.292,-0.027,0.912,0.068
7.302,-0.039,0.896,0.076
7.312,-0.070,0.857,0.072
7.322,-0.105,0.857,0.061
7.331,-0.139,0.863,0.047
7.341,-0.154,0.883,0.043
7.351,-0.146,0.896,0.043
7.361,-0.143,0.908,0.027
7.371,-0.137,0.928,0.029
7.381,-0.139,0.936,0.027
7.391,-0.135,0.932,0.039
7.401,-0.123,0.930,0.047
7.411,-0.127,0.932,0.045
7.421,-0.129,0.936,0.055
7.431,-0.133,0.949,0.051
7.441,-0.135,0.957,0.049
7.451,-0.127,0.961,0.049
7.460,-0.127,0.957,0.051
7.470,-0.109,0.959,0.057
7.480,-0.098,0.961,0.061
7.490,-0.088,0.969,0.057
7.500,-0.092,0.969,0.059
7.510,-0.086,0.961,0.057
7.520,-0.080,0.953,0.059
7.530,-0.086,0.943,0.059
7.540,-0.086,0.934,0.064
7.550,-0.074,0.924,0.061
7.560,-0.078,0.920,0.061
7.570,-0.080,0.922,0.061
7.580,-0.082,0.922,0.059
7.590,-0.080,0.916,0.059
7.599,-0.084,0.912,0.061
7.609,-0.082,0.912,0.062
7.619,-0.078,0.918,0.062
7.629,-0.082,0.922,0.057
7.639,-0.088,0.926,0.057
7.649,-0.092,0.930,0.055
7.659,-0.096,0.938,0.057
7.669,-0.082,0.938,0.059
7.679,-0.088,0.938,0.055
7.689,-0.104,0.945,0.055
7.699,-0.102,0.957,0.055
7.709,-0.102,0.955,0.053
7.719,-0.107,0.959,0.051
7.728,-0.117,0.967,0.055
7.738,-0.113,0.973,0.059
7.748,-0.107,0.973,0.051
7.758,-0.109,0.977,0.051
7.768,-0.107,0.980,0.055
7.778,-0.102,0.977,0.055
7.788,-0.107,0.971,0.051
7.798,-0.107,0.967,0.053
7.808,-0.107,0.961,0.053
7.818,-0.107,0.965,0.051
7.828,-0.109,0.961,0.049
7.838,-0.113,0.955,0.047
7.848,-0.105,0.957,0.049
7.857,-0.104,0.943,0.047
7.867,-0.100,0.928,0.047
7.877,-0.102,0.934,0.043
7.887,-0.111,0.930,0.035
7.897,-0.113,0.939,0.035
7.907,-0.115,0.943,0.035
7.917,-0.113,0.951,0.033
7.927,-0.113,0.951,0.031
7.937,-0.107,0.949,0.031
7.947,-0.104,0.941,0.029
7.957,-0.107,0.939,0.027
7.967,-0.111,0.939,0.021
7.977,-0.119,0.943,0.027
7.986,-0.127,0.943,0.025
7.996,-0.133,0.939,0.021
8.006,-0.129,0.938,0.023
8.016,-0.133,0.936,0.023
8.026,-0.129,0.938,0.025
8.036,-0.129,0.943,0.018
8.046,-0.133,0.941,0.014
8.056,-0.129,0.941,0.016
8.066,-0.119,0.928,0.018
8.076,-0.119,0.938,0.010
8.086,-0.129,0.945,0.014
8.096,-0.129,0.951,0.021
8.106,-0.141,0.959,0.016
8.115,-0.145,0.961,0.021
8.125,-0.135,0.955,0.029
8.135,-0.133,0.949,0.021
8.145,-0.127,0.949,0.021
8.155,-0.115,0.949,0.016
8.165,-0.105,0.947,0.012
8.175,-0.094,0.949,0.010
8.185,-0.084,0.949,0.010
8.195,-0.070,0.957,0.012
8.205,-0.064,0.959,0.010
8.215,-0.066,0.959,0.014
8.225,-0.064,0.965,0.012
8.235,-0.070,0.959,0.010
8.245,-0.062,0.951,0.014
8.254,-0.057,0.953,0.014
8.264,-0.057,0.947,0.010
8.274,-0.061,0.951,0.014
8.284,-0.061,0.947,0.018
8.294,-0.061,0.949,0.012
8.304,-0.059,0.953,0.016
8.314,-0.066,0.949,0.018
8.324,-0.072,0.941,0.021
8.334,-0.072,0.936,0.021
8.344,-0.080,0.936,0.012
8.354,-0.086,0.938,0.012
8.364,-0.090,0.938,0.020
8.374,-0.082,0.939,0.012
8.383,-0.072,0.945,0.016
8.393,-0.070,0.947,0.018
8.403,-0.070,0.949,0.018
8.413,-0.072,0.955,0.018
8.423,-0.076,0.953,0.018
8.433,-0.072,0.953,0.018
8.443,-0.076,0.953,0.016
8.453,-0.078,0.947,0.020
8.463,-0.074,0.947,0.021
8.473,-0.078,0.957,0.020
8.483,-0.064,0.945,0.020
8.493,-0.059,0.947,0.023
8.503,-0.066,0.943,0.018
8.512,-0.070,0.939,0.018
8.522,-0.082,0.926,0.016
8.532,-0.088,0.922,0.021
8.542,-0.084,0.920,0.018
8.552,-0.088,0.924,0.014
8.562,-0.086,0.934,0.014
8.572,-0.084,0.936,0.018
8.582,-0.084,0.936,0.016
8.592,-0.100,0.941,0.010
8.602,-0.094,0.949,0.020
8.612,-0.080,0.943,0.016
8.622,-0.082,0.938,0.010
8.632,-0.082,0.936,0.014
8.641,-0.092,0.939,0.008
8.651,-0.088,0.936,0.004
8.661,-0.084,0.932,0.010
8.671,-0.092,0.936,0.006
8.681,-0.092,0.945,0.008
8.691,-0.098,0.941,0.008
8.701,-0.098,0.936,0.008
8.711,-0.094,0.934,0.014
8.721,-0.096,0.924,0.008
8.731,-0.100,0.938,0.008
8.741,-0.098,0.941,0.010
8.751,-0.109,0.941,0.006
8.761,-0.115,0.949,0.004
8.770,-0.115,0.947,0.012
8.780,-0.098,0.939,0.014
8.790,-0.096,0.941,0.014
8.800,-0.092,0.939,0.010
8.810,-0.094,0.934,0.016
8.820,-0.115,0.930,0.014
8.830,-0.127,0.926,0.014
8.840,-0.129,0.934,0.016
8.850,-0.131,0.928,0.010
8.860,-0.131,0.934,0.016
8.870,-0.121,0.936,0.023
8.880,-0.109,0.932,0.018
8.890,-0.119,0.943,0.006
8.900,-0.123,0.953,0.020
8.909,-0.113,0.951,0.029
8.919,-0.111,0.957,0.021
8.929,-0.125,0.953,0.023
8.939,-0.129,0.953,0.029
8.949,-0.131,0.947,0.025
8.959,-0.131,0.941,0.029
8.969,-0.133,0.939,0.033
8.979,-0.133,0.938,0.037
8.989,-0.135,0.936,0.031
8.999,-0.141,0.938,0.035
9.009,-0.143,0.945,0.033
9.019,-0.109,0.945,0.045
9.029,-0.127,0.949,0.029
9.038,-0.143,0.953,0.029
9.048,-0.143,0.934,0.051
9.058,-0.117,0.930,0.061
9.068,-0.115,0.945,0.047
9.078,-0.131,0.957,0.043
9.088,-0.139,0.955,0.053
9.098,-0.125,0.955,0.053
9.108,-0.133,0.959,0.043
9.118,-0.141,0.963,0.057
9.128,-0.146,0.967,0.053
9.138,-0.166,0.959,0.047
9.148,-0.152,0.947,0.064
9.158,-0.131,0.936,0.080
9.167,-0.119,0.934,0.066
9.177,-0.129,0.936,0.057
9.187,-0.148,0.936,0.061
9.197,-0.152,0.936,0.066
9.207,-0.148,0.941,0.068
9.217,-0.152,0.953,0.057
9.227,-0.158,0.953,0.055
9.237,-0.156,0.951,0.059
9.247,-0.158,0.959,0.059
9.257,-0.148,0.949,0.059
9.267,-0.150,0.943,0.061
9.277,-0.146,0.939,0.064
9.287,-0.139,0.934,0.057
9.296,-0.139,0.922,0.051
9.306,-0.150,0.918,0.059
9.316,-0.150,0.924,0.061
9.326,-0.164,0.922,0.051
9.336,-0.166,0.938,0.057
9.346,-0.182,0.943,0.051
9.356,-0.184,0.947,0.055
9.366,-0.158,0.953,0.062
9.376,-0.146,0.947,0.057
9.386,-0.143,0.951,0.061
9.396,-0.141,0.943,0.064
9.406,-0.143,0.943,0.053
9.416,-0.150,0.947,0.049
9.425,-0.154,0.939,0.055
9.435,-0.158,0.943,0.057
9.445,-0.152,0.949,0.055
9.455,-0.154,0.947,0.055
9.465,-0.158,0.941,0.053
9.475,-0.162,0.936,0.055
9.485,-0.166,0.934,0.051
9.495,-0.166,0.938,0.053
9.505,-0.172,0.939,0.051
9.515,-0.178,0.941,0.049
9.525,-0.176,0.941,0.051
9.535,-0.188,0.943,0.041
9.545,-0.189,0.936,0.053
9.554,-0.182,0.934,0.047
9.564,-0.176,0.934,0.035
9.574,-0.178,0.932,0.031
9.584,-0.189,0.941,0.029
9.594,-0.182,0.938,0.035
9.604,-0.176,0.932,0.031
9.614,-0.174,0.936,0.035
9.624,-0.164,0.939,0.035
9.634,-0.172,0.938,0.031
9.644,-0.184,0.943,0.033
9.654,-0.188,0.932,0.033
9.664,-0.191,0.941,0.039
9.674,-0.191,0.939,0.031
9.684,-0.197,0.941,0.037
9.693,-0.180,0.945,0.041
9.703,-0.143,0.947,0.039
9.713,-0.193,0.945,0.008
9.723,-0.209,0.934,0.027
9.733,-0.191,0.928,0.039
9.743,-0.188,0.932,0.025
9.753,-0.188,0.943,0.023
9.763,-0.201,0.943,0.025
9.773,-0.197,0.955,0.012
9.783,-0.180,0.953,0.012
9.793,-0.186,0.953,0.016
9.803,-0.178,0.955,0.016
9.813,-0.186,0.955,0.012
9.822,-0.197,0.955,0.021
9.832,-0.215,0.939,0.023
9.842,-0.207,0.963,0.031
9.852,-0.170,0.971,0.014
9.862,-0.254,0.969,-0.012
9.872,-0.223,0.967,0.029
9.882,-0.211,0.963,0.010
9.892,-0.195,0.961,-0.008
9.902,-0.189,0.957,-0.010
9.912,-0.166,0.936,-0.008
9.922,-0.119,0.922,-0.012
9.932,-0.098,0.926,-0.021
9.942,-0.113,0.930,-0.021
9.951,-0.127,0.912,-0.018
9.961,-0.143,0.896,-0.016
9.971,-0.152,0.887,-0.033
9.981,-0.178,0.898,-0.033
9.991,-0.195,0.908,-0.027
10.001,-0.209,0.924,-0.031
10.011,-0.225,0.934,-0.035
10.021,-0.236,0.939,-0.039
10.031,-0.232,0.932,-0.033
10.041,-0.229,0.928,-0.035
10.051,-0.240,0.924,-0.037
10.061,-0.252,0.916,-0.025
10.071,-0.258,0.910,-0.023
10.080,-0.270,0.910,-0.020
10.090,-0.266,0.910,-0.018
10.100,-0.260,0.900,-0.020
10.110,-0.256,0.898,-0.012
10.120,-0.256,0.889,-0.004
10.130,-0.275,0.887,0.000
10.140,-0.299,0.885,0.014
10.150,-0.301,0.883,0.020
10.160,-0.301,0.889,0.020
10.170,-0.297,0.902,0.020
10.180,-0.281,0.908,0.023
10.190,-0.266,0.918,0.025
10.200,-0.258,0.920,0.021
10.209,-0.248,0.914,0.029
10.219,-0.230,0.906,0.029
10.229,-0.211,0.902,0.035
10.239,-0.201,0.904,0.027
10.249,-0.197,0.914,0.021
10.259,-0.205,0.926,0.020
10.269,-0.230,0.936,0.016
10.279,-0.248,0.934,0.010
10.289,-0.266,0.949,-0.004
10.299,-0.283,0.939,-0.018
10.309,-0.293,0.932,-0.020
10.319,-0.293,0.934,-0.031
10.329,-0.293,0.934,-0.041
10.339,-0.291,0.922,-0.049
10.348,-0.285,0.924,-0.053
10.358,-0.283,0.922,-0.059
10.368,-0.273,0.918,-0.059
10.378,-0.277,0.924,-0.064
10.388,-0.281,0.918,-0.076
10.398,-0.295,0.904,-0.086
10.408,-0.309,0.904,-0.100
10.418,-0.311,0.910,-0.109
10.428,-0.305,0.902,-0.123
10.438,-0.289,0.895,-0.129
10.448,-0.264,0.904,-0.121
10.458,-0.287,0.928,-0.131
10.468,-0.297,0.936,-0.135
10.477,-0.295,0.922,-0.129
10.487,-0.287,0.916,-0.141
10.497,-0.301,0.934,-0.158
10.507,-0.320,0.938,-0.166
10.517,-0.316,0.930,-0.156
10.527,-0.311,0.924,-0.160
10.537,-0.287,0.916,-0.176
10.547,-0.256,0.936,-0.172
10.557,-0.271,0.934,-0.188
10.567,-0.318,0.896,-0.193
10.577,-0.307,0.881,-0.162
10.587,-0.279,0.877,-0.164
10.597,-0.254,0.881,-0.182
10.606,-0.256,0.898,-0.178
10.616,-0.258,0.912,-0.180
10.626,-0.275,0.883,-0.176
10.636,-0.283,0.834,-0.154
10.646,-0.307,0.816,-0.145
10.656,-0.293,0.828,-0.143
10.666,-0.254,0.854,-0.131
10.676,-0.230,0.879,-0.129
10.686,-0.250,0.891,-0.123
10.696,-0.264,0.881,-0.092
10.706,-0.271,0.857,-0.074
10.716,-0.256,0.834,-0.062
10.726,-0.266,0.832,-0.055
10.735,-0.266,0.846,-0.039
10.745,-0.258,0.877,-0.027
10.755,-0.238,0.904,-0.012
10.765,-0.217,0.924,-0.006
10.775,-0.201,0.910,-0.004
10.785,-0.203,0.918,0.002
10.795,-0.205,0.924,0.006
10.805,-0.211,0.924,-0.004
10.815,-0.234,0.926,-0.004
10.825,-0.252,0.922,0.010
10.835,-0.262,0.930,0.010
10.845,-0.256,0.941,0.010
10.855,-0.244,0.924,0.014
10.864,-0.252,0.912,0.008
10.874,-0.277,0.916,0.008
10.884,-0.283,0.924,0.021
10.894,-0.271,0.939,0.025
10.904,-0.264,0.945,0.023
10.914,-0.246,0.938,0.027
10.924,-0.242,0.936,0.025
10.934,-0.271,0.928,0.023
10.944,-0.289,0.930,0.035
10.954,-0.285,0.936,0.037
10.964,-0.258,0.932,0.029
10.974,-0.234,0.922,0.037
10.984,-0.223,0.922,0.041
10.994,-0.213,0.938,0.043
11.003,-0.195,0.938,0.041
11.013,-0.188,0.922,0.043
11.023,-0.209,0.912,0.043
11.033,-0.223,0.902,0.049
11.043,-0.219,0.910,0.039
11.053,-0.221,0.918,0.027
11.063,-0.230,0.930,0.021
11.073,-0.232,0.939,0.008
11.083,-0.246,0.959,-0.004
11.093,-0.264,0.949,-0.008
11.103,-0.271,0.926,-0.008
11.113,-0.268,0.930,-0.018
11.123,-0.260,0.955,-0.031
11.132,-0.260,0.971,-0.041
11.142,-0.256,0.973,-0.041
11.152,-0.252,0.959,-0.045
11.162,-0.246,0.943,-0.049
11.172,-0.240,0.945,-0.051
11.182,-0.250,0.943,-0.057
11.192,-0.260,0.926,-0.066
11.202,-0.240,0.922,-0.068
11.212,-0.227,0.932,-0.084
11.222,-0.207,0.938,-0.105
11.232,-0.191,0.959,-0.107
11.242,-0.178,0.963,-0.119
11.252,-0.166,0.939,-0.127
11.261,-0.152,0.924,-0.121
11.271,-0.133,0.906,-0.125
11.281,-0.115,0.902,-0.133
11.291,-0.109,0.902,-0.143
11.301,-0.109,0.906,-0.141
11.311,-0.115,0.922,-0.141
11.321,-0.129,0.941,-0.141
11.331,-0.143,0.949,-0.141
11.341,-0.158,0.939,-0.129
11.351,-0.166,0.930,-0.111
11.361,-0.178,0.924,-0.107
11.371,-0.184,0.910,-0.100
11.381,-0.178,0.895,-0.090
11.390,-0.176,0.885,-0.084
11.400,-0.170,0.891,-0.068
11.410,-0.166,0.900,-0.047
11.420,-0.172,0.908,-0.041
11.430,-0.172,0.922,-0.027
11.440,-0.176,0.936,-0.021
11.450,-0.168,0.943,-0.016
11.460,-0.166,0.941,-0.016
11.470,-0.172,0.932,-0.010
11.480,-0.178,0.926,-0.002
11.490,-0.176,0.924,0.012
11.500,-0.174,0.928,0.014
11.510,-0.168,0.930,0.020
11.519,-0.168,0.932,0.025
11.529,-0.160,0.943,0.029
11.539,-0.156,0.953,0.025
11.549,-0.152,0.957,0.021
11.559,-0.156,0.959,0.027
11.569,-0.162,0.961,0.025
11.579,-0.162,0.963,0.025
11.589,-0.168,0.955,0.025
11.599,-0.170,0.947,0.023
11.609,-0.164,0.930,0.029
11.619,-0.160,0.926,0.021
11.629,-0.150,0.922,0.014
11.639,-0.145,0.918,0.006
11.649,-0.146,0.914,0.004
11.658,-0.148,0.918,0.000
11.668,-0.146,0.920,0.000
11.678,-0.146,0.934,-0.002
11.688,-0.148,0.938,-0.002
11.698,-0.150,0.941,0.002
11.708,-0.158,0.951,-0.004
11.718,-0.164,0.953,-0.010
11.728,-0.164,0.967,-0.016
11.738,-0.168,0.953,-0.020
11.748,-0.164,0.955,-0.021
11.758,-0.152,0.965,-0.035
11.768,-0.146,0.967,-0.047
11.778,-0.148,0.965,-0.049
11.787,-0.154,0.963,-0.057
11.797,-0.166,0.951,-0.068
11.807,-0.170,0.945,-0.072
11.817,-0.178,0.934,-0.078
11.827,-0.168,0.926,-0.078
11.837,-0.160,0.936,-0.084
11.847,-0.172,0.943,-0.096
11.857,-0.189,0.949,-0.100
11.867,-0.203,0.955,-0.098
11.877,-0.215,0.947,-0.098
11.887,-0.215,0.930,-0.098
11.897,-0.211,0.918,-0.096
11.907,-0.213,0.910,-0.100
11.916,-0.217,0.898,-0.102
11.926,-0.219,0.893,-0.096
11.936,-0.217,0.889,-0.092
11.946,-0.217,0.891,-0.088
11.956,-0.219,0.898,-0.080
11.966,-0.221,0.904,-0.074
11.976,-0.225,0.908,-0.070
11.986,-0.215,0.904,-0.062
11.996,-0.201,0.910,-0.061
12.006,-0.201,0.918,-0.061
12.016,-0.203,0.926,-0.055
12.026,-0.201,0.932,-0.047
12.036,-0.201,0.934,-0.047
12.045,-0.197,0.941,-0.043
12.055,-0.197,0.945,-0.041
12.065,-0.195,0.949,-0.041
12.075,-0.197,0.943,-0.047
12.085,-0.207,0.939,-0.045
12.095,-0.207,0.934,-0.045
12.105,-0.209,0.932,-0.041
12.115,-0.213,0.930,-0.043
12.125,-0.215,0.924,-0.045
12.135,-0.209,0.924,-0.049
12.145,-0.211,0.922,-0.047
12.155,-0.215,0.914,-0.049
12.165,-0.213,0.912,-0.047
12.174,-0.217,0.918,-0.051
12.184,-0.221,0.922,-0.057
12.194,-0.221,0.922,-0.051
12.204,-0.227,0.920,-0.047
12.214,-0.223,0.928,-0.051
12.224,-0.229,0.928,-0.055
12.234,-0.232,0.934,-0.055
12.244,-0.238,0.932,-0.055
12.254,-0.246,0.932,-0.053
12.264,-0.242,0.926,-0.057
12.274,-0.244,0.922,-0.057
12.284,-0.248,0.918,-0.059
12.294,-0.252,0.918,-0.059
12.304,-0.244,0.918,-0.059
12.313,-0.236,0.922,-0.064
12.323,-0.240,0.922,-0.061
12.333,-0.236,0.924,-0.062
12.343,-0.236,0.920,-0.062
12.353,-0.236,0.918,-0.068
12.363,-0.242,0.918,-0.064
12.373,-0.248,0.922,-0.059
12.383,-0.254,0.920,-0.062
12.393,-0.258,0.916,-0.061
12.403,-0.254,0.922,-0.062
12.413,-0.250,0.918,-0.062
12.423,-0.252,0.910,-0.062
12.433,-0.252,0.914,-0.057
12.442,-0.250,0.920,-0.055
12.452,-0.248,0.920,-0.062
12.462,-0.248,0.928,-0.062
12.472,-0.248,0.924,-0.064
12.482,-0.244,0.934,-0.062
12.492,-0.244,0.930,-0.062
12.502,-0.242,0.926,-0.064
12.512,-0.242,0.922,-0.064
12.522,-0.244,0.918,-0.062
12.532,-0.246,0.920,-0.062
12.542,-0.244,0.916,-0.062
12.552,-0.248,0.912,-0.062
12.562,-0.248,0.912,-0.061
12.571,-0.246,0.910,-0.059
12.581,-0.244,0.910,-0.059
12.591,-0.244,0.908,-0.059
12.601,-0.246,0.910,-0.059
12.611,-0.242,0.908,-0.057
12.621,-0.236,0.902,-0.059
12.631,-0.227,0.908,-0.053
12.641,-0.225,0.908,-0.057
12.651,-0.221,0.914,-0.055
12.661,-0.219,0.918,-0.055
12.671,-0.215,0.924,-0.057
12.681,-0.213,0.930,-0.059
12.691,-0.221,0.928,-0.061
12.700,-0.219,0.922,-0.057
12.710,-0.221,0.928,-0.057
12.720,-0.227,0.930,-0.055
12.730,-0.227,0.924,-0.061
12.740,-0.229,0.926,-0.059
12.750,-0.232,0.926,-0.066
12.760,-0.232,0.928,-0.062
12.770,-0.230,0.926,-0.064
12.780,-0.232,0.922,-0.066
12.790,-0.234,0.916,-0.064
12.800,-0.230,0.910,-0.066
12.810,-0.232,0.914,-0.072
12.820,-0.234,0.908,-0.068
12.829,-0.234,0.910,-0.070
12.839,-0.227,0.912,-0.072
12.849,-0.230,0.910,-0.070
12.859,-0.232,0.908,-0.068
12.869,-0.232,0.918,-0.070
12.879,-0.238,0.926,-0.072
12.889,-0.230,0.924,-0.072
12.899,-0.232,0.922,-0.066
12.909,-0.229,0.924,-0.068
12.919,-0.225,0.922,-0.072
12.929,-0.215,0.920,-0.068
12.939,-0.209,0.920,-0.068
12.949,-0.207,0.922,-0.068
12.958,-0.199,0.926,-0.062
12.968,-0.193,0.928,-0.059
12.978,-0.195,0.936,-0.059
12.988,-0.203,0.941,-0.062
12.998,-0.205,0.941,-0.059
13.008,-0.209,0.943,-0.061
13.018,-0.209,0.947,-0.057
13.028,-0.211,0.941,-0.053
13.038,-0.215,0.938,-0.051
13.048,-0.225,0.932,-0.049
13.058,-0.225,0.926,-0.049
13.068,-0.221,0.928,-0.051
13.078,-0.215,0.928,-0.053
13.088,-0.213,0.932,-0.055
13.097,-0.211,0.930,-0.051
13.107,-0.217,0.924,-0.051
13.117,-0.221,0.924,-0.051
13.127,-0.225,0.918,-0.055
13.137,-0.238,0.912,-0.055
13.147,-0.246,0.910,-0.055
13.157,-0.250,0.918,-0.055
13.167,-0.252,0.916,-0.064
13.177,-0.254,0.914,-0.062
13.187,-0.260,0.912,-0.057
13.197,-0.258,0.920,-0.057
13.207,-0.256,0.912,-0.057
13.217,-0.250,0.920,-0.057
13.226,-0.246,0.922,-0.059
13.236,-0.242,0.920,-0.059
13.246,-0.244,0.932,-0.053
13.256,-0.246,0.932,-0.059
13.266,-0.246,0.930,-0.057
13.276,-0.250,0.926,-0.053
13.286,-0.252,0.922,-0.053
13.296,-0.246,0.920,-0.053
13.306,-0.240,0.916,-0.053
13.316,-0.240,0.916,-0.053
13.326,-0.240,0.914,-0.049
13.336,-0.234,0.914,-0.049
13.346,-0.229,0.916,-0.047
13.355,-0.230,0.920,-0.047
13.365,-0.230,0.916,-0.047
13.375,-0.232,0.918,-0.045
13.385,-0.240,0.918,-0.047
13.395,-0.242,0.920,-0.045
13.405,-0.248,0.922,-0.045
13.415,-0.246,0.928,-0.043
13.425,-0.246,0.924,-0.043
13.435,-0.242,0.926,-0.043
13.445,-0.238,0.924,-0.045
13.455,-0.229,0.916,-0.049
13.465,-0.225,0.906,-0.047
13.475,-0.219,0.906,-0.041
13.484,-0.221,0.910,-0.043
13.494,-0.219,0.912,-0.043
13.504,-0.217,0.918,-0.047
13.514,-0.225,0.926,-0.049
13.524,-0.227,0.930,-0.047
13.534,-0.219,0.934,-0.051
13.544,-0.225,0.936,-0.061
13.554,-0.221,0.938,-0.059
13.564,-0.213,0.936,-0.061
13.574,-0.207,0.934,-0.059
13.584,-0.197,0.932,-0.062
13.594,-0.193,0.934,-0.064
13.604,-0.193,0.934,-0.064
13.613,-0.197,0.932,-0.064
13.623,-0.199,0.928,-0.064
13.633,-0.199,0.926,-0.064
13.643,-0.205,0.926,-0.064
13.653,-0.205,0.926,-0.064
13.663,-0.199,0.926,-0.066
13.673,-0.201,0.928,-0.064
13.683,-0.205,0.932,-0.062
13.693,-0.215,0.930,-0.059
13.703,-0.217,0.926,-0.059
13.713,-0.223,0.928,-0.055
13.723,-0.227,0.936,-0.053
13.733,-0.227,0.928,-0.055
13.743,-0.225,0.924,-0.045
13.752,-0.223,0.930,-0.041
13.762,-0.221,0.926,-0.045
13.772,-0.213,0.918,-0.039
13.782,-0.215,0.924,-0.039
13.792,-0.215,0.914,-0.043
13.802,-0.205,0.904,-0.039
13.812,-0.203,0.902,-0.039
13.822,-0.205,0.910,-0.035
13.832,-0.203,0.914,-0.033
13.842,-0.203,0.924,-0.029
13.852,-0.203,0.934,-0.025
13.862,-0.203,0.949,-0.023
13.872,-0.203,0.951,-0.021
13.881,-0.205,0.949,-0.021
13.891,-0.209,0.945,-0.020
13.901,-0.209,0.938,-0.016
13.911,-0.205,0.932,-0.014
13.921,-0.207,0.936,-0.020
13.931,-0.209,0.943,-0.021
13.941,-0.211,0.949,-0.020
13.951,-0.215,0.959,-0.018
13.961,-0.215,0.949,-0.014
13.971,-0.209,0.938,-0.014
13.981,-0.203,0.930,-0.014
13.991,-0.197,0.934,-0.014
14.001,-0.193,0.926,-0.012
14.010,-0.191,0.926,-0.010
14.020,-0.186,0.924,-0.010
14.030,-0.188,0.924,-0.010
14.040,-0.191,0.922,-0.008
14.050,-0.193,0.920,-0.002
14.060,-0.193,0.918,-0.006
14.070,-0.191,0.938,-0.004
14.080,-0.189,0.957,-0.006
14.090,-0.182,0.961,-0.004
14.100,-0.168,0.967,-0.012
14.110,-0.160,0.961,-0.014
14.120,-0.158,0.955,-0.012
14.130,-0.154,0.951,-0.010
14.139,-0.154,0.941,-0.010
14.149,-0.158,0.936,-0.012
14.159,-0.158,0.926,-0.010
14.169,-0.156,0.926,-0.008
14.179,-0.152,0.922,-0.014
14.189,-0.150,0.928,-0.016
14.199,-0.152,0.930,-0.020
14.209,-0.152,0.932,-0.018
14.219,-0.146,0.930,-0.016
14.229,-0.145,0.936,-0.016
14.239,-0.141,0.938,-0.020
14.249,-0.137,0.938,-0.016
14.259,-0.143,0.938,-0.014
14.268,-0.137,0.943,-0.021
14.278,-0.133,0.936,-0.035
14.288,-0.127,0.920,-0.033
14.298,-0.129,0.918,-0.027
14.308,-0.127,0.926,-0.027
14.318,-0.123,0.939,-0.031
14.328,-0.117,0.943,-0.029
14.338,-0.121,0.945,-0.027
14.348,-0.129,0.949,-0.027
14.358,-0.137,0.951,-0.025
14.368,-0.145,0.959,-0.027
14.378,-0.154,0.971,-0.033
14.388,-0.158,0.980,-0.031
14.398,-0.166,0.982,-0.027
14.407,-0.170,0.994,-0.029
14.417,-0.178,1.012,-0.035
14.427,-0.188,1.027,-0.043
14.437,-0.197,1.068,-0.055
14.447,-0.213,1.127,-0.064
14.457,-0.221,1.156,-0.092
14.467,-0.234,1.148,-0.111
14.477,-0.246,1.125,-0.105
14.487,-0.244,1.104,-0.100
14.497,-0.242,1.092,-0.100
14.507,-0.240,1.074,-0.094
14.517,-0.232,1.041,-0.084
14.527,-0.221,0.980,-0.076
14.536,-0.199,0.900,-0.070
14.546,-0.182,0.871,-0.070
14.556,-0.195,0.861,-0.078
14.566,-0.188,0.850,-0.076
14.576,-0.174,0.832,-0.062
14.586,-0.178,0.795,-0.049
14.596,-0.180,0.756,-0.021
14.606,-0.172,0.732,0.006
14.616,-0.170,0.723,0.012
14.626,-0.164,0.719,0.012
14.636,-0.186,0.746,-0.002
14.646,-0.209,0.783,-0.023
14.656,-0.227,0.791,-0.031
14.665,-0.238,0.787,-0.029
14.675,-0.230,0.809,-0.035
14.685,-0.227,0.854,-0.043
14.695,-0.227,0.891,-0.049
14.705,-0.219,0.885,-0.041
14.715,-0.213,0.889,-0.035
14.725,-0.221,0.893,-0.041
14.735,-0.225,0.889,-0.043
14.745,-0.225,0.887,-0.041
14.755,-0.227,0.898,-0.039
14.765,-0.230,0.916,-0.045
14.775,-0.232,0.926,-0.061
14.785,-0.236,0.932,-0.068
14.794,-0.236,0.926,-0.064
14.804,-0.234,0.908,-0.062
14.814,-0.229,0.910,-0.064
14.824,-0.229,0.928,-0.076
14.834,-0.227,0.941,-0.082
14.844,-0.230,0.959,-0.090
14.854,-0.242,0.957,-0.098
14.864,-0.254,0.932,-0.098
14.874,-0.256,0.914,-0.102
14.884,-0.252,0.914,-0.107
14.894,-0.250,0.924,-0.111
14.904,-0.246,0.934,-0.111
14.914,-0.240,0.953,-0.115
14.923,-0.229,0.967,-0.127
14.933,-0.229,0.975,-0.133
14.943,-0.227,0.967,-0.131
14.953,-0.232,0.965,-0.129
14.963,-0.229,0.963,-0.137
14.973,-0.219,0.953,-0.133
14.983,-0.215,0.936,-0.129
14.993,-0.209,0.914,-0.125
15.003,-0.209,0.900,-0.117
15.013,-0.207,0.881,-0.105
15.023,-0.193,0.871,-0.100
15.033,-0.186,0.875,-0.098
15.043,-0.182,0.875,-0.096
15.053,-0.166,0.885,-0.084
15.062,-0.150,0.895,-0.088
15.072,-0.158,0.891,-0.104
15.082,-0.152,0.895,-0.094
15.092,-0.154,0.904,-0.102
15.102,-0.170,0.918,-0.102
15.112,-0.170,0.920,-0.100
15.122,-0.174,0.916,-0.096
15.132,-0.170,0.914,-0.090
15.142,-0.170,0.908,-0.082
15.152,-0.176,0.875,-0.078
15.162,-0.174,0.854,-0.074
15.172,-0.166,0.871,-0.072
15.182,-0.146,0.898,-0.074
15.191,-0.121,0.902,-0.072
15.201,-0.096,0.896,-0.066
15.211,-0.086,0.877,-0.074
15.221,-0.102,0.855,-0.090
15.231,-0.115,0.850,-0.080
15.241,-0.102,0.855,-0.076
15.251,-0.074,0.869,-0.078
15.261,-0.045,0.873,-0.068
15.271,-0.012,0.869,-0.033
15.281,-0.012,0.848,-0.008
15.291,0.023,0.846,0.023
15.301,0.066,0.889,0.035
15.311,0.098,0.953,0.039
15.320,0.111,1.000,0.049
15.330,0.107,1.029,0.072
15.340,0.098,1.059,0.088
15.350,0.092,1.090,0.107
15.360,0.086,1.088,0.131
15.370,0.096,1.057,0.156
15.380,0.098,1.068,0.180
15.390,0.107,1.088,0.199
15.400,0.131,1.076,0.211
15.410,0.148,1.061,0.221
15.420,0.146,1.053,0.213
15.430,0.125,0.998,0.203
15.440,0.098,0.957,0.205
15.449,0.084,0.959,0.201
15.459,0.033,1.004,0.184
15.469,-0.020,1.033,0.189
15.479,-0.047,1.053,0.201
15.489,-0.045,1.062,0.215
15.499,-0.037,1.086,0.217
15.509,-0.041,1.094,0.184
15.519,-0.066,1.061,0.137
15.529,-0.098,1.004,0.143
15.539,-0.113,0.918,0.168
15.549,-0.105,0.844,0.162
15.559,-0.119,0.816,0.139
15.569,-0.133,0.830,0.141
15.578,-0.117,0.900,0.119
15.588,-0.082,1.018,0.061
15.598,-0.049,1.107,0.004
15.608,-0.037,1.133,-0.051
15.618,-0.047,1.135,-0.076
15.628,-0.082,1.137,-0.102
15.638,-0.129,1.125,-0.117
15.648,-0.184,1.102,-0.121
15.658,-0.250,1.008,-0.135
15.668,-0.381,0.848,-0.158
15.678,-0.492,0.748,-0.152
15.688,-0.520,0.736,-0.164
15.698,-0.477,0.793,-0.213
15.708,-0.443,0.814,-0.246
15.717,-0.434,0.811,-0.234
15.727,-0.426,0.770,-0.232
15.737,-0.414,0.674,-0.260
15.747,-0.396,0.576,-0.271
15.757,-0.377,0.561,-0.268
15.767,-0.348,0.607,-0.277
15.777,-0.314,0.633,-0.293
15.787,-0.301,0.678,-0.279
15.797,-0.287,0.752,-0.268
15.807,-0.270,0.816,-0.254
15.817,-0.264,0.840,-0.203
15.827,-0.248,0.822,-0.145
15.837,-0.238,0.834,-0.109
15.846,-0.236,0.865,-0.084
15.856,-0.236,0.865,-0.066
15.866,-0.244,0.828,-0.061
15.876,-0.219,0.814,-0.051
15.886,-0.211,0.828,-0.076
15.896,-0.213,0.836,-0.088
15.906,-0.207,0.855,-0.080
15.916,-0.205,0.916,-0.086
15.926,-0.223,0.990,-0.090
15.936,-0.260,0.998,-0.084
15.946,-0.287,0.971,-0.072
15.956,-0.295,0.961,-0.082
15.966,-0.301,0.947,-0.096
15.975,-0.340,0.926,-0.115
15.985,-0.373,0.912,-0.129
15.995,-0.379,0.906,-0.150
16.005,-0.385,0.900,-0.176
16.015,-0.395,0.906,-0.186
16.025,-0.404,0.904,-0.188
16.035,-0.420,0.875,-0.189
16.045,-0.428,0.824,-0.193
16.055,-0.445,0.820,-0.197
16.065,-0.467,0.803,-0.219
16.075,-0.475,0.811,-0.236
16.085,-0.467,0.826,-0.248
16.095,-0.463,0.830,-0.264
16.104,-0.463,0.830,-0.268
16.114,-0.467,0.832,-0.270
16.124,-0.475,0.826,-0.266
16.134,-0.510,0.793,-0.268
16.144,-0.537,0.777,-0.256
16.154,-0.547,0.734,-0.240
16.164,-0.549,0.707,-0.236
16.174,-0.562,0.689,-0.232
16.184,-0.582,0.689,-0.232
16.194,-0.602,0.689,-0.238
16.204,-0.619,0.695,-0.242
16.214,-0.631,0.717,-0.238
16.224,-0.643,0.729,-0.232
16.233,-0.652,0.730,-0.219
16.243,-0.668,0.725,-0.215
16.253,-0.686,0.713,-0.205
16.263,-0.691,0.705,-0.207
16.273,-0.691,0.711,-0.209
16.283,-0.672,0.730,-0.213
16.293,-0.650,0.750,-0.223
16.303,-0.643,0.756,-0.230
16.313,-0.652,0.727,-0.238
16.323,-0.660,0.719,-0.246
16.333,-0.633,0.732,-0.254
16.343,-0.598,0.744,-0.271
16.353,-0.580,0.754,-0.281
16.362,-0.588,0.748,-0.285
16.372,-0.580,0.738,-0.279
16.382,-0.570,0.732,-0.289
16.392,-0.570,0.727,-0.287
16.402,-0.572,0.727,-0.285
16.412,-0.574,0.723,-0.287
16.422,-0.592,0.717,-0.285
16.432,-0.596,0.717,-0.283
16.442,-0.598,0.711,-0.281
16.452,-0.582,0.711,-0.283
16.462,-0.576,0.711,-0.293
16.472,-0.561,0.725,-0.283
16.482,-0.561,0.709,-0.283
16.492,-0.566,0.689,-0.275
16.501,-0.582,0.670,-0.281
16.511,-0.613,0.672,-0.287
16.521,-0.617,0.699,-0.287
16.531,-0.598,0.719,-0.295
16.541,-0.580,0.721,-0.299
16.551,-0.576,0.707,-0.299
16.561,-0.559,0.717,-0.295
16.571,-0.549,0.742,-0.311
16.581,-0.561,0.744,-0.320
16.591,-0.561,0.742,-0.307
16.601,-0.551,0.750,-0.309
16.611,-0.549,0.754,-0.311
16.621,-0.543,0.734,-0.295
16.630,-0.533,0.709,-0.287
16.640,-0.555,0.695,-0.291
16.650,-0.584,0.697,-0.289
16.660,-0.613,0.701,-0.299
16.670,-0.639,0.715,-0.301
16.680,-0.639,0.719,-0.303
16.690,-0.629,0.732,-0.297
16.700,-0.607,0.738,-0.295
16.710,-0.605,0.748,-0.297
16.720,-0.594,0.748,-0.289
16.730,-0.551,0.711,-0.297
16.740,-0.533,0.678,-0.299
16.750,-0.543,0.693,-0.297
16.759,-0.553,0.723,-0.297
16.769,-0.557,0.723,-0.301
16.779,-0.574,0.746,-0.301
16.789,-0.547,0.742,-0.281
16.799,-0.469,0.678,-0.275
16.809,-0.471,0.646,-0.283
16.819,-0.504,0.682,-0.283
16.829,-0.549,0.762,-0.289
16.839,-0.576,0.814,-0.283
16.849,-0.578,0.820,-0.258
16.859,-0.574,0.793,-0.232
16.869,-0.555,0.719,-0.201
16.879,-0.506,0.699,-0.180
16.888,-0.457,0.742,-0.201
16.898,-0.422,0.811,-0.223
16.908,-0.416,0.850,-0.211
16.918,-0.424,0.873,-0.182
16.928,-0.426,0.896,-0.150
16.938,-0.400,0.889,-0.123
16.948,-0.365,0.887,-0.098
16.958,-0.326,0.896,-0.080
16.968,-0.273,0.900,-0.072
16.978,-0.260,0.920,-0.064
16.988,-0.234,0.930,-0.031
16.998,-0.193,0.955,-0.006
17.008,-0.191,1.004,-0.020
17.017,-0.242,1.018,-0.012
17.027,-0.258,0.965,0.041
17.037,-0.234,0.920,0.068
17.047,-0.207,0.916,0.062
17.057,-0.182,0.889,0.061
17.067,-0.154,0.877,0.068
17.077,-0.172,0.893,0.062
17.087,-0.217,0.891,0.059
17.097,-0.266,0.865,0.062
17.107,-0.314,0.871,0.062
17.117,-0.365,0.896,0.062
17.127,-0.363,0.910,0.064
17.137,-0.346,0.904,0.078
17.147,-0.309,0.898,0.082
17.156,-0.273,0.904,0.064
17.166,-0.301,0.924,0.049
17.176,-0.344,0.928,0.061
17.186,-0.369,0.928,0.076
17.196,-0.375,0.943,0.070
17.206,-0.367,0.955,0.068
17.216,-0.363,0.969,0.080
17.226,-0.355,0.986,0.080
17.236,-0.342,0.982,0.080
17.246,-0.320,0.961,0.088
17.256,-0.314,0.934,0.090
17.266,-0.305,0.920,0.088
17.276,-0.307,0.914,0.082
17.285,-0.307,0.898,0.072
17.295,-0.330,0.873,0.051
17.305,-0.350,0.863,0.049
17.315,-0.354,0.873,0.033
17.325,-0.355,0.873,0.023
17.335,-0.346,0.879,0.031
17.345,-0.340,0.881,0.035
17.355,-0.338,0.877,0.033
17.365,-0.352,0.883,0.033
17.375,-0.365,0.881,0.039
17.385,-0.373,0.854,0.043
17.395,-0.387,0.842,0.047
17.405,-0.373,0.820,0.047
17.414,-0.326,0.795,0.035
17.424,-0.309,0.801,0.014
17.434,-0.348,0.838,-0.008
17.444,-0.395,0.859,0.002
17.454,-0.422,0.869,0.016
17.464,-0.436,0.883,0.016
17.474,-0.455,0.895,0.025
17.484,-0.457,0.881,0.047
17.494,-0.461,0.865,0.055
17.504,-0.465,0.865,0.049
17.514,-0.453,0.865,0.039
17.524,-0.455,0.867,0.021
17.534,-0.473,0.873,0.014
17.543,-0.477,0.883,0.021
17.553,-0.469,0.896,0.031
17.563,-0.465,0.896,0.031
17.573,-0.434,0.883,0.031
17.583,-0.400,0.877,0.029
17.593,-0.359,0.883,0.018
17.603,-0.330,0.869,0.031
17.613,-0.312,0.846,0.045
17.623,-0.314,0.850,0.047
17.633,-0.332,0.854,0.049
17.643,-0.328,0.828,0.062
17.653,-0.352,0.830,0.062
17.663,-0.367,0.859,0.061
17.672,-0.320,0.846,0.064
17.682,-0.264,0.820,0.076
17.692,-0.240,0.799,0.090
17.702,-0.271,0.818,0.078
17.712,-0.357,0.875,0.080
17.722,-0.355,0.887,0.127
17.732,-0.264,0.898,0.141
17.742,-0.254,0.930,0.109
17.752,-0.240,0.957,0.127
17.762,-0.277,1.027,0.135
17.772,-0.340,1.070,0.143
17.782,-0.311,1.053,0.191
17.792,-0.217,1.025,0.221
17.802,-0.156,0.996,0.225
17.811,-0.090,0.951,0.236
17.821,-0.049,0.951,0.234
17.831,-0.045,0.957,0.234
17.841,-0.014,0.965,0.250
17.851,-0.059,0.992,0.238
17.861,-0.123,0.994,0.254
17.871,-0.135,0.982,0.287
17.881,-0.141,0.980,0.279
17.891,-0.133,0.986,0.277
17.901,-0.119,0.982,0.289
17.911,-0.074,0.967,0.289
17.921,-0.047,0.953,0.266
17.931,-0.051,0.938,0.248
17.940,-0.086,0.934,0.238
17.950,-0.127,0.918,0.227
17.960,-0.139,0.908,0.229
17.970,-0.137,0.914,0.213
17.980,-0.133,0.926,0.201
17.990,-0.137,0.930,0.203
18.000,-0.148,0.936,0.205
18.010,-0.148,0.939,0.207
18.020,-0.150,0.939,0.203
18.030,-0.154,0.928,0.201
18.040,-0.152,0.928,0.203
18.050,-0.145,0.924,0.199
18.060,-0.152,0.922,0.174
18.069,-0.217,0.930,0.164
18.079,-0.273,0.936,0.170
18.089,-0.283,0.928,0.166
18.099,-0.262,0.910,0.150
18.109,-0.248,0.912,0.154
18.119,-0.246,0.916,0.158
18.129,-0.234,0.914,0.166
18.139,-0.217,0.908,0.174
18.149,-0.189,0.898,0.180
18.159,-0.164,0.895,0.178
18.169,-0.158,0.906,0.178
18.179,-0.152,0.916,0.180
18.189,-0.143,0.920,0.184
18.198,-0.141,0.928,0.174
18.208,-0.152,0.930,0.188
18.218,-0.148,0.918,0.197
18.228,-0.146,0.924,0.193
18.238,-0.156,0.932,0.191
18.248,-0.158,0.922,0.205
18.258,-0.139,0.918,0.199
18.268,-0.117,0.928,0.195
18.278,-0.104,0.932,0.193
18.288,-0.113,0.941,0.188
18.298,-0.145,0.939,0.191
18.308,-0.146,0.912,0.207
18.318,-0.129,0.902,0.209
18.327,-0.111,0.900,0.193
18.337,-0.107,0.916,0.180
18.347,-0.123,0.943,0.174
18.357,-0.135,0.961,0.186
18.367,-0.131,0.969,0.191
18.377,-0.133,0.971,0.189
18.387,-0.135,0.969,0.205
18.397,-0.123,0.969,0.209
18.407,-0.109,0.949,0.209
18.417,-0.096,0.930,0.211
18.427,-0.092,0.928,0.205
18.437,-0.090,0.930,0.189
18.447,-0.088,0.936,0.186
18.457,-0.084,0.945,0.182
18.466,-0.090,0.947,0.180
18.476,-0.105,0.939,0.176
18.486,-0.105,0.936,0.180
18.496,-0.107,0.930,0.170
18.506,-0.104,0.934,0.162
18.516,-0.119,0.932,0.152
18.526,-0.135,0.934,0.146
18.536,-0.133,0.924,0.148
18.546,-0.143,0.914,0.146
18.556,-0.154,0.914,0.143
18.566,-0.178,0.918,0.143
18.576,-0.195,0.916,0.143
18.586,-0.211,0.922,0.143
18.595,-0.221,0.932,0.145
18.605,-0.213,0.936,0.141
18.615,-0.209,0.928,0.143
18.625,-0.211,0.926,0.143
18.635,-0.201,0.928,0.146
18.645,-0.197,0.930,0.143
18.655,-0.193,0.930,0.145
18.665,-0.193,0.936,0.143
18.675,-0.205,0.936,0.139
18.685,-0.205,0.926,0.141
18.695,-0.199,0.920,0.145
18.705,-0.195,0.904,0.145
18.715,-0.188,0.904,0.141
18.724,-0.180,0.906,0.146
18.734,-0.176,0.916,0.143
18.744,-0.178,0.916,0.146
18.754,-0.182,0.914,0.154
18.764,-0.176,0.928,0.152
18.774,-0.172,0.938,0.156
18.784,-0.170,0.943,0.152
18.794,-0.170,0.941,0.154
18.804,-0.160,0.934,0.150
18.814,-0.156,0.928,0.150
18.824,-0.154,0.916,0.154
18.834,-0.148,0.912,0.164
18.844,-0.148,0.914,0.160
18.853,-0.164,0.924,0.162
18.863,-0.172,0.938,0.170
18.873,-0.172,0.939,0.174
18.883,-0.168,0.951,0.168
18.893,-0.172,0.965,0.176
18.903,-0.178,0.955,0.178
18.913,-0.160,0.943,0.176
18.923,-0.178,0.959,0.166
18.933,-0.209,0.963,0.180
18.943,-0.195,0.955,0.193
18.953,-0.178,0.941,0.186
18.963,-0.172,0.945,0.174
18.973,-0.180,0.936,0.191
18.982,-0.150,0.936,0.195
18.992,-0.160,0.953,0.176
19.002,-0.145,0.957,0.195
19.012,-0.115,0.949,0.203
19.022,-0.094,0.939,0.191
19.032,-0.084,0.938,0.195
19.042,-0.084,0.932,0.203
19.052,-0.078,0.934,0.197
19.062,-0.074,0.922,0.191
19.072,-0.082,0.906,0.195
19.082,-0.078,0.887,0.203
19.092,-0.064,0.877,0.197
19.102,-0.061,0.881,0.186
19.111,-0.066,0.889,0.188
19.121,-0.066,0.895,0.189
19.131,-0.064,0.896,0.184
19.141,-0.059,0.900,0.180
19.151,-0.078,0.910,0.172
19.161,-0.104,0.924,0.170
19.171,-0.127,0.928,0.166
19.181,-0.158,0.922,0.166
19.191,-0.186,0.924,0.164
19.201,-0.209,0.926,0.154
19.211,-0.248,0.943,0.146
19.221,-0.287,0.957,0.141
19.231,-0.312,0.963,0.141
19.241,-0.324,0.969,0.143
19.250,-0.330,0.965,0.143
19.260,-0.324,0.959,0.146
19.270,-0.314,0.953,0.152
19.280,-0.287,0.941,0.152
19.290,-0.262,0.930,0.154
19.300,-0.230,0.922,0.158
19.310,-0.205,0.914,0.154
19.320,-0.180,0.912,0.156
19.330,-0.154,0.912,0.158
19.340,-0.137,0.910,0.158
19.350,-0.131,0.916,0.158
19.360,-0.127,0.914,0.162
19.370,-0.127,0.910,0.164
19.379,-0.127,0.908,0.166
19.389,-0.133,0.912,0.166
19.399,-0.146,0.916,0.166
19.409,-0.168,0.926,0.166
19.419,-0.186,0.930,0.170
19.429,-0.199,0.938,0.168
19.439,-0.217,0.941,0.168
19.449,-0.227,0.943,0.166
19.459,-0.230,0.945,0.166
19.469,-0.230,0.941,0.164
19.479,-0.219,0.932,0.166
19.489,-0.217,0.932,0.168
19.499,-0.209,0.938,0.168
19.508,-0.209,0.938,0.164
19.518,-0.219,0.930,0.166
19.528,-0.215,0.928,0.168
19.538,-0.211,0.924,0.166
19.548,-0.205,0.922,0.166
19.558,-0.191,0.916,0.176
19.568,-0.176,0.914,0.178
19.578,-0.170,0.912,0.178
19.588,-0.164,0.920,0.180
19.598,-0.158,0.920,0.176
19.608,-0.160,0.926,0.176
19.618,-0.170,0.922,0.182
19.628,-0.170,0.924,0.184
19.637,-0.188,0.924,0.178
19.647,-0.213,0.920,0.180
19.657,-0.225,0.918,0.180
19.667,-0.238,0.922,0.176
19.677,-0.229,0.920,0.176
19.687,-0.219,0.922,0.174
19.697,-0.215,0.926,0.168
19.707,-0.219,0.932,0.174
19.717,-0.229,0.928,0.168
19.727,-0.242,0.924,0.174
19.737,-0.248,0.926,0.170
19.747,-0.252,0.928,0.172
19.757,-0.246,0.916,0.176
19.766,-0.234,0.908,0.182
19.776,-0.219,0.914,0.180
19.786,-0.213,0.916,0.172
19.796,-0.217,0.916,0.174
19.806,-0.229,0.906,0.176
19.816,-0.230,0.902,0.178
19.826,-0.229,0.908,0.186
19.836,-0.213,0.914,0.189
19.846,-0.203,0.928,0.189
19.856,-0.201,0.926,0.188
19.866,-0.213,0.926,0.189
19.876,-0.223,0.928,0.193
19.886,-0.229,0.928,0.193
19.896,-0.236,0.922,0.191
19.905,-0.234,0.916,0.195
19.915,-0.230,0.910,0.197
19.925,-0.219,0.904,0.197
19.935,-0.215,0.908,0.193
19.945,-0.219,0.912,0.189
19.955,-0.230,0.912,0.191
19.965,-0.246,0.914,0.197
19.975,-0.250,0.918,0.199
19.985,-0.244,0.922,0.199
19.995,-0.240,0.922,0.201
20.005,-0.232,0.920,0.201
20.015,-0.225,0.914,0.207
20.025,-0.219,0.908,0.205
20.034,-0.223,0.912,0.203
20.044,-0.232,0.908,0.203
20.054,-0.242,0.910,0.207
20.064,-0.248,0.908,0.201
20.074,-0.250,0.910,0.203
20.084,-0.242,0.912,0.203
20.094,-0.240,0.918,0.199
20.104,-0.236,0.918,0.201
20.114,-0.240,0.914,0.209
20.124,-0.250,0.912,0.211
20.134,-0.260,0.906,0.207
20.144,-0.270,0.908,0.215
20.154,-0.275,0.910,0.213
20.163,-0.271,0.910,0.211
20.173,-0.270,0.906,0.207
20.183,-0.264,0.904,0.209
20.193,-0.258,0.906,0.207
20.203,-0.254,0.906,0.209
20.213,-0.248,0.908,0.209
20.223,-0.248,0.908,0.211
20.233,-0.252,0.902,0.213
20.243,-0.262,0.900,0.215
20.253,-0.260,0.906,0.213
20.263,-0.264,0.904,0.211
20.273,-0.271,0.904,0.219
20.283,-0.273,0.906,0.223
20.292,-0.266,0.904,0.221
20.302,-0.258,0.906,0.215
20.312,-0.260,0.914,0.217
20.322,-0.262,0.910,0.221
20.332,-0.260,0.910,0.215
20.342,-0.260,0.916,0.217
20.352,-0.271,0.916,0.215
20.362,-0.279,0.912,0.213
20.372,-0.277,0.910,0.217
20.382,-0.275,0.908,0.215
20.392,-0.270,0.908,0.215
20.402,-0.262,0.906,0.211
20.412,-0.260,0.910,0.215
20.421,-0.258,0.908,0.213
20.431,-0.262,0.906,0.215
20.441,-0.262,0.902,0.219
20.451,-0.254,0.900,0.215
20.461,-0.260,0.904,0.217
20.471,-0.260,0.906,0.213
20.481,-0.260,0.902,0.215
20.491,-0.260,0.906,0.221
20.501,-0.260,0.912,0.219
20.511,-0.258,0.910,0.215
20.521,-0.256,0.904,0.211
20.531,-0.256,0.902,0.213
20.541,-0.252,0.906,0.213
20.551,-0.256,0.902,0.211
20.560,-0.260,0.902,0.211
20.570,-0.268,0.910,0.209
20.580,-0.266,0.914,0.209
20.590,-0.260,0.914,0.205
20.600,-0.256,0.912,0.203
20.610,-0.252,0.908,0.207
20.620,-0.254,0.908,0.207
20.630,-0.246,0.908,0.207
20.640,-0.246,0.904,0.205
20.650,-0.246,0.906,0.207
20.660,-0.252,0.904,0.207
20.670,-0.256,0.906,0.205
20.680,-0.258,0.910,0.205
20.689,-0.254,0.910,0.203
20.699,-0.248,0.910,0.205
20.709,-0.240,0.912,0.211
20.719,-0.242,0.912,0.205
20.729,-0.242,0.908,0.205
20.739,-0.252,0.906,0.209
20.749,-0.254,0.908,0.207
20.759,-0.256,0.912,0.209
20.769,-0.256,0.912,0.209
20.779,-0.254,0.912,0.203
20.789,-0.244,0.914,0.203
20.799,-0.244,0.916,0.203
20.809,-0.244,0.910,0.201
20.818,-0.246,0.910,0.203
20.828,-0.250,0.910,0.205
20.838,-0.248,0.910,0.205
20.848,-0.246,0.910,0.201
20.858,-0.242,0.910,0.199
20.868,-0.246,0.910,0.201
20.878,-0.248,0.912,0.201
20.888,-0.248,0.908,0.201
20.898,-0.250,0.908,0.199
20.908,-0.246,0.908,0.199
20.918,-0.248,0.910,0.203
20.928,-0.246,0.910,0.201
20.938,-0.248,0.908,0.201
20.947,-0.246,0.910,0.203
20.957,-0.246,0.912,0.201
20.967,-0.244,0.914,0.201
20.977,-0.248,0.914,0.203
20.987,-0.250,0.914,0.201
20.997,-0.248,0.914,0.201
21.007,-0.244,0.914,0.205
21.017,-0.244,0.914,0.201
21.027,-0.238,0.910,0.197
21.037,-0.238,0.908,0.201
21.047,-0.240,0.906,0.199
21.057,-0.242,0.906,0.203
21.067,-0.240,0.910,0.201
21.076,-0.244,0.912,0.203
21.086,-0.248,0.910,0.203
21.096,-0.246,0.914,0.205
21.106,-0.248,0.916,0.205
21.116,-0.242,0.914,0.205
21.126,-0.240,0.912,0.203
21.136,-0.244,0.912,0.201
21.146,-0.246,0.914,0.203
21.156,-0.252,0.912,0.207
21.166,-0.258,0.916,0.209
21.176,-0.256,0.912,0.211
21.186,-0.252,0.906,0.209
21.196,-0.252,0.908,0.209
21.206,-0.250,0.910,0.211
21.215,-0.250,0.910,0.205
21.225,-0.250,0.910,0.203
21.235,-0.248,0.906,0.207
21.245,-0.252,0.904,0.205
21.255,-0.254,0.902,0.205
21.265,-0.252,0.904,0.205
21.275,-0.250,0.906,0.201
21.285,-0.248,0.908,0.201
21.295,-0.250,0.908,0.203
21.305,-0.250,0.910,0.205
21.315,-0.250,0.908,0.203
21.325,-0.252,0.910,0.209
21.335,-0.250,0.910,0.209
21.344,-0.250,0.912,0.205
21.354,-0.248,0.910,0.207
21.364,-0.252,0.908,0.205
21.374,-0.254,0.902,0.205
21.384,-0.252,0.906,0.207
21.394,-0.248,0.904,0.209
21.404,-0.244,0.902,0.207
21.414,-0.242,0.912,0.211
21.424,-0.250,0.920,0.205
21.434,-0.250,0.920,0.215
21.444,-0.254,0.916,0.211
21.454,-0.256,0.914,0.213
21.464,-0.254,0.912,0.211
21.473,-0.254,0.912,0.211
21.483,-0.252,0.912,0.209
21.493,-0.254,0.910,0.207
21.503,-0.252,0.910,0.209
21.513,-0.246,0.912,0.203
21.523,-0.250,0.910,0.205
21.533,-0.252,0.908,0.203
21.543,-0.256,0.906,0.205
21.553,-0.260,0.906,0.209
21.563,-0.256,0.908,0.209
21.573,-0.252,0.904,0.211
21.583,-0.250,0.904,0.213
21.593,-0.246,0.902,0.209
21.602,-0.234,0.900,0.205
21.612,-0.238,0.904,0.207
21.622,-0.244,0.906,0.207
21.632,-0.246,0.910,0.207
21.642,-0.258,0.908,0.207
21.652,-0.258,0.906,0.211
21.662,-0.262,0.914,0.211
21.672,-0.260,0.914,0.207
21.682,-0.258,0.920,0.211
21.692,-0.254,0.920,0.211
21.702,-0.246,0.916,0.211
21.712,-0.242,0.912,0.211
21.722,-0.240,0.908,0.207
21.731,-0.244,0.910,0.207
21.741,-0.248,0.908,0.209
21.751,-0.250,0.908,0.207
21.761,-0.252,0.912,0.205
21.771,-0.248,0.912,0.205
21.781,-0.246,0.910,0.209
21.791,-0.244,0.910,0.207
21.801,-0.242,0.914,0.203
21.811,-0.240,0.908,0.201
21.821,-0.238,0.910,0.207
21.831,-0.240,0.908,0.205
21.841,-0.242,0.908,0.205
21.851,-0.240,0.910,0.205
21.861,-0.244,0.910,0.203
21.870,-0.246,0.910,0.205
21.880,-0.250,0.908,0.205
21.890,-0.250,0.908,0.201
21.900,-0.248,0.910,0.201
21.910,-0.242,0.910,0.201
21.920,-0.242,0.910,0.203
21.930,-0.242,0.912,0.203
21.940,-0.240,0.910,0.201
21.950,-0.246,0.912,0.201
21.960,-0.248,0.912,0.205
21.970,-0.246,0.912,0.203
21.980,-0.248,0.914,0.201
21.990,-0.252,0.912,0.201
21.999,-0.250,0.910,0.205
22.009,-0.248,0.906,0.201
22.019,-0.244,0.906,0.201
22.029,-0.242,0.910,0.203
22.039,-0.244,0.908,0.201
22.049,-0.242,0.908,0.207
22.059,-0.240,0.912,0.205
22.069,-0.244,0.912,0.201
22.079,-0.248,0.916,0.203
22.089,-0.244,0.914,0.203
22.099,-0.244,0.914,0.205
22.109,-0.244,0.910,0.205
22.119,-0.236,0.908,0.203
22.128,-0.238,0.906,0.203
22.138,-0.236,0.908,0.199
22.148,-0.234,0.908,0.201
22.158,-0.240,0.910,0.201
22.168,-0.240,0.908,0.203
22.178,-0.240,0.916,0.205
22.188,-0.238,0.918,0.203
22.198,-0.238,0.918,0.203
22.208,-0.238,0.918,0.201
22.218,-0.238,0.918,0.203
22.228,-0.238,0.918,0.201
22.238,-0.242,0.918,0.205
22.248,-0.240,0.914,0.203
22.257,-0.238,0.914,0.199
22.267,-0.234,0.906,0.199
22.277,-0.236,0.914,0.201
22.287,-0.238,0.912,0.199
22.297,-0.234,0.912,0.197
22.307,-0.234,0.914,0.199
22.317,-0.234,0.916,0.199
22.327,-0.232,0.914,0.195
22.337,-0.234,0.912,0.197
22.347,-0.238,0.914,0.197
22.357,-0.238,0.916,0.201
22.367,-0.244,0.918,0.201
22.377,-0.240,0.916,0.195
22.386,-0.234,0.916,0.199
22.396,-0.232,0.908,0.195
22.406,-0.232,0.906,0.195
22.416,-0.230,0.908,0.203
22.426,-0.227,0.910,0.201
22.436,-0.225,0.908,0.199
22.446,-0.230,0.920,0.201
22.456,-0.232,0.926,0.195
22.466,-0.234,0.922,0.197
22.476,-0.232,0.920,0.201
22.486,-0.232,0.920,0.199
22.496,-0.236,0.920,0.197
22.506,-0.236,0.920,0.199
22.515,-0.238,0.916,0.197
22.525,-0.236,0.912,0.199
22.535,-0.238,0.918,0.201
22.545,-0.240,0.918,0.193
22.555,-0.242,0.916,0.195
22.565,-0.242,0.916,0.195
22.575,-0.240,0.912,0.191
22.585,-0.238,0.910,0.195
22.595,-0.234,0.904,0.195
22.605,-0.230,0.904,0.193
22.615,-0.230,0.904,0.199
22.625,-0.232,0.906,0.197
22.635,-0.238,0.908,0.199
22.645,-0.238,0.912,0.193
22.654,-0.242,0.916,0.201
22.664,-0.240,0.916,0.195
22.674,-0.244,0.912,0.195
22.684,-0.240,0.912,0.205
22.694,-0.240,0.914,0.197
22.704,-0.234,0.912,0.199
22.714,-0.240,0.924,0.199
22.724,-0.236,0.922,0.191
22.734,-0.236,0.918,0.199
22.744,-0.238,0.916,0.201
22.754,-0.236,0.914,0.199
22.764,-0.238,0.910,0.201
22.774,-0.236,0.908,0.203
22.783,-0.236,0.914,0.201
22.793,-0.234,0.914,0.199
22.803,-0.240,0.914,0.203
22.813,-0.236,0.916,0.203
22.823,-0.236,0.912,0.203
22.833,-0.238,0.914,0.207
22.843,-0.238,0.914,0.205
22.853,-0.236,0.914,0.203
22.863,-0.236,0.914,0.205
22.873,-0.238,0.912,0.203
22.883,-0.240,0.916,0.203
22.893,-0.240,0.912,0.203
22.903,-0.240,0.910,0.203
22.912,-0.240,0.916,0.203
22.922,-0.236,0.916,0.199
22.932,-0.236,0.912,0.199
22.942,-0.232,0.916,0.201
22.952,-0.234,0.914,0.201
22.962,-0.234,0.916,0.203
22.972,-0.240,0.916,0.201
22.982,-0.244,0.916,0.201
22.992,-0.248,0.914,0.203
23.002,-0.248,0.916,0.205
23.012,-0.248,0.910,0.201
23.022,-0.244,0.908,0.201
23.032,-0.238,0.908,0.201
23.041,-0.238,0.910,0.195
23.051,-0.236,0.910,0.197
23.061,-0.240,0.914,0.199
23.071,-0.238,0.912,0.199
23.081,-0.242,0.912,0.195
23.091,-0.242,0.912,0.195
23.101,-0.244,0.912,0.201
23.111,-0.238,0.912,0.201
23.121,-0.236,0.914,0.201
23.131,-0.236,0.912,0.199
23.141,-0.232,0.912,0.195
23.151,-0.230,0.912,0.199
23.161,-0.234,0.916,0.201
23.170,-0.236,0.914,0.199
23.180,-0.240,0.914,0.201
23.190,-0.234,0.916,0.197
23.200,-0.236,0.914,0.197
23.210,-0.238,0.914,0.197
23.220,-0.236,0.914,0.199
23.230,-0.232,0.914,0.197
23.240,-0.232,0.912,0.195
23.250,-0.238,0.912,0.195
23.260,-0.236,0.914,0.197
23.270,-0.236,0.920,0.203
23.280,-0.236,0.920,0.197
23.290,-0.234,0.916,0.197
23.300,-0.232,0.914,0.199
23.309,-0.232,0.912,0.195
23.319,-0.238,0.908,0.197
23.329,-0.240,0.908,0.203
23.339,-0.236,0.910,0.207
23.349,-0.234,0.910,0.201
23.359,-0.232,0.916,0.199
23.369,-0.230,0.924,0.195
23.379,-0.234,0.924,0.195
23.389,-0.234,0.920,0.197
23.399,-0.236,0.920,0.197
23.409,-0.236,0.916,0.197
23.419,-0.240,0.912,0.203
23.429,-0.240,0.912,0.197
23.438,-0.240,0.916,0.197
23.448,-0.240,0.914,0.195
23.458,-0.236,0.916,0.191
23.468,-0.234,0.918,0.193
23.478,-0.236,0.916,0.193
23.488,-0.240,0.916,0.193
23.498,-0.238,0.908,0.195
23.508,-0.236,0.908,0.191
23.518,-0.236,0.904,0.197
23.528,-0.232,0.904,0.195
23.538,-0.230,0.910,0.195
23.548,-0.234,0.910,0.197
23.558,-0.236,0.914,0.197
23.567,-0.240,0.918,0.203
23.577,-0.242,0.920,0.199
23.587,-0.246,0.916,0.201
23.597,-0.240,0.912,0.203
23.607,-0.229,0.914,0.205
23.617,-0.223,0.914,0.201
23.627,-0.221,0.920,0.199
23.637,-0.229,0.922,0.197
23.647,-0.225,0.920,0.195
23.657,-0.227,0.922,0.197
23.667,-0.229,0.922,0.199
23.677,-0.236,0.918,0.195
23.687,-0.232,0.916,0.199
23.696,-0.232,0.912,0.195
23.706,-0.234,0.914,0.197
23.716,-0.232,0.916,0.197
23.726,-0.234,0.918,0.197
23.736,-0.236,0.916,0.195
23.746,-0.238,0.918,0.193
23.756,-0.240,0.916,0.189
23.766,-0.238,0.912,0.195
23.776,-0.236,0.916,0.191
23.786,-0.238,0.910,0.195
23.796,-0.238,0.914,0.193
23.806,-0.242,0.914,0.191
23.816,-0.238,0.914,0.191
23.825,-0.240,0.914,0.189
23.835,-0.240,0.914,0.189
23.845,-0.236,0.914,0.188
23.855,-0.238,0.918,0.188
23.865,-0.232,0.912,0.188
23.875,-0.234,0.916,0.188
23.885,-0.234,0.920,0.186
23.895,-0.240,0.912,0.188
23.905,-0.240,0.910,0.189
23.915,-0.244,0.912,0.189
23.925,-0.240,0.914,0.186
23.935,-0.232,0.908,0.186
23.945,-0.230,0.910,0.188
23.955,-0.229,0.914,0.189
23.964,-0.234,0.916,0.189
23.974,-0.238,0.918,0.193
23.984,-0.240,0.916,0.191
23.994,-0.238,0.920,0.188
24.004,-0.240,0.924,0.195
24.014,-0.240,0.924,0.191
24.024,-0.244,0.926,0.197
24.034,-0.240,0.922,0.191
24.044,-0.244,0.922,0.193
24.054,-0.242,0.918,0.195
24.064,-0.240,0.916,0.199
24.074,-0.238,0.910,0.193
24.084,-0.236,0.908,0.193
24.093,-0.232,0.910,0.188
24.103,-0.236,0.912,0.189
24.113,-0.238,0.912,0.188
24.123,-0.242,0.914,0.186
24.133,-0.240,0.912,0.188
24.143,-0.240,0.910,0.184
24.153,-0.238,0.910,0.188
24.163,-0.232,0.908,0.188
24.173,-0.236,0.916,0.188
24.183,-0.232,0.914,0.186
24.193,-0.234,0.912,0.186
24.203,-0.232,0.908,0.184
24.213,-0.240,0.916,0.182
24.222,-0.246,0.914,0.186
24.232,-0.246,0.912,0.184
24.242,-0.240,0.910,0.189
24.252,-0.236,0.910,0.186
24.262,-0.236,0.916,0.186
24.272,-0.236,0.920,0.188
24.282,-0.236,0.920,0.189
24.292,-0.240,0.918,0.188
24.302,-0.242,0.918,0.189
24.312,-0.246,0.916,0.184
24.322,-0.244,0.918,0.182
24.332,-0.240,0.920,0.184
24.342,-0.238,0.920,0.180
24.351,-0.240,0.920,0.182
24.361,-0.242,0.920,0.184
24.371,-0.240,0.916,0.180
24.381,-0.244,0.914,0.180
24.391,-0.244,0.910,0.184
24.401,-0.240,0.912,0.184
24.411,-0.238,0.910,0.186
24.421,-0.242,0.914,0.182
24.431,-0.238,0.914,0.184
24.441,-0.234,0.914,0.186
24.451,-0.232,0.914,0.184
24.461,-0.230,0.916,0.184
24.471,-0.234,0.916,0.186
24.480,-0.238,0.920,0.186
24.490,-0.242,0.918,0.186
24.500,-0.248,0.914,0.189
24.510,-0.244,0.920,0.189
24.520,-0.244,0.910,0.184
24.530,-0.242,0.916,0.186
24.540,-0.240,0.922,0.184
24.550,-0.232,0.924,0.180
24.560,-0.229,0.922,0.186
24.570,-0.230,0.922,0.182
24.580,-0.232,0.916,0.182
24.590,-0.236,0.916,0.184
24.600,-0.236,0.916,0.184
24.610,-0.240,0.916,0.184
24.619,-0.234,0.916,0.184
24.629,-0.232,0.916,0.184
24.639,-0.227,0.916,0.186
24.649,-0.223,0.920,0.184
24.659,-0.221,0.922,0.184
24.669,-0.223,0.924,0.184
24.679,-0.223,0.920,0.186
24.689,-0.221,0.920,0.186
24.699,-0.223,0.926,0.184
24.709,-0.223,0.926,0.186
24.719,-0.234,0.926,0.186
24.729,-0.232,0.922,0.188
24.739,-0.240,0.914,0.178
24.748,-0.248,0.906,0.178
24.758,-0.250,0.914,0.176
24.768,-0.252,0.918,0.168
24.778,-0.250,0.918,0.172
24.788,-0.246,0.910,0.168
24.798,-0.250,0.908,0.168
24.808,-0.254,0.908,0.170
24.818,-0.252,0.908,0.172
24.828,-0.248,0.902,0.170
24.838,-0.238,0.906,0.170
24.848,-0.240,0.906,0.170
24.858,-0.238,0.908,0.170
24.868,-0.236,0.908,0.174
24.877,-0.232,0.910,0.172
24.887,-0.225,0.916,0.174
24.897,-0.221,0.912,0.176
24.907,-0.223,0.918,0.178
24.917,-0.230,0.920,0.180
24.927,-0.238,0.922,0.180
24.937,-0.242,0.922,0.182
24.947,-0.244,0.922,0.184
24.957,-0.240,0.922,0.182
24.967,-0.240,0.922,0.184
24.977,-0.238,0.930,0.188
24.987,-0.242,0.930,0.184
24.997,-0.236,0.926,0.180
25.006,-0.238,0.924,0.184
25.016,-0.234,0.926,0.182
25.026,-0.234,0.922,0.180
25.036,-0.234,0.920,0.188
25.046,-0.223,0.924,0.188
25.056,-0.195,0.924,0.180
25.066,-0.172,0.932,0.172
25.076,-0.176,0.928,0.164
25.086,-0.160,0.938,0.170
25.096,-0.146,0.963,0.166
25.106,-0.131,1.006,0.156
25.116,-0.141,1.014,0.158
25.126,-0.166,0.998,0.172
25.135,-0.193,0.957,0.189
25.145,-0.219,0.934,0.193
25.155,-0.246,0.924,0.193
25.165,-0.254,0.914,0.193
25.175,-0.273,0.916,0.193
25.185,-0.283,0.908,0.188
25.195,-0.299,0.898,0.184
25.205,-0.316,0.887,0.180
25.215,-0.330,0.885,0.184
25.225,-0.350,0.881,0.178
25.235,-0.348,0.891,0.176
25.245,-0.357,0.895,0.170
25.255,-0.357,0.877,0.174
25.265,-0.352,0.873,0.180
25.274,-0.338,0.875,0.174
25.284,-0.314,0.893,0.162
25.294,-0.307,0.906,0.154
25.304,-0.309,0.914,0.160
25.314,-0.316,0.902,0.162
25.324,-0.320,0.887,0.162
25.334,-0.322,0.889,0.164
25.344,-0.328,0.887,0.160
25.354,-0.326,0.889,0.156
25.364,-0.320,0.885,0.154
25.374,-0.312,0.889,0.146
25.384,-0.309,0.887,0.141
25.394,-0.301,0.891,0.141
25.403,-0.289,0.900,0.133
25.413,-0.287,0.908,0.129
25.423,-0.289,0.906,0.129
25.433,-0.289,0.904,0.125
25.443,-0.285,0.900,0.121
25.453,-0.281,0.896,0.119
25.463,-0.277,0.906,0.117
25.473,-0.270,0.914,0.111
25.483,-0.262,0.930,0.109
25.493,-0.256,0.932,0.105
25.503,-0.254,0.930,0.109
25.513,-0.252,0.924,0.111
25.523,-0.252,0.916,0.115
25.532,-0.258,0.898,0.115
25.542,-0.268,0.893,0.109
25.552,-0.270,0.895,0.100
25.562,-0.275,0.898,0.092
25.572,-0.273,0.904,0.094
25.582,-0.266,0.896,0.098
25.592,-0.273,0.887,0.105
25.602,-0.271,0.877,0.113
25.612,-0.271,0.875,0.109
25.622,-0.264,0.885,0.109
25.632,-0.250,0.889,0.107
25.642,-0.230,0.898,0.100
25.652,-0.217,0.900,0.098
25.661,-0.199,0.906,0.098
25.671,-0.197,0.922,0.094
25.681,-0.199,0.920,0.098
25.691,-0.203,0.926,0.102
25.701,-0.223,0.928,0.105
25.711,-0.240,0.934,0.111
25.721,-0.258,0.928,0.111
25.731,-0.271,0.928,0.121
25.741,-0.277,0.928,0.123
25.751,-0.273,0.924,0.127
25.761,-0.264,0.914,0.129
25.771,-0.256,0.912,0.123
25.781,-0.242,0.922,0.121
25.790,-0.240,0.920,0.115
25.800,-0.246,0.924,0.115
25.810,-0.254,0.930,0.115
25.820,-0.256,0.938,0.117
25.830,-0.256,0.934,0.123
25.840,-0.256,0.939,0.119
25.850,-0.252,0.945,0.123
25.860,-0.250,0.951,0.125
25.870,-0.252,0.957,0.123
25.880,-0.248,0.953,0.123
25.890,-0.234,0.951,0.129
25.900,-0.215,0.947,0.129
25.910,-0.203,0.936,0.129
25.920,-0.211,0.934,0.127
25.929,-0.221,0.930,0.123
25.939,-0.234,0.922,0.127
25.949,-0.227,0.924,0.123
25.959,-0.232,0.932,0.115
25.969,-0.244,0.932,0.115
25.979,-0.250,0.924,0.119
25.989,-0.248,0.928,0.121
25.999,-0.252,0.920,0.121
26.009,-0.258,0.918,0.117
26.019,-0.264,0.912,0.123
26.029,-0.270,0.904,0.123
26.039,-0.275,0.904,0.121
26.049,-0.275,0.906,0.121
26.058,-0.281,0.908,0.123
26.068,-0.277,0.910,0.121
26.078,-0.268,0.908,0.125
26.088,-0.256,0.914,0.127
26.098,-0.254,0.910,0.125
26.108,-0.250,0.918,0.125
26.118,-0.254,0.922,0.131
26.128,-0.254,0.928,0.133
26.138,-0.254,0.941,0.133
26.148,-0.264,0.953,0.131
26.158,-0.271,0.961,0.133
26.168,-0.275,0.965,0.125
26.178,-0.275,0.967,0.121
26.187,-0.271,0.955,0.125
26.197,-0.262,0.939,0.123
26.207,-0.244,0.938,0.117
26.217,-0.234,0.938,0.117
26.227,-0.234,0.939,0.105
26.237,-0.234,0.936,0.102
26.247,-0.242,0.928,0.098
26.257,-0.244,0.924,0.090
26.267,-0.244,0.912,0.086
26.277,-0.246,0.891,0.080
26.287,-0.244,0.883,0.074
26.297,-0.244,0.885,0.064
26.307,-0.248,0.887,0.057
26.316,-0.242,0.889,0.059
26.326,-0.242,0.898,0.053
26.336,-0.234,0.900,0.055
26.346,-0.229,0.904,0.061
26.356,-0.234,0.906,0.061
26.366,-0.248,0.906,0.059
26.376,-0.252,0.910,0.059
26.386,-0.266,0.908,0.057
26.396,-0.277,0.912,0.061
26.406,-0.285,0.918,0.061
26.416,-0.293,0.922,0.061
26.426,-0.297,0.922,0.062
26.436,-0.297,0.922,0.066
26.445,-0.295,0.920,0.066
26.455,-0.289,0.914,0.070
26.465,-0.279,0.924,0.074
26.475,-0.273,0.930,0.066
26.485,-0.268,0.926,0.070
26.495,-0.266,0.926,0.070
26.505,-0.264,0.924,0.068
26.515,-0.264,0.920,0.066
26.525,-0.266,0.914,0.070
26.535,-0.270,0.912,0.070
26.545,-0.268,0.910,0.072
26.555,-0.262,0.914,0.074
26.565,-0.262,0.918,0.068
26.574,-0.252,0.926,0.066
26.584,-0.256,0.932,0.057
26.594,-0.262,0.928,0.059
26.604,-0.271,0.928,0.057
26.614,-0.277,0.930,0.051
26.624,-0.285,0.918,0.053
26.634,-0.285,0.910,0.053
26.644,-0.279,0.908,0.049
26.654,-0.279,0.910,0.049
26.664,-0.275,0.908,0.047
26.674,-0.270,0.914,0.043
26.684,-0.262,0.914,0.047
26.694,-0.256,0.914,0.045
26.704,-0.250,0.916,0.045
26.713,-0.250,0.914,0.047
26.723,-0.246,0.914,0.049
26.733,-0.250,0.912,0.047
26.743,-0.248,0.910,0.055
26.753,-0.248,0.916,0.055
26.763,-0.246,0.918,0.051
26.773,-0.248,0.926,0.053
26.783,-0.248,0.918,0.053
26.793,-0.254,0.924,0.057
26.803,-0.262,0.924,0.057
26.813,-0.270,0.918,0.061
26.823,-0.273,0.926,0.057
26.833,-0.275,0.930,0.057
26.842,-0.279,0.930,0.057
26.852,-0.281,0.934,0.059
26.862,-0.285,0.932,0.061
26.872,-0.277,0.922,0.062
26.882,-0.271,0.918,0.059
26.892,-0.271,0.918,0.061
26.902,-0.268,0.920,0.061
26.912,-0.268,0.924,0.061
26.922,-0.266,0.928,0.061
26.932,-0.256,0.926,0.057
26.942,-0.262,0.930,0.057
26.952,-0.264,0.930,0.061
26.962,-0.268,0.926,0.061
26.971,-0.264,0.916,0.061
26.981,-0.260,0.912,0.066
26.991,-0.270,0.906,0.066
27.001,-0.266,0.902,0.066
27.011,-0.268,0.898,0.062
27.021,-0.268,0.908,0.062
27.031,-0.273,0.912,0.057
27.041,-0.283,0.918,0.059
27.051,-0.279,0.918,0.049
27.061,-0.273,0.920,0.047
27.071,-0.264,0.930,0.047
27.081,-0.248,0.926,0.043
27.091,-0.240,0.932,0.045
27.100,-0.236,0.932,0.045
27.110,-0.230,0.938,0.045
27.120,-0.227,0.936,0.041
27.130,-0.229,0.939,0.047
27.140,-0.227,0.945,0.051
27.150,-0.230,0.941,0.047
27.160,-0.234,0.951,0.051
27.170,-0.236,0.947,0.051
27.180,-0.240,0.934,0.053
27.190,-0.236,0.924,0.057
27.200,-0.244,0.916,0.053
27.210,-0.246,0.912,0.051
27.220,-0.250,0.914,0.051
27.229,-0.252,0.914,0.051
27.239,-0.260,0.916,0.057
27.249,-0.264,0.916,0.059
27.259,-0.262,0.922,0.053
27.269,-0.264,0.926,0.055
27.279,-0.268,0.924,0.051
27.289,-0.266,0.922,0.057
27.299,-0.260,0.922,0.055
27.309,-0.258,0.916,0.053
27.319,-0.258,0.918,0.051
27.329,-0.260,0.912,0.053
27.339,-0.262,0.912,0.055
27.349,-0.260,0.914,0.053
27.359,-0.264,0.916,0.053
27.368,-0.264,0.922,0.055
27.378,-0.264,0.924,0.051
27.388,-0.270,0.922,0.053
27.398,-0.268,0.924,0.055
27.408,-0.268,0.922,0.053
27.418,-0.260,0.916,0.053
27.428,-0.248,0.914,0.055
27.438,-0.246,0.922,0.051
27.448,-0.246,0.924,0.049
27.458,-0.244,0.926,0.045
27.468,-0.252,0.918,0.043
27.478,-0.258,0.918,0.045
27.488,-0.256,0.924,0.045
27.497,-0.256,0.914,0.051
27.507,-0.256,0.922,0.049
27.517,-0.254,0.924,0.045
27.527,-0.256,0.926,0.051
27.537,-0.258,0.930,0.047
27.547,-0.252,0.930,0.049
27.557,-0.252,0.930,0.053
27.567,-0.250,0.930,0.051
27.577,-0.252,0.926,0.053
27.587,-0.252,0.924,0.055
27.597,-0.252,0.920,0.047
27.607,-0.250,0.922,0.049
27.617,-0.246,0.922,0.045
27.626,-0.246,0.926,0.047
27.636,-0.244,0.928,0.047
27.646,-0.244,0.924,0.049
27.656,-0.246,0.924,0.049
27.666,-0.248,0.926,0.051
27.676,-0.252,0.926,0.047
27.686,-0.256,0.924,0.047
27.696,-0.260,0.922,0.047
27.706,-0.260,0.922,0.049
27.716,-0.262,0.926,0.051
27.726,-0.258,0.926,0.047
27.736,-0.260,0.926,0.047
27.746,-0.258,0.926,0.043
27.755,-0.254,0.922,0.043
27.765,-0.252,0.920,0.045
27.775,-0.252,0.920,0.043
27.785,-0.248,0.920,0.043
27.795,-0.254,0.918,0.043
27.805,-0.252,0.922,0.043
27.815,-0.250,0.920,0.043
27.825,-0.250,0.920,0.041
27.835,-0.248,0.918,0.041
27.845,-0.250,0.922,0.045
27.855,-0.248,0.928,0.039
27.865,-0.250,0.924,0.043
27.875,-0.248,0.920,0.043
27.884,-0.252,0.920,0.043
27.894,-0.252,0.918,0.045
27.904,-0.254,0.914,0.043
27.914,-0.254,0.914,0.041
27.924,-0.252,0.916,0.047
27.934,-0.252,0.916,0.049
27.944,-0.250,0.920,0.049
27.954,-0.244,0.924,0.053
27.964,-0.252,0.930,0.049
27.974,-0.254,0.930,0.049
27.984,-0.256,0.928,0.051
27.994,-0.256,0.932,0.047
28.004,-0.256,0.928,0.053
28.014,-0.260,0.922,0.049
28.023,-0.258,0.922,0.051
28.033,-0.254,0.920,0.053
28.043,-0.252,0.920,0.047
28.053,-0.250,0.922,0.047
28.063,-0.250,0.922,0.047
28.073,-0.252,0.920,0.047
28.083,-0.252,0.920,0.049
28.093,-0.250,0.920,0.053
28.103,-0.254,0.920,0.051
28.113,-0.254,0.920,0.055
28.123,-0.254,0.922,0.057
28.133,-0.256,0.926,0.053
28.143,-0.252,0.928,0.055
28.152,-0.254,0.932,0.053
28.162,-0.258,0.928,0.053
28.172,-0.260,0.924,0.059
28.182,-0.260,0.926,0.055
28.192,-0.262,0.924,0.055
28.202,-0.256,0.916,0.057
28.212,-0.256,0.922,0.055
28.222,-0.258,0.926,0.051
28.232,-0.256,0.930,0.053
28.242,-0.254,0.928,0.055
28.252,-0.256,0.922,0.055
28.262,-0.256,0.918,0.057
28.272,-0.260,0.918,0.055
28.281,-0.264,0.908,0.057
28.291,-0.266,0.891,0.061
28.301,-0.260,0.887,0.055
28.311,-0.252,0.902,0.047
28.321,-0.252,0.902,0.045
28.331,-0.250,0.902,0.049
28.341,-0.248,0.906,0.043
28.351,-0.246,0.914,0.043
28.361,-0.246,0.924,0.051
28.371,-0.238,0.928,0.051
28.381,-0.236,0.939,0.057
28.391,-0.240,0.947,0.062
28.401,-0.244,0.947,0.064
28.410,-0.252,0.941,0.070
28.420,-0.258,0.943,0.072
28.430,-0.262,0.943,0.070
28.440,-0.268,0.941,0.076
28.450,-0.266,0.941,0.072
28.460,-0.260,0.939,0.072
28.470,-0.258,0.939,0.070
28.480,-0.252,0.938,0.066
28.490,-0.248,0.934,0.064
28.500,-0.250,0.932,0.062
28.510,-0.250,0.922,0.062
28.520,-0.252,0.920,0.064
28.530,-0.250,0.918,0.059
28.539,-0.254,0.912,0.055
28.549,-0.260,0.914,0.062
28.559,-0.260,0.912,0.062
28.569,-0.258,0.916,0.059
28.579,-0.262,0.916,0.055
28.589,-0.258,0.916,0.057
28.599,-0.254,0.914,0.055
28.609,-0.252,0.914,0.057
28.619,-0.252,0.916,0.057
28.629,-0.248,0.918,0.061
28.639,-0.254,0.922,0.059
28.649,-0.254,0.920,0.059
28.659,-0.254,0.924,0.061
28.669,-0.258,0.922,0.057
28.678,-0.260,0.926,0.059
28.688,-0.260,0.926,0.064
28.698,-0.258,0.922,0.062
28.708,-0.254,0.920,0.066
28.718,-0.252,0.926,0.064
28.728,-0.254,0.930,0.062
28.738,-0.256,0.930,0.059
28.748,-0.252,0.928,0.062
28.758,-0.252,0.924,0.061
28.768,-0.250,0.928,0.053
28.778,-0.256,0.924,0.061
28.788,-0.256,0.924,0.064
28.798,-0.260,0.918,0.057
28.807,-0.262,0.924,0.059
28.817,-0.260,0.920,0.057
28.827,-0.264,0.920,0.055
28.837,-0.262,0.920,0.059
28.847,-0.260,0.916,0.061
28.857,-0.254,0.918,0.059
28.867,-0.252,0.920,0.061
28.877,-0.250,0.918,0.059
28.887,-0.250,0.918,0.061
28.897,-0.252,0.920,0.059
28.907,-0.256,0.920,0.057
28.917,-0.254,0.922,0.059
28.927,-0.254,0.928,0.061
28.936,-0.258,0.926,0.061
28.946,-0.262,0.920,0.064
28.956,-0.258,0.924,0.062
28.966,-0.260,0.922,0.061
28.976,-0.262,0.918,0.061
28.986,-0.256,0.926,0.059
28.996,-0.256,0.924,0.055
29.006,-0.254,0.928,0.055
29.016,-0.252,0.926,0.059
29.026,-0.254,0.924,0.059
29.036,-0.254,0.926,0.057
29.046,-0.258,0.922,0.057
29.056,-0.254,0.922,0.061
29.065,-0.252,0.922,0.059
29.075,-0.252,0.926,0.053
29.085,-0.250,0.922,0.053
29.095,-0.246,0.924,0.055
29.105,-0.248,0.922,0.055
29.115,-0.250,0.920,0.055
29.125,-0.250,0.922,0.059
29.135,-0.254,0.920,0.059
29.145,-0.254,0.924,0.055
29.155,-0.256,0.922,0.055
29.165,-0.256,0.924,0.057
29.175,-0.254,0.920,0.051
29.185,-0.252,0.920,0.055
29.194,-0.254,0.924,0.055
29.204,-0.254,0.922,0.055
29.214,-0.256,0.926,0.053
29.224,-0.260,0.928,0.051
29.234,-0.254,0.924,0.055
29.244,-0.256,0.926,0.053
29.254,-0.256,0.922,0.053
29.264,-0.254,0.922,0.053
29.274,-0.254,0.920,0.057
29.284,-0.250,0.920,0.051
29.294,-0.248,0.924,0.057
29.304,-0.254,0.922,0.051
29.314,-0.254,0.918,0.059
29.323,-0.252,0.924,0.057
29.333,-0.250,0.926,0.055
29.343,-0.256,0.926,0.057
29.353,-0.254,0.922,0.059
29.363,-0.252,0.922,0.059
29.373,-0.254,0.926,0.061
29.383,-0.260,0.926,0.059
29.393,-0.258,0.922,0.059
29.403,-0.254,0.928,0.055
29.413,-0.250,0.934,0.057
29.423,-0.254,0.928,0.055
29.433,-0.254,0.926,0.057
29.443,-0.258,0.920,0.061
29.453,-0.256,0.912,0.059
29.462,-0.262,0.885,0.062
29.472,-0.254,0.863,0.064
29.482,-0.236,0.871,0.053
29.492,-0.232,0.881,0.045
29.502,-0.240,0.893,0.041
29.512,-0.242,0.912,0.035
29.522,-0.252,0.924,0.029
29.532,-0.252,0.926,0.041
29.542,-0.258,0.926,0.051
29.552,-0.262,0.936,0.059
29.562,-0.258,0.939,0.066
29.572,-0.262,0.947,0.074
29.582,-0.270,0.939,0.088
29.591,-0.281,0.936,0.096
29.601,-0.287,0.938,0.098
29.611,-0.295,0.943,0.107
29.621,-0.297,0.949,0.109
29.631,-0.291,0.945,0.105
29.641,-0.287,0.938,0.107
29.651,-0.285,0.934,0.105
29.661,-0.279,0.930,0.096
29.671,-0.273,0.924,0.100
29.681,-0.275,0.924,0.094
29.691,-0.275,0.916,0.100
29.701,-0.266,0.912,0.094
29.711,-0.264,0.918,0.090
29.720,-0.270,0.922,0.088
29.730,-0.268,0.920,0.090
29.740,-0.268,0.916,0.082
29.750,-0.264,0.916,0.080
29.760,-0.262,0.914,0.078
29.770,-0.262,0.908,0.080
29.780,-0.262,0.908,0.078
29.790,-0.258,0.912,0.078
29.800,-0.254,0.918,0.074
29.810,-0.262,0.918,0.072
29.820,-0.260,0.920,0.070
29.830,-0.266,0.918,0.070
29.840,-0.266,0.916,0.078
29.849,-0.266,0.916,0.076
29.859,-0.266,0.914,0.082
29.869,-0.268,0.912,0.082
29.879,-0.270,0.914,0.080
29.889,-0.266,0.914,0.080
29.899,-0.266,0.916,0.078
29.909,-0.271,0.916,0.080
29.919,-0.273,0.920,0.082
29.929,-0.277,0.918,0.078
29.939,-0.283,0.912,0.080
29.949,-0.277,0.918,0.084
29.959,-0.279,0.918,0.082
29.969,-0.277,0.916,0.084
29.978,-0.277,0.918,0.080
29.988,-0.275,0.918,0.080
29.998,-0.270,0.922,0.082
30.008,-0.268,0.922,0.078
30.018,-0.268,0.920,0.080
30.028,-0.270,0.918,0.080
30.038,-0.266,0.920,0.084
30.048,-0.268,0.918,0.082
30.058,-0.266,0.922,0.086
30.068,-0.268,0.918,0.080
30.078,-0.262,0.920,0.084
30.088,-0.260,0.926,0.080
30.098,-0.264,0.922,0.084
30.108,-0.264,0.922,0.080
30.117,-0.262,0.922,0.084
30.127,-0.266,0.924,0.082
30.137,-0.266,0.920,0.084
30.147,-0.268,0.918,0.080
30.157,-0.266,0.920,0.078
30.167,-0.268,0.920,0.076
30.177,-0.266,0.916,0.074
30.187,-0.271,0.920,0.072
30.197,-0.268,0.918,0.074
30.207,-0.270,0.920,0.070
30.217,-0.270,0.920,0.074
30.227,-0.270,0.918,0.072
30.237,-0.270,0.918,0.074
30.246,-0.268,0.920,0.070
30.256,-0.266,0.922,0.070
30.266,-0.270,0.918,0.072
30.276,-0.264,0.918,0.070
30.286,-0.260,0.918,0.074
30.296,-0.264,0.914,0.068
30.306,-0.264,0.918,0.070
30.316,-0.260,0.918,0.072
30.326,-0.264,0.920,0.070
30.336,-0.268,0.920,0.070
30.346,-0.270,0.918,0.072
30.356,-0.268,0.920,0.072
30.366,-0.266,0.918,0.072
30.375,-0.268,0.920,0.072
30.385,-0.268,0.918,0.080
30.395,-0.262,0.920,0.074
30.405,-0.258,0.922,0.076
30.415,-0.262,0.920,0.074
30.425,-0.260,0.922,0.080
30.435,-0.262,0.920,0.076
30.445,-0.264,0.922,0.074
30.455,-0.268,0.922,0.074
30.465,-0.262,0.922,0.076
30.475,-0.260,0.920,0.076
30.485,-0.266,0.922,0.074
30.495,-0.264,0.922,0.072
30.504,-0.266,0.920,0.076
30.514,-0.266,0.916,0.076
30.524,-0.266,0.916,0.078
30.534,-0.262,0.916,0.078
30.544,-0.262,0.922,0.078
30.554,-0.260,0.922,0.074
30.564,-0.266,0.924,0.074
30.574,-0.262,0.920,0.074
30.584,-0.264,0.918,0.074
30.594,-0.262,0.916,0.074
30.604,-0.262,0.922,0.076
30.614,-0.258,0.916,0.072
30.624,-0.262,0.914,0.076
30.633,-0.260,0.918,0.076
30.643,-0.262,0.914,0.076
30.653,-0.266,0.916,0.076
30.663,-0.271,0.922,0.078
30.673,-0.266,0.920,0.076
30.683,-0.268,0.918,0.078
30.693,-0.264,0.926,0.078
30.703,-0.262,0.928,0.076
30.713,-0.264,0.928,0.078
30.723,-0.260,0.926,0.080
30.733,-0.258,0.930,0.076
30.743,-0.264,0.928,0.072
30.753,-0.266,0.924,0.074
30.763,-0.266,0.924,0.078
30.772,-0.266,0.922,0.076
30.782,-0.266,0.920,0.074
30.792,-0.264,0.920,0.076
30.802,-0.258,0.920,0.076
30.812,-0.258,0.916,0.068
30.822,-0.256,0.914,0.078
30.832,-0.260,0.914,0.076
30.842,-0.260,0.910,0.074
30.852,-0.258,0.912,0.076
30.862,-0.260,0.914,0.076
30.872,-0.264,0.920,0.076
30.882,-0.268,0.920,0.078
30.892,-0.266,0.924,0.080
30.901,-0.264,0.926,0.076
30.911,-0.264,0.926,0.078
30.921,-0.268,0.924,0.076
30.931,-0.262,0.928,0.076
30.941,-0.258,0.924,0.076
30.951,-0.262,0.918,0.074
30.961,-0.264,0.924,0.070
30.971,-0.258,0.926,0.072
30.981,-0.256,0.928,0.072
30.991,-0.256,0.922,0.076
31.001,-0.254,0.922,0.072
31.011,-0.254,0.918,0.076
31.021,-0.254,0.918,0.072
31.030,-0.254,0.922,0.072
31.040,-0.256,0.922,0.072
31.050,-0.256,0.918,0.072
31.060,-0.256,0.924,0.072
31.070,-0.262,0.922,0.072
31.080,-0.258,0.920,0.074
31.090,-0.260,0.922,0.068
31.100,-0.258,0.924,0.072
31.110,-0.260,0.920,0.072
31.120,-0.254,0.924,0.074
31.130,-0.258,0.918,0.068
31.140,-0.260,0.918,0.070
31.150,-0.258,0.920,0.066
31.159,-0.262,0.920,0.062
31.169,-0.262,0.922,0.068
31.179,-0.260,0.914,0.066
31.189,-0.258,0.920,0.068
31.199,-0.260,0.922,0.072
31.209,-0.258,0.922,0.072
31.219,-0.258,0.924,0.070
31.229,-0.258,0.928,0.066
31.239,-0.258,0.924,0.068
31.249,-0.256,0.924,0.068
31.259,-0.254,0.920,0.070
31.269,-0.250,0.918,0.066
31.279,-0.250,0.924,0.066
31.288,-0.254,0.922,0.066
31.298,-0.256,0.922,0.068
31.308,-0.258,0.922,0.066
31.318,-0.256,0.926,0.070
31.328,-0.254,0.926,0.068
31.338,-0.264,0.924,0.070
31.348,-0.260,0.924,0.070
31.358,-0.258,0.920,0.068
31.368,-0.256,0.922,0.070
31.378,-0.256,0.922,0.070
31.388,-0.258,0.920,0.072
31.398,-0.254,0.922,0.066
31.408,-0.254,0.928,0.066
31.418,-0.258,0.924,0.070
31.427,-0.254,0.922,0.066
31.437,-0.252,0.924,0.064
31.447,-0.258,0.918,0.070
31.457,-0.254,0.920,0.070
31.467,-0.254,0.928,0.064
31.477,-0.254,0.926,0.066
31.487,-0.252,0.916,0.066
31.497,-0.248,0.916,0.066
31.507,-0.252,0.914,0.062
31.517,-0.260,0.914,0.066
31.527,-0.256,0.920,0.066
31.537,-0.254,0.922,0.066
31.547,-0.254,0.922,0.072
31.556,-0.252,0.920,0.072
31.566,-0.246,0.926,0.066
31.576,-0.248,0.928,0.061
31.586,-0.248,0.932,0.070
31.596,-0.250,0.930,0.068
31.606,-0.252,0.932,0.068
31.616,-0.250,0.932,0.064
31.626,-0.258,0.926,0.066
31.636,-0.258,0.926,0.070
31.646,-0.262,0.924,0.068
31.656,-0.256,0.922,0.068
31.666,-0.252,0.922,0.064
31.676,-0.258,0.924,0.062
31.685,-0.252,0.922,0.062
31.695,-0.256,0.920,0.062
31.705,-0.256,0.914,0.062
31.715,-0.258,0.920,0.062
31.725,-0.258,0.918,0.062
31.735,-0.260,0.920,0.064
31.745,-0.260,0.920,0.066
31.755,-0.252,0.924,0.062
31.765,-0.254,0.928,0.061
31.775,-0.262,0.922,0.061
31.785,-0.258,0.918,0.068
31.795,-0.248,0.926,0.066
31.805,-0.248,0.922,0.061
31.814,-0.248,0.926,0.066
31.824,-0.244,0.932,0.061
31.834,-0.244,0.928,0.061
31.844,-0.242,0.928,0.062
31.854,-0.242,0.924,0.061
31.864,-0.242,0.926,0.059
31.874,-0.252,0.920,0.061
31.884,-0.252,0.918,0.066
31.894,-0.248,0.916,0.064
31.904,-0.246,0.918,0.061
31.914,-0.250,0.922,0.057
31.924,-0.250,0.926,0.064
31.934,-0.246,0.928,0.062
31.943,-0.250,0.928,0.064
31.953,-0.250,0.928,0.064
31.963,-0.252,0.924,0.068
31.973,-0.252,0.926,0.068
31.983,-0.252,0.924,0.064
31.993,-0.252,0.926,0.066
32.003,-0.252,0.922,0.066
32.013,-0.250,0.928,0.061
32.023,-0.248,0.928,0.059
32.033,-0.248,0.928,0.057
32.043,-0.252,0.928,0.057
32.053,-0.248,0.928,0.055
32.063,-0.252,0.928,0.057
32.073,-0.244,0.928,0.053
32.082,-0.246,0.928,0.055
32.092,-0.250,0.924,0.062
32.102,-0.252,0.926,0.057
32.112,-0.252,0.924,0.057
32.122,-0.252,0.920,0.061
32.132,-0.250,0.922,0.059
32.142,-0.244,0.924,0.053
32.152,-0.244,0.920,0.053
32.162,-0.248,0.918,0.049
32.172,-0.246,0.916,0.051
32.182,-0.244,0.908,0.053
32.192,-0.244,0.920,0.055
32.202,-0.246,0.922,0.055
32.211,-0.244,0.920,0.051
32.221,-0.246,0.918,0.055
32.231,-0.252,0.924,0.051
32.241,-0.248,0.924,0.055
32.251,-0.244,0.920,0.053
32.261,-0.246,0.918,0.051
32.271,-0.248,0.916,0.051
32.281,-0.254,0.922,0.053
32.291,-0.254,0.924,0.055
32.301,-0.252,0.920,0.057
32.311,-0.248,0.920,0.055
32.321,-0.242,0.924,0.059
32.331,-0.234,0.928,0.059
32.340,-0.227,0.924,0.061
32.350,-0.221,0.926,0.061
32.360,-0.225,0.920,0.059
32.370,-0.219,0.918,0.066
32.380,-0.223,0.924,0.061
32.390,-0.232,0.928,0.062
32.400,-0.232,0.932,0.070
32.410,-0.232,0.930,0.066
32.420,-0.236,0.932,0.066
32.430,-0.236,0.930,0.070
32.440,-0.236,0.932,0.072
32.450,-0.244,0.938,0.062
32.460,-0.236,0.926,0.074
32.469,-0.215,0.916,0.074
32.479,-0.221,0.932,0.068
32.489,-0.236,0.945,0.068
32.499,-0.236,0.941,0.068
32.509,-0.230,0.932,0.070
32.519,-0.229,0.936,0.076
32.529,-0.229,0.934,0.078
32.539,-0.236,0.928,0.072
32.549,-0.238,0.932,0.074
32.559,-0.238,0.930,0.070
32.569,-0.246,0.932,0.064
32.579,-0.258,0.928,0.066
32.589,-0.252,0.920,0.066
32.598,-0.244,0.916,0.062
32.608,-0.236,0.912,0.072
32.618,-0.215,0.910,0.076
32.628,-0.197,0.918,0.074
32.638,-0.191,0.928,0.080
32.648,-0.189,0.928,0.080
32.658,-0.191,0.934,0.078
32.668,-0.197,0.939,0.084
32.678,-0.205,0.930,0.086
32.688,-0.209,0.932,0.088
32.698,-0.209,0.930,0.092
32.708,-0.205,0.928,0.098
32.718,-0.209,0.939,0.094
32.727,-0.225,0.945,0.096
32.737,-0.229,0.945,0.100
32.747,-0.229,0.947,0.102
32.757,-0.234,0.951,0.096
32.767,-0.238,0.938,0.094
32.777,-0.240,0.928,0.094
32.787,-0.242,0.928,0.092
32.797,-0.252,0.932,0.088
32.807,-0.254,0.930,0.088
32.817,-0.248,0.930,0.088
32.827,-0.244,0.928,0.092
32.837,-0.242,0.934,0.086
32.847,-0.244,0.932,0.084
32.857,-0.240,0.926,0.088
32.866,-0.234,0.926,0.086
32.876,-0.230,0.924,0.080
32.886,-0.238,0.930,0.080
32.896,-0.242,0.932,0.080
32.906,-0.238,0.928,0.082
32.916,-0.236,0.920,0.080
32.926,-0.238,0.926,0.084
32.936,-0.242,0.930,0.086
32.946,-0.238,0.930,0.084
32.956,-0.236,0.926,0.078
32.966,-0.232,0.926,0.080
32.976,-0.234,0.928,0.078
32.986,-0.240,0.928,0.076
32.995,-0.242,0.930,0.082
33.005,-0.252,0.932,0.080
33.015,-0.252,0.924,0.086
33.025,-0.242,0.914,0.088
33.035,-0.234,0.916,0.080
33.045,-0.234,0.924,0.076
33.055,-0.234,0.924,0.078
33.065,-0.230,0.928,0.082
33.075,-0.230,0.930,0.078
33.085,-0.229,0.930,0.078
33.095,-0.234,0.928,0.074
33.105,-0.236,0.924,0.082
33.115,-0.242,0.928,0.082
33.124,-0.240,0.924,0.080
33.134,-0.246,0.922,0.076
33.144,-0.246,0.916,0.080
33.154,-0.244,0.918,0.074
33.164,-0.248,0.916,0.076
33.174,-0.248,0.918,0.076
33.184,-0.248,0.922,0.074
33.194,-0.250,0.922,0.076
33.204,-0.246,0.926,0.074
33.214,-0.244,0.926,0.078
33.224,-0.244,0.928,0.078
33.234,-0.242,0.928,0.078
33.244,-0.242,0.924,0.076
33.253,-0.240,0.920,0.076
33.263,-0.238,0.924,0.076
33.273,-0.240,0.928,0.076
33.283,-0.242,0.924,0.078
33.293,-0.240,0.936,0.072
33.303,-0.238,0.945,0.070
33.313,-0.240,0.939,0.070
33.323,-0.238,0.939,0.074
33.333,-0.236,0.934,0.070
33.343,-0.238,0.930,0.068
33.353,-0.238,0.928,0.070
33.363,-0.238,0.930,0.066
33.373,-0.238,0.926,0.066
33.382,-0.238,0.928,0.068
33.392,-0.246,0.926,0.061
33.402,-0.250,0.922,0.057
33.412,-0.252,0.916,0.061
33.422,-0.254,0.918,0.057
33.432,-0.256,0.918,0.057
33.442,-0.262,0.916,0.057
33.452,-0.260,0.912,0.057
33.462,-0.254,0.916,0.061
33.472,-0.254,0.910,0.055
33.482,-0.254,0.912,0.061
33.492,-0.252,0.916,0.057
33.502,-0.250,0.920,0.055
33.512,-0.250,0.920,0.059
33.521,-0.258,0.924,0.059
33.531,-0.258,0.924,0.059
33.541,-0.260,0.922,0.059
33.551,-0.260,0.922,0.059
33.561,-0.260,0.920,0.062
33.571,-0.252,0.924,0.059
33.581,-0.246,0.924,0.061
33.591,-0.244,0.926,0.062
33.601,-0.242,0.924,0.062
33.611,-0.246,0.928,0.059
33.621,-0.244,0.922,0.062
33.631,-0.244,0.924,0.064
33.641,-0.244,0.930,0.066
33.650,-0.246,0.926,0.068
33.660,-0.246,0.924,0.064
33.670,-0.246,0.924,0.068
33.680,-0.248,0.916,0.066
33.690,-0.248,0.916,0.068
33.700,-0.250,0.916,0.066
33.710,-0.250,0.920,0.070
33.720,-0.254,0.918,0.068
33.730,-0.258,0.924,0.068
33.740,-0.262,0.928,0.062
33.750,-0.266,0.928,0.062
33.760,-0.264,0.926,0.064
33.770,-0.260,0.926,0.062
33.779,-0.260,0.928,0.061
33.789,-0.256,0.924,0.064
33.799,-0.256,0.920,0.062
33.809,-0.250,0.924,0.064
33.819,-0.248,0.926,0.061
33.829,-0.248,0.924,0.061
33.839,-0.250,0.924,0.061
33.849,-0.250,0.922,0.061
33.859,-0.252,0.922,0.061
33.869,-0.248,0.918,0.061
33.879,-0.250,0.922,0.062
33.889,-0.240,0.934,0.061
33.899,-0.234,0.938,0.062
33.908,-0.229,0.934,0.059
33.918,-0.230,0.928,0.059
33.928,-0.234,0.922,0.059
33.938,-0.240,0.914,0.059
33.948,-0.250,0.914,0.062
33.958,-0.256,0.920,0.066
33.968,-0.258,0.924,0.066
33.978,-0.266,0.922,0.066
33.988,-0.271,0.926,0.062
33.998,-0.273,0.928,0.061
34.008,-0.271,0.930,0.059
34.018,-0.270,0.926,0.055
34.028,-0.271,0.920,0.055
34.037,-0.273,0.920,0.051
34.047,-0.270,0.922,0.055
34.057,-0.270,0.914,0.055
34.067,-0.264,0.914,0.061
34.077,-0.264,0.912,0.057
34.087,-0.256,0.918,0.051
34.097,-0.252,0.922,0.055
34.107,-0.246,0.930,0.055
34.117,-0.248,0.932,0.053
34.127,-0.244,0.932,0.053
34.137,-0.242,0.930,0.053
34.147,-0.242,0.930,0.053
34.157,-0.244,0.926,0.051
34.167,-0.244,0.924,0.053
34.176,-0.246,0.922,0.053
34.186,-0.244,0.920,0.055
34.196,-0.242,0.922,0.051
34.206,-0.244,0.924,0.049
34.216,-0.248,0.924,0.049
34.226,-0.246,0.928,0.051
34.236,-0.248,0.924,0.047
34.246,-0.246,0.926,0.053
34.256,-0.250,0.920,0.051
34.266,-0.252,0.922,0.055
34.276,-0.252,0.926,0.053
34.286,-0.252,0.922,0.049
34.296,-0.252,0.926,0.051
34.305,-0.248,0.924,0.047
34.315,-0.252,0.922,0.051
34.325,-0.250,0.922,0.051
34.335,-0.252,0.922,0.049
34.345,-0.248,0.926,0.053
34.355,-0.250,0.934,0.053
34.365,-0.250,0.930,0.051
34.375,-0.250,0.928,0.053
34.385,-0.250,0.924,0.053
34.395,-0.248,0.924,0.051
34.405,-0.248,0.922,0.049
34.415,-0.248,0.922,0.053
34.425,-0.248,0.924,0.053
34.434,-0.246,0.920,0.049
34.444,-0.244,0.924,0.055
34.454,-0.242,0.932,0.051
34.464,-0.244,0.932,0.049
34.474,-0.246,0.930,0.049
34.484,-0.250,0.930,0.049
34.494,-0.246,0.930,0.049
34.504,-0.248,0.926,0.047
34.514,-0.252,0.924,0.049
34.524,-0.250,0.926,0.051
34.534,-0.252,0.926,0.049
34.544,-0.252,0.924,0.047
34.554,-0.256,0.926,0.051
34.563,-0.254,0.922,0.049
34.573,-0.248,0.918,0.051
34.583,-0.252,0.916,0.049
34.593,-0.250,0.920,0.051
34.603,-0.252,0.918,0.049
34.613,-0.248,0.920,0.051
34.623,-0.248,0.926,0.053
34.633,-0.248,0.930,0.047
34.643,-0.250,0.930,0.049
34.653,-0.248,0.932,0.047
34.663,-0.252,0.924,0.047
34.673,-0.254,0.922,0.051
34.683,-0.254,0.924,0.053
34.692,-0.248,0.922,0.049
34.702,-0.248,0.922,0.049
34.712,-0.246,0.926,0.041
34.722,-0.240,0.924,0.043
34.732,-0.242,0.930,0.045
34.742,-0.242,0.928,0.045
34.752,-0.244,0.924,0.049
34.762,-0.246,0.924,0.049
34.772,-0.248,0.924,0.049
34.782,-0.248,0.928,0.045
34.792,-0.248,0.924,0.043
34.802,-0.250,0.924,0.045
34.812,-0.250,0.924,0.043
34.822,-0.246,0.928,0.043
34.831,-0.246,0.922,0.043
34.841,-0.246,0.924,0.045
34.851,-0.248,0.924,0.043
34.861,-0.250,0.926,0.047
34.871,-0.248,0.922,0.045
34.881,-0.246,0.920,0.045
34.891,-0.248,0.928,0.041
34.901,-0.250,0.926,0.045
34.911,-0.252,0.926,0.041
34.921,-0.250,0.924,0.039
34.931,-0.248,0.926,0.043
34.941,-0.248,0.924,0.041
34.951,-0.248,0.924,0.039
34.960,-0.246,0.928,0.041
34.970,-0.250,0.924,0.039
34.980,-0.252,0.922,0.041
34.990,-0.250,0.916,0.043
35.000,-0.250,0.920,0.041
35.010,-0.248,0.918,0.039
35.020,-0.248,0.922,0.039
35.030,-0.246,0.920,0.041
35.040,-0.248,0.922,0.039
35.050,-0.252,0.924,0.043
35.060,-0.246,0.922,0.045
35.070,-0.246,0.928,0.043
35.080,-0.242,0.932,0.047
35.089,-0.244,0.934,0.041
35.099,-0.244,0.928,0.043
35.109,-0.244,0.920,0.047
35.119,-0.244,0.916,0.049
35.129,-0.244,0.922,0.047
35.139,-0.252,0.922,0.047
35.149,-0.250,0.920,0.047
35.159,-0.248,0.924,0.049
35.169,-0.250,0.928,0.049
35.179,-0.250,0.934,0.045
35.189,-0.248,0.936,0.045
35.199,-0.248,0.936,0.049
35.209,-0.248,0.932,0.047
35.218,-0.246,0.934,0.047
35.228,-0.248,0.928,0.041
35.238,-0.254,0.920,0.043
35.248,-0.252,0.916,0.047
35.258,-0.250,0.922,0.045
35.268,-0.250,0.922,0.045
35.278,-0.254,0.922,0.047
35.288,-0.252,0.924,0.043
35.298,-0.248,0.918,0.043
35.308,-0.244,0.920,0.049
35.318,-0.248,0.922,0.045
35.328,-0.248,0.920,0.047
35.338,-0.252,0.918,0.049
35.347,-0.246,0.926,0.047
35.357,-0.248,0.928,0.047
35.367,-0.250,0.932,0.039
35.377,-0.248,0.928,0.043
35.387,-0.256,0.922,0.043
35.397,-0.254,0.924,0.051
35.407,-0.252,0.922,0.045
35.417,-0.242,0.918,0.045
35.427,-0.244,0.930,0.045
35.437,-0.246,0.932,0.041
35.447,-0.238,0.930,0.041
35.457,-0.240,0.934,0.041
35.467,-0.238,0.930,0.039
35.477,-0.242,0.924,0.043
35.486,-0.244,0.920,0.049
35.496,-0.246,0.922,0.041
35.506,-0.246,0.926,0.045
35.516,-0.246,0.924,0.043
35.526,-0.242,0.926,0.041
35.536,-0.244,0.926,0.041
35.546,-0.240,0.926,0.043
35.556,-0.242,0.928,0.041
35.566,-0.242,0.924,0.041
35.576,-0.240,0.926,0.041
35.586,-0.244,0.920,0.039
35.596,-0.246,0.926,0.041
35.606,-0.244,0.924,0.041
35.615,-0.244,0.924,0.039
35.625,-0.242,0.930,0.037
35.635,-0.248,0.932,0.039
35.645,-0.248,0.928,0.039
35.655,-0.244,0.926,0.037
35.665,-0.242,0.928,0.037
35.675,-0.240,0.926,0.041
35.685,-0.236,0.924,0.041
35.695,-0.238,0.922,0.035
35.705,-0.238,0.924,0.033
35.715,-0.238,0.926,0.033
35.725,-0.240,0.926,0.033
35.735,-0.242,0.924,0.031
35.744,-0.244,0.928,0.035
35.754,-0.242,0.926,0.035
35.764,-0.242,0.930,0.039
35.774,-0.242,0.930,0.039
35.784,-0.242,0.932,0.037
35.794,-0.238,0.926,0.039
35.804,-0.238,0.922,0.039
35.814,-0.238,0.922,0.037
35.824,-0.238,0.922,0.037
35.834,-0.236,0.920,0.037
35.844,-0.242,0.922,0.041
35.854,-0.236,0.924,0.037
35.864,-0.238,0.930,0.039
35.873,-0.240,0.938,0.035
35.883,-0.238,0.936,0.039
35.893,-0.242,0.932,0.037
35.903,-0.242,0.936,0.039
35.913,-0.244,0.934,0.033
35.923,-0.244,0.930,0.035
35.933,-0.246,0.928,0.033
35.943,-0.242,0.918,0.033
35.953,-0.244,0.920,0.031
35.963,-0.242,0.924,0.031
35.973,-0.242,0.926,0.031
35.983,-0.238,0.922,0.031
35.993,-0.240,0.920,0.033
36.002,-0.238,0.926,0.029
36.012,-0.236,0.920,0.033
36.022,-0.232,0.924,0.033
36.032,-0.230,0.922,0.037
36.042,-0.238,0.924,0.037
36.052,-0.236,0.926,0.035
36.062,-0.238,0.926,0.033
36.072,-0.240,0.930,0.033
36.082,-0.240,0.928,0.029
36.092,-0.244,0.922,0.035
36.102,-0.238,0.926,0.037
36.112,-0.240,0.928,0.033
36.122,-0.236,0.924,0.033
36.132,-0.238,0.934,0.031
36.141,-0.234,0.934,0.033
36.151,-0.232,0.930,0.035
36.161,-0.234,0.930,0.035
36.171,-0.232,0.926,0.033
36.181,-0.234,0.924,0.035
36.191,-0.236,0.924,0.035
36.201,-0.234,0.926,0.029
36.211,-0.230,0.928,0.029
36.221,-0.234,0.930,0.035
36.231,-0.232,0.930,0.035
36.241,-0.234,0.930,0.031
36.251,-0.242,0.928,0.031
36.261,-0.240,0.928,0.033
36.270,-0.236,0.926,0.035
36.280,-0.238,0.928,0.035
36.290,-0.238,0.924,0.033
36.300,-0.236,0.926,0.029
36.310,-0.238,0.926,0.031
36.320,-0.238,0.926,0.029
36.330,-0.238,0.928,0.031
36.340,-0.240,0.926,0.031
36.350,-0.234,0.930,0.033
36.360,-0.232,0.930,0.031
36.370,-0.234,0.930,0.029
36.380,-0.238,0.928,0.029
36.390,-0.236,0.930,0.029
36.399,-0.236,0.930,0.031
36.409,-0.236,0.930,0.031
36.419,-0.236,0.924,0.037
36.429,-0.232,0.928,0.033
36.439,-0.236,0.924,0.031
36.449,-0.238,0.926,0.033
36.459,-0.238,0.926,0.033
36.469,-0.240,0.928,0.029
36.479,-0.240,0.930,0.029
36.489,-0.238,0.930,0.033
36.499,-0.236,0.928,0.033
36.509,-0.234,0.930,0.031
36.519,-0.234,0.928,0.033
36.528,-0.232,0.930,0.033
36.538,-0.232,0.928,0.035
36.548,-0.230,0.928,0.031
36.558,-0.230,0.930,0.031
36.568,-0.238,0.922,0.033
36.578,-0.240,0.930,0.033
36.588,-0.248,0.932,0.031
36.598,-0.244,0.926,0.031
36.608,-0.238,0.924,0.029
36.618,-0.230,0.930,0.027
36.628,-0.229,0.928,0.029
36.638,-0.232,0.928,0.031
36.648,-0.232,0.930,0.029
36.657,-0.232,0.926,0.029
36.667,-0.234,0.928,0.029
36.677,-0.238,0.926,0.027
36.687,-0.238,0.930,0.031
36.697,-0.238,0.924,0.029
36.707,-0.234,0.926,0.031
36.717,-0.229,0.926,0.033
36.727,-0.229,0.926,0.027
36.737,-0.227,0.926,0.027
36.747,-0.227,0.930,0.029
36.757,-0.230,0.928,0.025
36.767,-0.232,0.926,0.027
36.777,-0.234,0.930,0.033
36.786,-0.234,0.932,0.029
36.796,-0.236,0.932,0.029
36.806,-0.232,0.926,0.037
36.816,-0.229,0.924,0.035
36.826,-0.229,0.924,0.031
36.836,-0.229,0.926,0.035
36.846,-0.229,0.928,0.037
36.856,-0.227,0.918,0.039
36.866,-0.225,0.928,0.037
36.876,-0.223,0.934,0.033
36.886,-0.229,0.936,0.035
36.896,-0.229,0.930,0.035
36.906,-0.227,0.934,0.033
36.916,-0.223,0.934,0.033
36.925,-0.227,0.932,0.033
36.935,-0.229,0.930,0.033
36.945,-0.229,0.934,0.031
36.955,-0.232,0.934,0.027
36.965,-0.238,0.936,0.025
36.975,-0.240,0.930,0.025
36.985,-0.244,0.926,0.025
36.995,-0.242,0.924,0.025
37.005,-0.240,0.922,0.031
37.015,-0.234,0.920,0.031
37.025,-0.229,0.918,0.027
37.035,-0.227,0.918,0.029
37.045,-0.227,0.924,0.029
37.054,-0.227,0.924,0.029
37.064,-0.227,0.932,0.033
37.074,-0.223,0.932,0.031
37.084,-0.229,0.932,0.033
37.094,-0.232,0.930,0.027
37.104,-0.236,0.928,0.033
37.114,-0.238,0.934,0.031
37.124,-0.240,0.934,0.031
37.134,-0.236,0.926,0.033
37.144,-0.234,0.930,0.027
37.154,-0.234,0.932,0.025
37.164,-0.230,0.928,0.029
37.174,-0.230,0.932,0.029
37.183,-0.234,0.932,0.029
37.193,-0.232,0.932,0.029
37.203,-0.232,0.928,0.031
37.213,-0.230,0.930,0.029
37.223,-0.229,0.928,0.031
37.233,-0.229,0.928,0.025
37.243,-0.225,0.926,0.027
37.253,-0.225,0.930,0.023
37.263,-0.223,0.926,0.025
37.273,-0.225,0.924,0.023
37.283,-0.230,0.928,0.029
37.293,-0.229,0.926,0.025
37.303,-0.236,0.926,0.025
37.312,-0.236,0.924,0.025
37.322,-0.234,0.930,0.029
37.332,-0.232,0.924,0.025
37.342,-0.232,0.928,0.023
37.352,-0.230,0.934,0.021
37.362,-0.232,0.934,0.021
37.372,-0.234,0.930,0.020
37.382,-0.230,0.930,0.023
37.392,-0.230,0.930,0.023
37.402,-0.230,0.928,0.025
37.412,-0.230,0.928,0.027
37.422,-0.227,0.926,0.023
37.432,-0.230,0.926,0.025
37.441,-0.229,0.928,0.025
37.451,-0.229,0.926,0.025
37.461,-0.227,0.926,0.023
37.471,-0.229,0.926,0.025
37.481,-0.229,0.928,0.027
37.491,-0.232,0.930,0.027
37.501,-0.232,0.928,0.033
37.511,-0.229,0.932,0.027
37.521,-0.230,0.932,0.029
37.531,-0.232,0.926,0.027
37.541,-0.232,0.930,0.029
37.551,-0.229,0.930,0.029
37.561,-0.230,0.926,0.029
37.571,-0.230,0.930,0.029
37.580,-0.229,0.926,0.031
37.590,-0.230,0.930,0.029
37.600,-0.229,0.932,0.033
37.610,-0.229,0.928,0.029
37.620,-0.229,0.928,0.027
37.630,-0.229,0.926,0.029
37.640,-0.229,0.926,0.029
37.650,-0.230,0.930,0.031
37.660,-0.230,0.924,0.029
37.670,-0.229,0.926,0.031
37.680,-0.230,0.930,0.029
37.690,-0.230,0.924,0.031
37.700,-0.230,0.932,0.027
37.709,-0.232,0.930,0.029
37.719,-0.234,0.932,0.027
37.729,-0.238,0.930,0.027
37.739,-0.234,0.932,0.027
37.749,-0.236,0.936,0.029
37.759,-0.234,0.932,0.027
37.769,-0.232,0.926,0.027
37.779,-0.227,0.928,0.027
37.789,-0.229,0.924,0.031
37.799,-0.230,0.922,0.031
37.809,-0.230,0.920,0.027
37.819,-0.232,0.922,0.031
37.829,-0.229,0.922,0.035
37.838,-0.230,0.932,0.033
37.848,-0.230,0.936,0.031
37.858,-0.234,0.938,0.035
37.868,-0.229,0.936,0.035
37.878,-0.230,0.932,0.031
37.888,-0.229,0.934,0.029
37.898,-0.229,0.934,0.027
37.908,-0.234,0.932,0.033
37.918,-0.230,0.928,0.025
37.928,-0.232,0.926,0.025
37.938,-0.234,0.928,0.025
37.948,-0.232,0.924,0.025
37.958,-0.234,0.930,0.023
37.967,-0.234,0.928,0.023
37.977,-0.234,0.928,0.025
37.987,-0.229,0.924,0.029
37.997,-0.227,0.920,0.031
38.007,-0.229,0.926,0.029
38.017,-0.230,0.924,0.025
38.027,-0.230,0.926,0.023
38.037,-0.230,0.926,0.023
38.047,-0.230,0.930,0.025
38.057,-0.234,0.930,0.027
38.067,-0.236,0.926,0.025
38.077,-0.236,0.922,0.031
38.087,-0.236,0.932,0.027
38.096,-0.234,0.928,0.031
38.106,-0.229,0.930,0.027
38.116,-0.227,0.934,0.021
38.126,-0.225,0.932,0.025
38.136,-0.225,0.934,0.025
38.146,-0.227,0.930,0.025
38.156,-0.225,0.930,0.029
38.166,-0.227,0.930,0.025
38.176,-0.227,0.928,0.027
38.186,-0.229,0.930,0.025
38.196,-0.225,0.932,0.025
38.206,-0.229,0.928,0.021
38.216,-0.229,0.928,0.023
38.226,-0.229,0.926,0.025
38.235,-0.227,0.926,0.025
38.245,-0.232,0.934,0.027
38.255,-0.234,0.932,0.025
38.265,-0.234,0.930,0.025
38.275,-0.232,0.930,0.029
38.285,-0.234,0.922,0.023
38.295,-0.232,0.924,0.025
38.305,-0.229,0.924,0.023
38.315,-0.234,0.922,0.025
38.325,-0.230,0.928,0.023
38.335,-0.230,0.932,0.020
38.345,-0.229,0.934,0.020
38.355,-0.230,0.936,0.023
38.364,-0.230,0.934,0.025
38.374,-0.232,0.930,0.025
38.384,-0.227,0.930,0.023
38.394,-0.227,0.930,0.023
38.404,-0.232,0.930,0.020
38.414,-0.230,0.930,0.021
38.424,-0.229,0.928,0.023
38.434,-0.229,0.926,0.025
38.444,-0.230,0.924,0.023
38.454,-0.230,0.926,0.025
38.464,-0.232,0.928,0.021
38.474,-0.229,0.932,0.029
38.484,-0.234,0.930,0.029
38.493,-0.230,0.928,0.027
38.503,-0.232,0.928,0.027
38.513,-0.229,0.926,0.025
38.523,-0.229,0.926,0.025
38.533,-0.229,0.930,0.025
38.543,-0.227,0.930,0.025
38.553,-0.229,0.926,0.025
38.563,-0.229,0.924,0.027
38.573,-0.230,0.932,0.027
38.583,-0.230,0.924,0.025
38.593,-0.229,0.926,0.027
38.603,-0.232,0.930,0.025
38.613,-0.232,0.930,0.025
38.622,-0.230,0.932,0.023
38.632,-0.232,0.934,0.023
38.642,-0.240,0.934,0.023
38.652,-0.238,0.932,0.021
38.662,-0.240,0.928,0.025
38.672,-0.236,0.930,0.025
38.682,-0.234,0.934,0.021
38.692,-0.232,0.930,0.023
38.702,-0.229,0.922,0.021
38.712,-0.227,0.914,0.025
38.722,-0.232,0.916,0.023
38.732,-0.232,0.920,0.027
38.742,-0.232,0.918,0.029
38.751,-0.234,0.922,0.029
38.761,-0.234,0.930,0.029
38.771,-0.238,0.939,0.025
38.781,-0.238,0.938,0.027
38.791,-0.240,0.938,0.029
38.801,-0.238,0.938,0.023
38.811,-0.238,0.932,0.025
38.821,-0.236,0.936,0.023
38.831,-0.240,0.928,0.021
38.841,-0.234,0.926,0.020
38.851,-0.232,0.926,0.021
38.861,-0.232,0.928,0.025
38.871,-0.236,0.926,0.025
38.881,-0.234,0.926,0.023
38.890,-0.234,0.928,0.023
38.900,-0.238,0.924,0.023
38.910,-0.238,0.924,0.021
38.920,-0.236,0.924,0.023
38.930,-0.238,0.920,0.021
38.940,-0.238,0.924,0.021
38.950,-0.238,0.928,0.023
38.960,-0.236,0.934,0.020
38.970,-0.234,0.932,0.021
38.980,-0.240,0.930,0.021
38.990,-0.238,0.924,0.020
39.000,-0.238,0.922,0.023
39.010,-0.234,0.926,0.023
39.019,-0.232,0.922,0.025
39.029,-0.234,0.930,0.025
39.039,-0.232,0.936,0.020
39.049,-0.238,0.930,0.025
39.059,-0.234,0.934,0.025
39.069,-0.238,0.932,0.025
39.079,-0.238,0.922,0.027
39.089,-0.238,0.922,0.025
39.099,-0.236,0.924,0.025
39.109,-0.232,0.924,0.023
39.119,-0.232,0.924,0.023
39.129,-0.232,0.928,0.021
39.139,-0.234,0.926,0.021
39.148,-0.236,0.928,0.023
39.158,-0.238,0.928,0.025
39.168,-0.236,0.926,0.025
39.178,-0.240,0.926,0.029
39.188,-0.240,0.928,0.029
39.198,-0.242,0.928,0.027
39.208,-0.244,0.926,0.027
39.218,-0.240,0.934,0.023
39.228,-0.240,0.932,0.027
39.238,-0.242,0.928,0.025
39.248,-0.234,0.934,0.023
39.258,-0.238,0.926,0.027
39.268,-0.234,0.930,0.027
39.277,-0.232,0.928,0.025
39.287,-0.232,0.926,0.021
39.297,-0.232,0.928,0.021
39.307,-0.234,0.924,0.027
39.317,-0.232,0.926,0.025
39.327,-0.240,0.926,0.020
39.337,-0.236,0.926,0.027
39.347,-0.234,0.928,0.023
39.357,-0.234,0.928,0.025
39.367,-0.234,0.928,0.023
39.377,-0.234,0.928,0.025
39.387,-0.234,0.926,0.020
39.397,-0.236,0.930,0.021
39.406,-0.232,0.932,0.023
39.416,-0.230,0.930,0.027
39.426,-0.230,0.930,0.025
39.436,-0.229,0.926,0.025
39.446,-0.230,0.924,0.025
39.456,-0.230,0.926,0.027
39.466,-0.229,0.924,0.025
39.476,-0.229,0.924,0.031
39.486,-0.229,0.924,0.027
39.496,-0.221,0.928,0.025
39.506,-0.225,0.932,0.025
39.516,-0.229,0.938,0.021
39.526,-0.230,0.934,0.023
39.535,-0.240,0.936,0.025
39.545,-0.236,0.936,0.027
39.555,-0.240,0.936,0.023
39.565,-0.242,0.932,0.023
39.575,-0.244,0.928,0.027
39.585,-0.242,0.930,0.027
39.595,-0.244,0.930,0.029
39.605,-0.242,0.926,0.029
39.615,-0.236,0.926,0.029
39.625,-0.236,0.928,0.025
39.635,-0.234,0.924,0.023
39.645,-0.234,0.924,0.025
39.655,-0.227,0.920,0.027
39.665,-0.230,0.918,0.025
39.674,-0.232,0.920,0.023
39.684,-0.236,0.922,0.027
39.694,-0.236,0.926,0.025
39.704,-0.236,0.934,0.023
39.714,-0.240,0.930,0.021
39.724,-0.240,0.922,0.025
39.734,-0.238,0.926,0.031
39.744,-0.238,0.928,0.029
39.754,-0.232,0.922,0.029
39.764,-0.234,0.934,0.027
39.774,-0.229,0.934,0.023
39.784,-0.229,0.930,0.027
39.794,-0.230,0.934,0.023
39.803,-0.229,0.934,0.023
39.813,-0.232,0.922,0.029
39.823,-0.234,0.924,0.027
39.833,-0.232,0.928,0.027
39.843,-0.232,0.928,0.023
39.853,-0.236,0.930,0.027
39.863,-0.234,0.930,0.023
39.873,-0.234,0.928,0.029
39.883,-0.232,0.930,0.027
39.893,-0.232,0.926,0.027
39.903,-0.230,0.928,0.023
39.913,-0.234,0.926,0.023
39.923,-0.234,0.926,0.023
39.932,-0.230,0.926,0.025
39.942,-0.240,0.922,0.023
39.952,-0.238,0.928,0.025
39.962,-0.238,0.932,0.023
39.972,-0.236,0.930,0.023
39.982,-0.236,0.928,0.023
39.992,-0.234,0.930,0.023
40.002,-0.230,0.928,0.021
40.012,-0.232,0.926,0.023
40.022,-0.234,0.924,0.021
40.032,-0.230,0.926,0.021
40.042,-0.230,0.922,0.021
40.052,-0.232,0.926,0.021
40.061,-0.232,0.932,0.021
40.071,-0.238,0.928,0.020
40.081,-0.234,0.926,0.025
40.091,-0.236,0.930,0.021
40.101,-0.236,0.924,0.023
40.111,-0.242,0.936,0.025
40.121,-0.246,0.934,0.025
40.131,-0.238,0.926,0.021
40.141,-0.234,0.928,0.021
40.151,-0.230,0.924,0.025
40.161,-0.232,0.920,0.025
40.171,-0.229,0.920,0.025
40.181,-0.225,0.924,0.025
40.190,-0.223,0.924,0.029
40.200,-0.225,0.926,0.037
40.210,-0.223,0.938,0.031
40.220,-0.221,0.941,0.031
40.230,-0.221,0.939,0.031
40.240,-0.221,0.939,0.033
40.250,-0.219,0.936,0.031
40.260,-0.217,0.936,0.033
40.270,-0.223,0.934,0.029
40.280,-0.229,0.930,0.029
40.290,-0.232,0.934,0.023
40.300,-0.232,0.932,0.021
40.310,-0.236,0.930,0.020
40.320,-0.242,0.926,0.020
40.329,-0.242,0.924,0.020
40.339,-0.244,0.922,0.018
40.349,-0.244,0.920,0.021
40.359,-0.244,0.912,0.016
40.369,-0.234,0.916,0.023
40.379,-0.230,0.920,0.020
40.389,-0.227,0.922,0.021
40.399,-0.225,0.924,0.021
40.409,-0.229,0.926,0.025
40.419,-0.225,0.930,0.025
40.429,-0.227,0.932,0.023
40.439,-0.236,0.922,0.021
40.449,-0.232,0.924,0.033
40.458,-0.232,0.928,0.027
40.468,-0.234,0.924,0.023
40.478,-0.238,0.932,0.023
40.488,-0.238,0.936,0.020
40.498,-0.234,0.928,0.025
40.508,-0.232,0.930,0.027
40.518,-0.238,0.930,0.020
40.528,-0.238,0.928,0.029
40.538,-0.242,0.928,0.023
40.548,-0.242,0.926,0.029
40.558,-0.230,0.928,0.033
40.568,-0.223,0.932,0.031
40.578,-0.223,0.938,0.029
40.587,-0.217,0.936,0.031
40.597,-0.217,0.934,0.031
40.607,-0.209,0.932,0.033
40.617,-0.211,0.926,0.035
40.627,-0.211,0.930,0.037
40.637,-0.213,0.932,0.037
40.647,-0.215,0.936,0.037
40.657,-0.217,0.934,0.043
40.667,-0.219,0.934,0.035
40.677,-0.219,0.932,0.037
40.687,-0.215,0.932,0.037
40.697,-0.215,0.930,0.033
40.707,-0.219,0.932,0.031
40.716,-0.225,0.934,0.033
40.726,-0.219,0.928,0.031
40.736,-0.217,0.930,0.037
40.746,-0.219,0.930,0.033
40.756,-0.230,0.934,0.029
40.766,-0.232,0.930,0.031
40.776,-0.230,0.926,0.031
40.786,-0.227,0.930,0.029
40.796,-0.232,0.930,0.033
40.806,-0.227,0.930,0.029
40.816,-0.227,0.926,0.027
40.826,-0.223,0.930,0.031
40.836,-0.227,0.932,0.025
40.845,-0.227,0.934,0.029
40.855,-0.227,0.932,0.027
40.865,-0.230,0.932,0.027
40.875,-0.236,0.939,0.029
40.885,-0.242,0.938,0.027
40.895,-0.248,0.932,0.025
40.905,-0.252,0.928,0.023
40.915,-0.254,0.924,0.027
40.925,-0.252,0.920,0.023
40.935,-0.252,0.916,0.025
40.945,-0.244,0.916,0.027
40.955,-0.234,0.916,0.025
40.965,-0.236,0.918,0.025
40.975,-0.232,0.928,0.023
40.984,-0.232,0.932,0.027
40.994,-0.234,0.932,0.027
41.004,-0.238,0.936,0.025
41.014,-0.236,0.934,0.029
41.024,-0.234,0.932,0.027
41.034,-0.238,0.928,0.029
41.044,-0.236,0.930,0.031
41.054,-0.244,0.928,0.031
41.064,-0.244,0.932,0.029
41.074,-0.244,0.932,0.031
41.084,-0.248,0.930,0.027
41.094,-0.248,0.932,0.025
41.104,-0.248,0.930,0.027
41.113,-0.252,0.928,0.025
41.123,-0.248,0.930,0.031
41.133,-0.250,0.926,0.029
41.143,-0.246,0.930,0.029
41.153,-0.248,0.932,0.029
41.163,-0.246,0.930,0.033
41.173,-0.244,0.930,0.035
41.183,-0.242,0.928,0.035
41.193,-0.244,0.918,0.035
41.203,-0.244,0.920,0.041
41.213,-0.242,0.926,0.033
41.223,-0.246,0.932,0.029
41.233,-0.250,0.918,0.031
41.242,-0.252,0.918,0.033
41.252,-0.242,0.918,0.021
41.262,-0.246,0.922,0.018
41.272,-0.250,0.924,0.010
41.282,-0.256,0.922,0.012
41.292,-0.264,0.924,0.010
41.302,-0.264,0.920,0.012
41.312,-0.258,0.912,0.016
41.322,-0.252,0.920,0.010
41.332,-0.256,0.922,0.008
41.342,-0.254,0.920,0.010
41.352,-0.250,0.922,0.008
41.362,-0.242,0.924,0.010
41.371,-0.240,0.922,0.012
41.381,-0.234,0.918,0.014
41.391,-0.238,0.922,0.012
41.401,-0.232,0.926,0.012
41.411,-0.234,0.920,0.010
41.421,-0.234,0.918,0.010
41.431,-0.240,0.924,0.006
41.441,-0.244,0.924,0.008
41.451,-0.248,0.924,0.008
41.461,-0.252,0.920,0.006
41.471,-0.250,0.924,0.010
41.481,-0.250,0.924,0.006
41.491,-0.250,0.920,0.008
41.500,-0.246,0.918,0.008
41.510,-0.246,0.920,0.004
41.520,-0.246,0.922,0.006
41.530,-0.244,0.924,0.010
41.540,-0.246,0.928,0.006
41.550,-0.248,0.928,0.008
41.560,-0.246,0.932,0.008
41.570,-0.248,0.932,0.010
41.580,-0.248,0.932,0.012
41.590,-0.246,0.928,0.010
41.600,-0.244,0.930,0.008
41.610,-0.244,0.928,0.012
41.620,-0.242,0.928,0.010
41.630,-0.240,0.928,0.006
41.639,-0.240,0.926,0.006
41.649,-0.240,0.924,0.002
41.659,-0.244,0.924,0.004
41.669,-0.242,0.926,0.004
41.679,-0.238,0.928,0.000
41.689,-0.244,0.926,0.002
41.699,-0.246,0.926,0.008
41.709,-0.248,0.926,0.004
41.719,-0.246,0.918,0.002
41.729,-0.240,0.924,0.008
41.739,-0.248,0.920,0.006
41.749,-0.242,0.916,0.008
41.759,-0.234,0.912,0.006
41.768,-0.236,0.920,0.004
41.778,-0.240,0.932,0.002
41.788,-0.240,0.926,0.004
41.798,-0.242,0.932,0.004
41.808,-0.246,0.932,0.002
41.818,-0.242,0.934,0.006
41.828,-0.246,0.928,0.004
41.838,-0.246,0.924,0.008
41.848,-0.244,0.928,0.006
41.858,-0.242,0.930,0.004
41.868,-0.242,0.924,0.006
41.878,-0.244,0.926,0.006
41.888,-0.246,0.924,0.006
41.897,-0.248,0.916,0.008
41.907,-0.248,0.918,0.012
41.917,-0.248,0.918,0.012
41.927,-0.252,0.922,0.010
41.937,-0.248,0.922,0.010
41.947,-0.250,0.922,0.012
41.957,-0.246,0.926,0.008
41.967,-0.244,0.928,0.012
41.977,-0.244,0.934,0.016
41.987,-0.248,0.926,0.014
41.997,-0.250,0.924,0.020
42.007,-0.248,0.930,0.018
42.017,-0.250,0.922,0.016
42.026,-0.246,0.924,0.018
42.036,-0.248,0.932,0.010
42.046,-0.248,0.926,0.016
42.056,-0.246,0.930,0.016
42.066,-0.242,0.928,0.014
42.076,-0.246,0.928,0.016
42.086,-0.248,0.924,0.018
42.096,-0.254,0.924,0.016
42.106,-0.252,0.926,0.020
42.116,-0.250,0.930,0.016
42.126,-0.248,0.926,0.012
42.136,-0.248,0.926,0.012
42.146,-0.248,0.924,0.014
42.155,-0.246,0.924,0.014
42.165,-0.246,0.918,0.016
42.175,-0.244,0.920,0.012
42.185,-0.248,0.920,0.016
42.195,-0.252,0.922,0.018
42.205,-0.254,0.926,0.012
42.215,-0.252,0.924,0.016
42.225,-0.250,0.926,0.012
42.235,-0.250,0.928,0.016
42.245,-0.252,0.928,0.014
42.255,-0.252,0.928,0.016
42.265,-0.250,0.922,0.014
42.275,-0.244,0.926,0.016
42.285,-0.246,0.926,0.014
42.294,-0.246,0.922,0.012
42.304,-0.246,0.924,0.010
42.314,-0.242,0.924,0.016
42.324,-0.244,0.924,0.014
42.334,-0.248,0.926,0.016
42.344,-0.248,0.928,0.010
42.354,-0.248,0.928,0.016
42.364,-0.250,0.924,0.016
42.374,-0.252,0.926,0.016
42.384,-0.248,0.924,0.016
42.394,-0.246,0.922,0.012
42.404,-0.246,0.924,0.012
42.414,-0.244,0.926,0.012
42.423,-0.242,0.928,0.010
42.433,-0.246,0.926,0.008
42.443,-0.242,0.928,0.012
42.453,-0.244,0.924,0.012
42.463,-0.244,0.922,0.012
42.473,-0.240,0.928,0.014
42.483,-0.242,0.932,0.010
42.493,-0.242,0.930,0.010
42.503,-0.242,0.932,0.014
42.513,-0.242,0.928,0.014
42.523,-0.242,0.930,0.010
42.533,-0.244,0.926,0.012
42.543,-0.240,0.924,0.016
42.552,-0.242,0.924,0.016
42.562,-0.244,0.922,0.018
42.572,-0.248,0.926,0.016
42.582,-0.244,0.930,0.014
42.592,-0.244,0.930,0.014
42.602,-0.244,0.928,0.014
42.612,-0.242,0.926,0.014
42.622,-0.242,0.928,0.010
42.632,-0.246,0.922,0.014
42.642,-0.246,0.926,0.014
42.652,-0.248,0.922,0.010
42.662,-0.250,0.928,0.010
42.672,-0.252,0.926,0.012
42.681,-0.250,0.926,0.008
42.691,-0.250,0.924,0.014
42.701,-0.252,0.922,0.010
42.711,-0.250,0.922,0.016
42.721,-0.248,0.918,0.018
42.731,-0.246,0.922,0.014
42.741,-0.244,0.922,0.016
42.751,-0.242,0.924,0.016
42.761,-0.236,0.926,0.014
42.771,-0.238,0.930,0.012
42.781,-0.238,0.928,0.014
42.791,-0.244,0.922,0.016
42.801,-0.246,0.924,0.020
42.810,-0.240,0.930,0.018
42.820,-0.248,0.920,0.018
42.830,-0.248,0.928,0.016
42.840,-0.246,0.934,0.012
42.850,-0.244,0.930,0.012
42.860,-0.246,0.928,0.012
42.870,-0.244,0.924,0.016
42.880,-0.242,0.924,0.012
42.890,-0.246,0.922,0.014
42.900,-0.244,0.926,0.014
42.910,-0.238,0.926,0.012
42.920,-0.240,0.928,0.014
42.930,-0.242,0.924,0.018
42.940,-0.242,0.926,0.016
42.949,-0.246,0.924,0.012
42.959,-0.248,0.924,0.016
42.969,-0.244,0.922,0.018
42.979,-0.248,0.920,0.016
42.989,-0.250,0.926,0.014
42.999,-0.254,0.922,0.018
43.009,-0.252,0.924,0.016
43.019,-0.252,0.924,0.014
43.029,-0.252,0.926,0.018
43.039,-0.250,0.928,0.010
43.049,-0.250,0.928,0.012
43.059,-0.244,0.928,0.014
43.069,-0.240,0.926,0.016
43.078,-0.244,0.926,0.014
43.088,-0.242,0.926,0.016
43.098,-0.240,0.922,0.012
43.108,-0.246,0.924,0.012
43.118,-0.248,0.926,0.012
43.128,-0.244,0.924,0.014
43.138,-0.248,0.924,0.016
43.148,-0.246,0.926,0.016
43.158,-0.246,0.928,0.016
43.168,-0.246,0.928,0.018
43.178,-0.246,0.928,0.014
43.188,-0.244,0.926,0.016
43.198,-0.242,0.928,0.016
43.207,-0.244,0.928,0.018
43.217,-0.244,0.926,0.012
43.227,-0.244,0.926,0.014
43.237,-0.246,0.924,0.014
43.247,-0.246,0.932,0.014
43.257,-0.246,0.928,0.016
43.267,-0.244,0.922,0.012
43.277,-0.242,0.920,0.014
43.287,-0.246,0.922,0.008
43.297,-0.242,0.918,0.012
43.307,-0.242,0.918,0.012
43.317,-0.242,0.924,0.014
43.327,-0.242,0.926,0.016
43.336,-0.242,0.928,0.016
43.346,-0.242,0.936,0.018
43.356,-0.244,0.934,0.014
43.366,-0.246,0.932,0.012
43.376,-0.246,0.930,0.018
43.386,-0.246,0.930,0.014
43.396,-0.246,0.930,0.012
43.406,-0.244,0.926,0.010
43.416,-0.244,0.924,0.014
43.426,-0.244,0.924,0.012
43.436,-0.244,0.924,0.012
43.446,-0.248,0.924,0.010
43.456,-0.244,0.926,0.012
43.465,-0.246,0.922,0.012
43.475,-0.248,0.920,0.012
43.485,-0.248,0.920,0.012
43.495,-0.250,0.920,0.014
43.505,-0.248,0.920,0.016
43.515,-0.246,0.920,0.014
43.525,-0.246,0.924,0.010
43.535,-0.248,0.930,0.016
43.545,-0.250,0.930,0.012
43.555,-0.252,0.922,0.016
43.565,-0.248,0.930,0.014
43.575,-0.240,0.928,0.014
43.585,-0.240,0.922,0.018
43.594,-0.240,0.930,0.014
43.604,-0.238,0.930,0.014
43.614,-0.234,0.932,0.012
43.624,-0.240,0.930,0.012
43.634,-0.240,0.926,0.014
43.644,-0.242,0.924,0.018
43.654,-0.248,0.926,0.016
43.664,-0.246,0.926,0.016
43.674,-0.242,0.926,0.012
43.684,-0.242,0.930,0.012
43.694,-0.244,0.928,0.012
43.704,-0.244,0.924,0.016
43.714,-0.242,0.926,0.014
43.724,-0.242,0.924,0.012
43.733,-0.244,0.924,0.016
43.743,-0.246,0.924,0.014
43.753,-0.248,0.922,0.014
43.763,-0.250,0.924,0.012
43.773,-0.250,0.924,0.014
43.783,-0.250,0.926,0.010
43.793,-0.248,0.922,0.012
43.803,-0.244,0.926,0.008
43.813,-0.248,0.926,0.010
43.823,-0.244,0.924,0.010
43.833,-0.246,0.924,0.010
43.843,-0.244,0.924,0.014
43.853,-0.248,0.926,0.012
43.862,-0.246,0.926,0.010
43.872,-0.250,0.932,0.010
43.882,-0.252,0.922,0.014
43.892,-0.250,0.924,0.014
43.902,-0.252,0.928,0.012
43.912,-0.252,0.922,0.014
43.922,-0.246,0.924,0.014
43.932,-0.246,0.924,0.012
43.942,-0.242,0.924,0.012
43.952,-0.244,0.926,0.012
43.962,-0.242,0.926,0.014
43.972,-0.244,0.928,0.014
43.982,-0.242,0.934,0.018
43.991,-0.244,0.928,0.016
44.001,-0.244,0.926,0.018
44.011,-0.242,0.922,0.014
44.021,-0.246,0.922,0.014
44.031,-0.244,0.920,0.018
44.041,-0.240,0.918,0.014
44.051,-0.240,0.924,0.016
44.061,-0.236,0.926,0.018
44.071,-0.238,0.930,0.016
44.081,-0.240,0.932,0.014
44.091,-0.240,0.932,0.012
44.101,-0.242,0.936,0.016
44.111,-0.240,0.932,0.016
44.120,-0.242,0.930,0.014
44.130,-0.244,0.926,0.012
44.140,-0.246,0.922,0.018
44.150,-0.248,0.922,0.012
44.160,-0.250,0.924,0.016
44.170,-0.252,0.926,0.014
44.180,-0.248,0.924,0.014
44.190,-0.252,0.924,0.014
44.200,-0.250,0.922,0.014
44.210,-0.246,0.922,0.014
44.220,-0.248,0.922,0.020
44.230,-0.246,0.922,0.016
44.240,-0.248,0.924,0.016
44.249,-0.246,0.926,0.020
44.259,-0.246,0.928,0.018
44.269,-0.246,0.932,0.012
44.279,-0.246,0.924,0.012
44.289,-0.248,0.922,0.018
44.299,-0.244,0.930,0.018
44.309,-0.250,0.918,0.016
44.319,-0.246,0.926,0.014
44.329,-0.244,0.930,0.012
44.339,-0.244,0.928,0.020
44.349,-0.240,0.930,0.012
44.359,-0.238,0.934,0.014
44.369,-0.240,0.930,0.014
44.379,-0.248,0.926,0.018
44.388,-0.246,0.922,0.018
44.398,-0.242,0.924,0.018
44.408,-0.242,0.922,0.018
44.418,-0.246,0.924,0.016
44.428,-0.242,0.924,0.016
44.438,-0.242,0.924,0.016
44.448,-0.244,0.926,0.016
44.458,-0.242,0.924,0.016
44.468,-0.240,0.928,0.018
44.478,-0.242,0.926,0.014
44.488,-0.240,0.926,0.018
44.498,-0.244,0.928,0.016
44.508,-0.246,0.926,0.016
44.517,-0.244,0.926,0.014
44.527,-0.248,0.928,0.016
44.537,-0.248,0.928,0.012
44.547,-0.248,0.924,0.014
44.557,-0.250,0.924,0.012
44.567,-0.246,0.924,0.014
44.577,-0.244,0.924,0.012
44.587,-0.244,0.924,0.012
44.597,-0.244,0.922,0.014
44.607,-0.246,0.924,0.012
44.617,-0.242,0.924,0.012
44.627,-0.240,0.926,0.010
44.637,-0.242,0.924,0.014
44.646,-0.244,0.924,0.010
44.656,-0.246,0.922,0.014
44.666,-0.246,0.926,0.016
44.676,-0.242,0.930,0.016
44.686,-0.244,0.932,0.014
44.696,-0.244,0.930,0.016
44.706,-0.242,0.924,0.016
44.716,-0.242,0.922,0.018
44.726,-0.240,0.924,0.018
44.736,-0.242,0.922,0.016
44.746,-0.242,0.924,0.020
44.756,-0.240,0.924,0.020
44.766,-0.240,0.922,0.018
44.775,-0.242,0.934,0.018
44.785,-0.240,0.930,0.018
44.795,-0.242,0.932,0.018
44.805,-0.244,0.930,0.016
44.815,-0.238,0.930,0.020
44.825,-0.240,0.932,0.014
44.835,-0.246,0.930,0.014
44.845,-0.246,0.928,0.016
44.855,-0.244,0.926,0.012
44.865,-0.246,0.924,0.010
44.875,-0.248,0.924,0.008
44.885,-0.242,0.922,0.012
44.895,-0.244,0.922,0.010
44.904,-0.240,0.920,0.014
44.914,-0.240,0.922,0.020
44.924,-0.242,0.918,0.016
44.934,-0.240,0.924,0.018
44.944,-0.240,0.926,0.016
44.954,-0.242,0.928,0.016
44.964,-0.240,0.928,0.014
44.974,-0.238,0.930,0.012
44.984,-0.242,0.926,0.014
44.994,-0.244,0.920,0.018
45.004,-0.240,0.928,0.018
45.014,-0.242,0.920,0.014
45.024,-0.242,0.924,0.014
45.034,-0.242,0.934,0.014
45.043,-0.238,0.930,0.014
45.053,-0.236,0.928,0.016
45.063,-0.236,0.932,0.014
45.073,-0.238,0.928,0.016
45.083,-0.234,0.926,0.018
45.093,-0.240,0.928,0.016
45.103,-0.242,0.932,0.018
45.113,-0.238,0.930,0.014
45.123,-0.238,0.932,0.012
45.133,-0.238,0.928,0.012
45.143,-0.240,0.928,0.014
45.153,-0.242,0.926,0.014
45.163,-0.248,0.922,0.014
45.172,-0.246,0.924,0.010
45.182,-0.240,0.928,0.016
45.192,-0.234,0.922,0.012
45.202,-0.246,0.916,0.012
45.212,-0.250,0.922,0.014
45.222,-0.250,0.930,0.014
45.232,-0.248,0.936,0.004
45.242,-0.250,0.932,0.008
45.252,-0.248,0.928,0.010
45.262,-0.244,0.932,0.008
45.272,-0.236,0.928,0.010
45.282,-0.229,0.926,0.008
45.292,-0.227,0.920,0.008
45.301,-0.223,0.922,0.008
45.311,-0.223,0.922,0.008
45.321,-0.219,0.924,0.008
45.331,-0.219,0.930,0.012
45.341,-0.221,0.926,0.012
45.351,-0.229,0.926,0.010
45.361,-0.236,0.928,0.010
45.371,-0.238,0.928,0.010
45.381,-0.244,0.928,0.012
45.391,-0.242,0.926,0.012
45.401,-0.244,0.924,0.014
45.411,-0.248,0.920,0.014
45.421,-0.248,0.928,0.014
45.430,-0.248,0.928,0.012
45.440,-0.246,0.930,0.014
45.450,-0.244,0.930,0.018
45.460,-0.256,0.934,0.021
45.470,-0.281,0.924,0.025
45.480,-0.295,0.941,0.027
45.490,-0.307,0.953,0.025
45.500,-0.299,0.967,0.025
45.510,-0.301,0.951,0.031
45.520,-0.285,0.938,0.037
45.530,-0.254,0.943,0.025
45.540,-0.230,0.941,0.014
45.550,-0.219,0.938,0.014
45.559,-0.211,0.941,0.006
45.569,-0.203,0.938,-0.002
45.579,-0.195,0.928,-0.002
45.589,-0.191,0.914,-0.006
45.599,-0.195,0.898,-0.006
45.609,-0.195,0.895,-0.016
45.619,-0.203,0.893,-0.020
45.629,-0.211,0.893,-0.025
45.639,-0.229,0.895,-0.029
45.649,-0.242,0.895,-0.027
45.659,-0.258,0.900,-0.025
45.669,-0.264,0.900,-0.023
45.679,-0.270,0.902,-0.018
45.689,-0.271,0.908,-0.012
45.698,-0.268,0.916,-0.010
45.708,-0.270,0.924,-0.006
45.718,-0.266,0.930,0.000
45.728,-0.262,0.934,0.004
45.738,-0.260,0.932,0.004
45.748,-0.254,0.932,0.012
45.758,-0.248,0.938,0.010
45.768,-0.246,0.930,0.014
45.778,-0.242,0.936,0.014
45.788,-0.240,0.936,0.012
45.798,-0.238,0.930,0.012
45.808,-0.236,0.934,0.010
45.818,-0.238,0.932,0.010
45.827,-0.240,0.934,0.008
45.837,-0.246,0.930,0.006
45.847,-0.250,0.926,0.002
45.857,-0.252,0.924,0.002
45.867,-0.250,0.920,0.000
45.877,-0.250,0.920,-0.004
45.887,-0.254,0.920,-0.006
45.897,-0.256,0.922,-0.004
45.907,-0.256,0.920,0.000
45.917,-0.254,0.922,-0.002
45.927,-0.250,0.922,0.000
45.937,-0.252,0.928,0.000
45.947,-0.250,0.926,0.000
45.956,-0.256,0.930,0.006
45.966,-0.260,0.936,0.008
45.976,-0.271,0.943,0.006
45.986,-0.287,0.953,0.006
45.996,-0.285,0.941,0.008
46.006,-0.270,0.928,0.008
46.016,-0.240,0.918,0.002
46.026,-0.223,0.916,-0.008
46.036,-0.223,0.920,-0.012
46.046,-0.232,0.920,-0.014
46.056,-0.240,0.910,-0.018
46.066,-0.250,0.902,-0.018
46.076,-0.258,0.908,-0.016
46.085,-0.262,0.908,-0.018
46.095,-0.270,0.910,-0.018
46.105,-0.271,0.910,-0.018
46.115,-0.275,0.904,-0.016
46.125,-0.266,0.906,-0.016
46.135,-0.248,0.920,-0.018
46.145,-0.236,0.922,-0.023
46.155,-0.236,0.924,-0.020
46.165,-0.238,0.924,-0.012
46.175,-0.244,0.922,-0.014
46.185,-0.248,0.926,-0.004
46.195,-0.240,0.938,-0.004
46.205,-0.219,0.939,-0.006
46.214,-0.215,0.938,-0.008
46.224,-0.219,0.932,0.002
46.234,-0.221,0.930,0.000
46.244,-0.227,0.926,0.000
46.254,-0.234,0.924,0.002
46.264,-0.232,0.924,0.006
46.274,-0.232,0.926,0.000
46.284,-0.232,0.932,-0.004
46.294,-0.240,0.936,-0.006
46.304,-0.246,0.938,-0.004
46.314,-0.248,0.934,-0.004
46.324,-0.248,0.934,-0.006
46.334,-0.252,0.932,-0.008
46.344,-0.258,0.930,-0.002
46.353,-0.262,0.926,0.002
46.363,-0.266,0.928,0.000
46.373,-0.264,0.936,-0.002
46.383,-0.262,0.938,-0.006
46.393,-0.260,0.926,-0.002
46.403,-0.256,0.922,0.002
46.413,-0.252,0.922,0.002
46.423,-0.252,0.918,0.000
46.433,-0.248,0.912,0.006
46.443,-0.254,0.906,0.002
46.453,-0.248,0.904,-0.002
46.463,-0.244,0.908,-0.004
46.473,-0.248,0.910,-0.010
46.482,-0.252,0.916,-0.014
46.492,-0.250,0.914,-0.014
46.502,-0.252,0.912,-0.018
46.512,-0.250,0.920,-0.012
46.522,-0.250,0.922,-0.012
46.532,-0.252,0.916,-0.006
46.542,-0.254,0.928,-0.010
46.552,-0.254,0.932,-0.008
46.562,-0.246,0.936,-0.008
46.572,-0.242,0.938,-0.002
46.582,-0.238,0.936,0.000
46.592,-0.240,0.936,-0.004
46.602,-0.236,0.936,0.000
46.611,-0.236,0.930,-0.002
46.621,-0.232,0.926,-0.002
46.631,-0.240,0.924,-0.006
46.641,-0.244,0.922,-0.002
46.651,-0.242,0.920,0.000
46.661,-0.240,0.920,-0.002
46.671,-0.244,0.920,-0.002
46.681,-0.248,0.922,-0.004
46.691,-0.256,0.924,-0.004
46.701,-0.260,0.924,-0.002
46.711,-0.256,0.922,-0.002
46.721,-0.252,0.924,0.000
46.731,-0.250,0.922,-0.006
46.740,-0.254,0.924,-0.006
46.750,-0.256,0.924,-0.004
46.760,-0.250,0.926,-0.004
46.770,-0.246,0.924,-0.004
46.780,-0.246,0.922,-0.004
46.790,-0.244,0.922,-0.004
46.800,-0.229,0.914,-0.006
46.810,-0.223,0.916,-0.008
46.820,-0.225,0.924,-0.010
46.830,-0.234,0.930,-0.012
46.840,-0.238,0.932,-0.010
46.850,-0.246,0.928,-0.006
46.860,-0.256,0.928,0.000
46.869,-0.256,0.924,-0.002
46.879,-0.260,0.924,-0.002
46.889,-0.258,0.928,0.000
46.899,-0.260,0.926,0.002
46.909,-0.256,0.928,0.000
46.919,-0.250,0.924,-0.002
46.929,-0.246,0.924,0.002
46.939,-0.242,0.928,0.000
46.949,-0.242,0.934,-0.002
46.959,-0.242,0.938,0.000
46.969,-0.246,0.934,0.002
46.979,-0.244,0.928,0.002
46.989,-0.236,0.922,0.006
46.998,-0.234,0.916,0.004
47.008,-0.232,0.916,-0.004
47.018,-0.227,0.918,-0.002
47.028,-0.230,0.920,-0.004
47.038,-0.230,0.920,-0.002
47.048,-0.232,0.928,-0.002
47.058,-0.236,0.934,-0.004
47.068,-0.244,0.938,-0.002
47.078,-0.248,0.934,0.002
47.088,-0.246,0.928,0.004
47.098,-0.246,0.930,0.002
47.108,-0.250,0.928,-0.004
47.118,-0.252,0.922,-0.002
47.128,-0.248,0.924,-0.004
47.137,-0.244,0.928,-0.006
47.147,-0.248,0.926,-0.002
47.157,-0.246,0.922,0.000
47.167,-0.240,0.922,-0.002
47.177,-0.242,0.918,-0.004
47.187,-0.240,0.918,-0.002
47.197,-0.244,0.920,0.002
47.207,-0.244,0.918,0.002
47.217,-0.244,0.924,0.002
47.227,-0.246,0.924,-0.002
47.237,-0.238,0.930,-0.002
47.247,-0.240,0.932,0.000
47.257,-0.240,0.936,0.000
47.266,-0.242,0.928,0.000
47.276,-0.236,0.926,0.004
47.286,-0.232,0.924,0.000
47.296,-0.223,0.912,0.002
47.306,-0.229,0.928,-0.002
47.316,-0.238,0.928,-0.002
47.326,-0.238,0.930,0.004
47.336,-0.242,0.932,0.004
47.346,-0.248,0.928,0.002
47.356,-0.250,0.928,0.004
47.366,-0.250,0.926,0.014
47.376,-0.248,0.922,0.008
47.386,-0.250,0.928,0.006
47.395,-0.252,0.932,0.006
47.405,-0.248,0.930,0.004
47.415,-0.244,0.932,0.004
47.425,-0.246,0.928,0.002
47.435,-0.246,0.926,0.004
47.445,-0.242,0.922,0.004
47.455,-0.246,0.926,0.002
47.465,-0.242,0.926,0.000
47.475,-0.238,0.926,0.004
47.485,-0.234,0.920,0.000
47.495,-0.238,0.922,-0.002
47.505,-0.238,0.924,-0.004
47.515,-0.238,0.924,-0.002
47.524,-0.242,0.924,-0.002
47.534,-0.240,0.922,-0.004
47.544,-0.232,0.922,-0.002
47.554,-0.234,0.926,0.000
47.564,-0.238,0.922,-0.006
47.574,-0.242,0.920,-0.002
47.584,-0.244,0.920,-0.002
47.594,-0.248,0.928,-0.004
47.604,-0.250,0.924,0.000
47.614,-0.250,0.922,0.000
47.624,-0.248,0.924,0.004
47.634,-0.246,0.924,0.004
47.644,-0.246,0.922,0.006
47.653,-0.242,0.926,0.004
47.663,-0.238,0.928,0.008
47.673,-0.240,0.926,0.004
47.683,-0.238,0.928,0.002
47.693,-0.236,0.924,0.004
47.703,-0.238,0.922,0.006
47.713,-0.238,0.922,0.000
47.723,-0.242,0.930,0.004
47.733,-0.250,0.934,0.006
47.743,-0.246,0.932,0.002
47.753,-0.240,0.926,0.006
47.763,-0.240,0.926,0.000
47.773,-0.238,0.918,0.004
47.783,-0.236,0.918,0.006
47.792,-0.238,0.922,0.004
47.802,-0.240,0.918,0.004
47.812,-0.238,0.926,0.004
47.822,-0.238,0.930,0.002
47.832,-0.240,0.930,0.004
47.842,-0.244,0.934,0.004
47.852,-0.242,0.930,0.004
47.862,-0.244,0.932,0.004
47.872,-0.248,0.934,0.002
47.882,-0.248,0.926,0.004
47.892,-0.242,0.924,0.004
47.902,-0.242,0.926,0.000
47.912,-0.244,0.926,-0.002
47.921,-0.244,0.926,0.000
47.931,-0.246,0.924,0.002
47.941,-0.244,0.922,-0.002
47.951,-0.242,0.920,0.000
47.961,-0.244,0.920,0.002
47.971,-0.244,0.920,0.002
47.981,-0.240,0.922,0.006
47.991,-0.240,0.924,0.006
48.001,-0.242,0.926,0.004
48.011,-0.242,0.928,0.004
48.021,-0.244,0.928,0.004
48.031,-0.244,0.920,0.004
48.041,-0.242,0.924,0.014
48.050,-0.236,0.928,0.008
48.060,-0.236,0.922,0.006
48.070,-0.236,0.924,0.010
48.080,-0.240,0.932,0.008
48.090,-0.242,0.930,0.004
48.100,-0.242,0.932,0.006
48.110,-0.242,0.936,0.006
48.120,-0.244,0.930,0.008
48.130,-0.246,0.930,0.010
48.140,-0.246,0.926,0.010
48.150,-0.246,0.926,0.006
48.160,-0.242,0.924,0.008
48.170,-0.240,0.924,0.006
48.179,-0.234,0.924,0.006
48.189,-0.234,0.924,0.004
48.199,-0.236,0.924,0.006
48.209,-0.240,0.922,0.008
48.219,-0.244,0.922,0.004
48.229,-0.246,0.920,0.006
48.239,-0.248,0.926,0.008
48.249,-0.250,0.928,0.008
48.259,-0.250,0.930,0.008
48.269,-0.248,0.926,0.008
48.279,-0.250,0.926,0.002
48.289,-0.252,0.930,0.010
48.299,-0.250,0.926,0.008
48.308,-0.250,0.926,0.004
48.318,-0.248,0.926,0.006
48.328,-0.246,0.924,0.008
48.338,-0.244,0.924,0.006
48.348,-0.240,0.922,0.008
48.358,-0.244,0.922,0.006
48.368,-0.244,0.922,0.006
48.378,-0.242,0.926,0.008
48.388,-0.240,0.924,0.008
48.398,-0.244,0.926,0.004
48.408,-0.246,0.926,0.010
48.418,-0.246,0.926,0.008
48.428,-0.248,0.928,0.006
48.438,-0.248,0.926,0.010
48.447,-0.248,0.926,0.006
48.457,-0.246,0.930,0.006
48.467,-0.246,0.930,0.004
48.477,-0.248,0.928,0.008
48.487,-0.242,0.924,0.008
48.497,-0.244,0.922,0.002
48.507,-0.242,0.922,0.008
48.517,-0.244,0.922,0.004
48.527,-0.246,0.928,0.006
48.537,-0.246,0.926,0.004
48.547,-0.250,0.924,0.006
48.557,-0.248,0.922,0.010
48.567,-0.244,0.922,0.008
48.576,-0.246,0.918,0.006
48.586,-0.242,0.920,0.010
48.596,-0.242,0.922,0.010
48.606,-0.240,0.922,0.010
48.616,-0.240,0.924,0.010
48.626,-0.244,0.932,0.004
48.636,-0.248,0.932,0.006
48.646,-0.250,0.930,0.004
48.656,-0.252,0.934,0.008
48.666,-0.248,0.934,0.004
48.676,-0.248,0.930,0.008
48.686,-0.250,0.922,0.008
48.696,-0.250,0.924,0.006
48.705,-0.248,0.928,0.006
48.715,-0.248,0.926,0.004
48.725,-0.244,0.924,0.004
48.735,-0.248,0.924,0.002
48.745,-0.246,0.924,0.006
48.755,-0.248,0.922,0.008
48.765,-0.246,0.920,0.006
48.775,-0.246,0.920,0.008
48.785,-0.242,0.922,0.008
48.795,-0.242,0.922,0.006
48.805,-0.244,0.924,0.004
48.815,-0.248,0.928,0.004
48.825,-0.254,0.924,0.006
48.834,-0.258,0.922,0.006
48.844,-0.254,0.924,0.010
48.854,-0.246,0.926,0.004
48.864,-0.242,0.914,0.004
48.874,-0.236,0.922,0.008
48.884,-0.242,0.928,0.000
48.894,-0.244,0.926,0.000
48.904,-0.246,0.930,0.002
48.914,-0.246,0.928,0.000
48.924,-0.240,0.930,0.006
48.934,-0.240,0.928,0.006
48.944,-0.238,0.932,0.002
48.954,-0.238,0.930,0.004
48.963,-0.236,0.930,0.000
48.973,-0.236,0.932,0.004
48.983,-0.234,0.926,-0.002
48.993,-0.234,0.924,0.000
49.003,-0.238,0.926,-0.002
49.013,-0.242,0.926,0.000
49.023,-0.240,0.922,0.000
49.033,-0.240,0.924,0.000
49.043,-0.242,0.928,0.000
49.053,-0.246,0.924,0.002
49.063,-0.248,0.926,0.000
49.073,-0.248,0.924,-0.002
49.083,-0.244,0.920,-0.002
49.093,-0.236,0.914,-0.004
49.102,-0.236,0.918,-0.006
49.112,-0.238,0.924,-0.010
49.122,-0.254,0.914,-0.004
49.132,-0.256,0.914,0.006
49.142,-0.254,0.914,0.000
49.152,-0.254,0.914,-0.002
49.162,-0.252,0.914,0.004
49.172,-0.248,0.920,0.004
49.182,-0.236,0.928,0.000
49.192,-0.236,0.934,0.006
49.202,-0.236,0.936,0.012
49.212,-0.242,0.943,0.016
49.222,-0.254,0.943,0.018
49.231,-0.258,0.941,0.023
49.241,-0.254,0.939,0.021
49.251,-0.240,0.936,0.021
49.261,-0.236,0.936,0.020
49.271,-0.234,0.934,0.016
49.281,-0.234,0.932,0.014
49.291,-0.236,0.934,0.012
49.301,-0.234,0.924,0.010
49.311,-0.238,0.920,0.008
49.321,-0.234,0.916,0.012
49.331,-0.236,0.910,0.010
49.341,-0.242,0.914,0.008
49.351,-0.244,0.916,0.008
49.360,-0.248,0.918,0.010
49.370,-0.250,0.924,0.008
49.380,-0.248,0.932,0.008
49.390,-0.248,0.930,0.006
49.400,-0.248,0.930,0.010
49.410,-0.244,0.922,0.012
49.420,-0.240,0.926,0.012
49.430,-0.242,0.930,0.012
49.440,-0.242,0.922,0.014
49.450,-0.240,0.926,0.014
49.460,-0.250,0.926,0.010
49.470,-0.250,0.924,0.014
49.480,-0.254,0.932,0.018
49.489,-0.250,0.932,0.016
49.499,-0.250,0.930,0.020
49.509,-0.252,0.922,0.020
49.519,-0.254,0.920,0.021
49.529,-0.248,0.918,0.020
49.539,-0.246,0.918,0.016
49.549,-0.254,0.918,0.018
49.559,-0.250,0.920,0.021
49.569,-0.256,0.928,0.016
49.579,-0.258,0.930,0.018
49.589,-0.264,0.924,0.018
49.599,-0.262,0.924,0.023
49.609,-0.258,0.930,0.020
49.618,-0.256,0.924,0.021
49.628,-0.250,0.938,0.021
49.638,-0.254,0.934,0.014
49.648,-0.248,0.932,0.016
49.658,-0.240,0.932,0.020
49.668,-0.240,0.928,0.016
49.678,-0.238,0.928,0.014
49.688,-0.236,0.926,0.018
49.698,-0.244,0.916,0.016
49.708,-0.242,0.918,0.014
49.718,-0.242,0.922,0.012
49.728,-0.248,0.922,0.010
49.738,-0.248,0.922,0.012
49.747,-0.248,0.920,0.012
49.757,-0.248,0.920,0.012
49.767,-0.246,0.920,0.014
49.777,-0.248,0.924,0.014
49.787,-0.246,0.926,0.014
49.797,-0.250,0.928,0.014
49.807,-0.252,0.930,0.014
49.817,-0.254,0.930,0.012
49.827,-0.250,0.928,0.010
49.837,-0.250,0.928,0.020
49.847,-0.242,0.928,0.014
49.857,-0.242,0.930,0.012
49.867,-0.238,0.930,0.006
49.877,-0.234,0.924,0.012
49.886,-0.234,0.928,0.010
49.896,-0.238,0.926,0.008
49.906,-0.242,0.928,0.010
49.916,-0.246,0.930,0.008
49.926,-0.246,0.924,0.008
49.936,-0.248,0.924,0.008
49.946,-0.252,0.926,0.010
49.956,-0.248,0.924,0.012
49.966,-0.246,0.924,0.012
49.976,-0.244,0.920,0.006
49.986,-0.248,0.918,0.006
49.996,-0.242,0.922,0.010
50.006,-0.246,0.926,0.008
50.015,-0.244,0.924,0.010
50.025,-0.242,0.930,0.010
50.035,-0.238,0.924,0.006
50.045,-0.236,0.926,0.006
50.055,-0.236,0.924,0.006
50.065,-0.242,0.924,0.010
50.075,-0.240,0.924,0.014
50.085,-0.242,0.924,0.012
50.095,-0.238,0.928,0.010
50.105,-0.238,0.936,0.006
50.115,-0.240,0.936,0.008
50.125,-0.236,0.932,0.008
50.135,-0.236,0.932,0.010
50.144,-0.236,0.930,0.008
50.154,-0.240,0.928,0.006
50.164,-0.244,0.926,0.010
50.174,-0.248,0.926,0.006
50.184,-0.246,0.926,0.010
50.194,-0.248,0.930,0.004
50.204,-0.252,0.924,0.006
50.214,-0.250,0.924,0.008
50.224,-0.248,0.922,0.006
50.234,-0.244,0.918,0.012
50.244,-0.242,0.918,0.010
50.254,-0.244,0.918,0.008
50.264,-0.240,0.922,0.010
50.273,-0.242,0.920,0.012
50.283,-0.242,0.926,0.010
50.293,-0.244,0.928,0.008
50.303,-0.246,0.922,0.010
50.313,-0.250,0.920,0.014
50.323,-0.246,0.930,0.014
50.333,-0.250,0.928,0.012
50.343,-0.252,0.924,0.014
50.353,-0.248,0.934,0.012
50.363,-0.246,0.934,0.010
50.373,-0.240,0.932,0.012
50.383,-0.242,0.932,0.010
50.393,-0.240,0.932,0.010
50.402,-0.242,0.928,0.014
50.412,-0.244,0.922,0.014
50.422,-0.242,0.922,0.014
50.432,-0.244,0.926,0.012
50.442,-0.242,0.924,0.012
50.452,-0.244,0.928,0.010
50.462,-0.246,0.928,0.006
50.472,-0.248,0.928,0.012
50.482,-0.246,0.920,0.016
50.492,-0.244,0.920,0.014
50.502,-0.244,0.920,0.008
50.512,-0.244,0.920,0.014
50.522,-0.242,0.920,0.008
50.532,-0.244,0.922,0.008
50.541,-0.246,0.926,0.006
50.551,-0.242,0.926,0.006
50.561,-0.246,0.926,0.006
50.571,-0.248,0.928,0.008
50.581,-0.248,0.928,0.010
50.591,-0.248,0.928,0.008
50.601,-0.248,0.926,0.010
50.611,-0.248,0.926,0.010
50.621,-0.246,0.926,0.010
50.631,-0.250,0.924,0.010
50.641,-0.252,0.924,0.012
50.651,-0.248,0.922,0.014
50.661,-0.250,0.920,0.012
50.670,-0.252,0.924,0.006
50.680,-0.252,0.926,0.010
50.690,-0.252,0.928,0.010
50.700,-0.248,0.926,0.008
50.710,-0.248,0.924,0.008
50.720,-0.250,0.924,0.008
50.730,-0.252,0.922,0.010
50.740,-0.246,0.928,0.012
50.750,-0.248,0.928,0.008
50.760,-0.246,0.924,0.008
50.770,-0.244,0.926,0.010
50.780,-0.244,0.922,0.006
50.790,-0.246,0.922,0.006
50.799,-0.246,0.924,0.010
50.809,-0.246,0.922,0.010
50.819,-0.248,0.924,0.010
50.829,-0.244,0.924,0.014
50.839,-0.246,0.932,0.010
50.849,-0.250,0.932,0.008
50.859,-0.246,0.932,0.006
50.869,-0.244,0.928,0.004
50.879,-0.244,0.932,0.004
50.889,-0.244,0.930,0.000
50.899,-0.246,0.924,0.006
50.909,-0.246,0.922,0.004
50.919,-0.248,0.922,0.004
50.928,-0.248,0.926,0.002
50.938,-0.246,0.922,0.000
50.948,-0.248,0.924,0.000
50.958,-0.246,0.920,0.000
50.968,-0.246,0.920,0.000
50.978,-0.246,0.920,-0.002
50.988,-0.246,0.920,0.004
50.998,-0.250,0.926,0.002
51.008,-0.246,0.922,0.002
51.018,-0.246,0.926,0.002
51.028,-0.246,0.930,0.004
51.038,-0.244,0.930,0.006
51.048,-0.248,0.918,0.004
51.057,-0.250,0.926,0.008
51.067,-0.250,0.928,0.006
51.077,-0.248,0.920,0.004
51.087,-0.248,0.920,0.006
51.097,-0.250,0.928,0.000
51.107,-0.246,0.930,0.002
51.117,-0.248,0.928,0.000
51.127,-0.246,0.930,0.002
51.137,-0.244,0.926,0.006
51.147,-0.246,0.924,0.002
51.157,-0.244,0.924,0.002
51.167,-0.240,0.922,0.004
51.177,-0.238,0.922,0.002
51.187,-0.240,0.924,0.002
51.196,-0.240,0.922,0.000
51.206,-0.242,0.924,0.002
51.216,-0.240,0.924,0.002
51.226,-0.242,0.922,0.004
51.236,-0.242,0.924,0.002
51.246,-0.250,0.924,0.006
51.256,-0.252,0.926,0.004
51.266,-0.250,0.924,0.006
51.276,-0.252,0.928,0.004
51.286,-0.250,0.924,0.004
51.296,-0.244,0.926,0.004
51.306,-0.244,0.926,0.002
51.316,-0.244,0.924,0.004
51.325,-0.244,0.922,0.004
51.335,-0.240,0.926,0.002
51.345,-0.246,0.926,0.004
51.355,-0.248,0.926,0.002
51.365,-0.248,0.926,0.004
51.375,-0.244,0.926,0.004
51.385,-0.244,0.926,0.002
51.395,-0.246,0.924,0.002
51.405,-0.244,0.928,0.000
51.415,-0.248,0.922,0.006
51.425,-0.248,0.924,0.008
51.435,-0.250,0.926,0.006
51.445,-0.250,0.928,0.008
51.454,-0.250,0.928,0.006
51.464,-0.252,0.926,0.008
51.474,-0.252,0.922,0.004
51.484,-0.250,0.920,0.004
51.494,-0.248,0.926,0.006
51.504,-0.246,0.930,0.008
