df_hash,22ZHK4.9VZJG1
device,HZ2X61
project_hash,29R7
project_name,istanbul_aydin_university
person_hash,29R7.P9YT
person_label,V19
date_time_start,2025-05-23_10-38-40.608000_+03
date_time_start_unix,1747985920.608
date_time_end,2025-05-23_10-47-26.620000_+03
length_difference_noticed,no

time,acc_x,acc_y,acc_z
4.821,-0.623,0.775,0.154
4.831,-0.623,0.777,0.158
4.841,-0.621,0.779,0.154
4.851,-0.621,0.781,0.160
4.861,-0.621,0.777,0.154
4.871,-0.625,0.775,0.158
4.881,-0.623,0.773,0.150
4.891,-0.625,0.781,0.160
4.901,-0.627,0.779,0.156
4.911,-0.625,0.773,0.158
4.921,-0.629,0.777,0.154
4.930,-0.629,0.781,0.158
4.940,-0.623,0.781,0.158
4.950,-0.619,0.777,0.158
4.960,-0.617,0.777,0.156
4.970,-0.617,0.777,0.160
4.980,-0.617,0.779,0.156
4.990,-0.613,0.773,0.156
5.000,-0.615,0.777,0.154
5.010,-0.617,0.779,0.158
5.020,-0.617,0.781,0.158
5.030,-0.619,0.779,0.158
5.040,-0.621,0.779,0.158
5.050,-0.619,0.777,0.154
5.060,-0.619,0.777,0.158
5.069,-0.621,0.777,0.154
5.079,-0.617,0.777,0.158
5.089,-0.617,0.779,0.156
5.099,-0.617,0.775,0.158
5.109,-0.617,0.775,0.158
5.119,-0.613,0.775,0.156
5.129,-0.617,0.777,0.156
5.139,-0.617,0.777,0.158
5.149,-0.621,0.775,0.154
5.159,-0.625,0.779,0.156
5.169,-0.623,0.783,0.158
5.179,-0.625,0.781,0.154
5.189,-0.623,0.775,0.156
5.199,-0.621,0.773,0.158
5.208,-0.623,0.775,0.156
5.218,-0.623,0.781,0.156
5.228,-0.625,0.785,0.156
5.238,-0.625,0.779,0.152
5.248,-0.627,0.781,0.154
5.258,-0.629,0.781,0.156
5.268,-0.629,0.775,0.154
5.278,-0.627,0.779,0.158
5.288,-0.625,0.779,0.156
5.298,-0.621,0.777,0.156
5.308,-0.617,0.777,0.156
5.318,-0.619,0.773,0.156
5.328,-0.617,0.771,0.156
5.338,-0.619,0.773,0.162
5.347,-0.621,0.771,0.154
5.357,-0.619,0.771,0.158
5.367,-0.619,0.771,0.160
5.377,-0.623,0.770,0.160
5.387,-0.617,0.773,0.162
5.397,-0.621,0.771,0.162
5.407,-0.625,0.773,0.168
5.417,-0.623,0.775,0.170
5.427,-0.629,0.775,0.172
5.437,-0.631,0.775,0.174
5.447,-0.629,0.777,0.172
5.457,-0.625,0.771,0.172
5.467,-0.631,0.773,0.166
5.477,-0.631,0.775,0.166
5.486,-0.627,0.773,0.162
5.496,-0.633,0.771,0.168
5.506,-0.629,0.771,0.162
5.516,-0.633,0.773,0.160
5.526,-0.629,0.773,0.164
5.536,-0.619,0.770,0.160
5.546,-0.621,0.770,0.160
5.556,-0.623,0.771,0.156
5.566,-0.625,0.773,0.162
5.576,-0.627,0.771,0.164
5.586,-0.623,0.771,0.164
5.596,-0.625,0.771,0.164
5.606,-0.625,0.773,0.156
5.616,-0.625,0.775,0.156
5.625,-0.619,0.773,0.158
5.635,-0.617,0.781,0.160
5.645,-0.615,0.779,0.160
5.655,-0.619,0.783,0.158
5.665,-0.615,0.779,0.154
5.675,-0.619,0.779,0.160
5.685,-0.617,0.779,0.160
5.695,-0.621,0.779,0.162
5.705,-0.621,0.777,0.156
5.715,-0.621,0.773,0.160
5.725,-0.623,0.779,0.158
5.735,-0.625,0.779,0.160
5.745,-0.627,0.779,0.156
5.755,-0.623,0.771,0.162
5.764,-0.623,0.773,0.160
5.774,-0.625,0.771,0.158
5.784,-0.627,0.779,0.158
5.794,-0.629,0.779,0.160
5.804,-0.625,0.777,0.162
5.814,-0.623,0.781,0.156
5.824,-0.621,0.781,0.158
5.834,-0.619,0.781,0.160
5.844,-0.621,0.781,0.160
5.854,-0.619,0.781,0.158
5.864,-0.619,0.779,0.156
5.874,-0.619,0.779,0.160
5.884,-0.617,0.779,0.156
5.893,-0.619,0.777,0.160
5.903,-0.615,0.775,0.162
5.913,-0.615,0.777,0.158
5.923,-0.615,0.781,0.164
5.933,-0.615,0.779,0.162
5.943,-0.617,0.779,0.160
5.953,-0.613,0.775,0.160
5.963,-0.615,0.779,0.158
5.973,-0.617,0.779,0.158
5.983,-0.619,0.779,0.156
5.993,-0.617,0.783,0.154
6.003,-0.621,0.785,0.154
6.013,-0.617,0.787,0.156
6.023,-0.617,0.783,0.154
6.032,-0.617,0.785,0.156
6.042,-0.615,0.783,0.154
6.052,-0.619,0.787,0.154
6.062,-0.619,0.787,0.148
6.072,-0.615,0.783,0.150
6.082,-0.615,0.783,0.156
6.092,-0.613,0.783,0.154
6.102,-0.615,0.785,0.152
6.112,-0.615,0.785,0.156
6.122,-0.615,0.781,0.156
6.132,-0.617,0.783,0.154
6.142,-0.615,0.777,0.158
6.152,-0.617,0.781,0.154
6.162,-0.621,0.779,0.158
6.171,-0.619,0.781,0.156
6.181,-0.617,0.781,0.158
6.191,-0.617,0.777,0.154
6.201,-0.619,0.783,0.158
6.211,-0.619,0.781,0.158
6.221,-0.621,0.779,0.156
6.231,-0.623,0.775,0.156
6.241,-0.621,0.779,0.160
6.251,-0.621,0.779,0.158
6.261,-0.623,0.777,0.156
6.271,-0.623,0.775,0.160
6.281,-0.621,0.773,0.158
6.291,-0.623,0.777,0.158
6.301,-0.623,0.775,0.162
6.310,-0.625,0.781,0.164
6.320,-0.627,0.777,0.158
6.330,-0.625,0.775,0.162
6.340,-0.623,0.773,0.160
6.350,-0.625,0.773,0.164
6.360,-0.625,0.775,0.158
6.370,-0.623,0.771,0.158
6.380,-0.625,0.773,0.162
6.390,-0.629,0.771,0.162
6.400,-0.627,0.773,0.158
6.410,-0.627,0.777,0.160
6.420,-0.623,0.773,0.160
6.430,-0.625,0.775,0.164
6.440,-0.623,0.775,0.160
6.449,-0.625,0.773,0.162
6.459,-0.625,0.773,0.166
6.469,-0.623,0.777,0.162
6.479,-0.623,0.775,0.162
6.489,-0.625,0.775,0.162
6.499,-0.621,0.779,0.164
6.509,-0.625,0.779,0.164
6.519,-0.625,0.783,0.164
6.529,-0.621,0.777,0.164
6.539,-0.621,0.773,0.158
6.549,-0.621,0.775,0.160
6.559,-0.623,0.777,0.160
6.569,-0.625,0.779,0.160
6.579,-0.627,0.781,0.160
6.588,-0.623,0.779,0.160
6.598,-0.621,0.777,0.160
6.608,-0.619,0.783,0.160
6.618,-0.619,0.779,0.158
6.628,-0.619,0.779,0.162
6.638,-0.619,0.779,0.162
6.648,-0.615,0.781,0.162
6.658,-0.617,0.779,0.158
6.668,-0.617,0.781,0.162
6.678,-0.615,0.781,0.158
6.688,-0.615,0.779,0.160
6.698,-0.615,0.781,0.160
6.708,-0.619,0.777,0.160
6.718,-0.619,0.777,0.160
6.727,-0.621,0.779,0.160
6.737,-0.619,0.779,0.156
6.747,-0.619,0.781,0.158
6.757,-0.623,0.781,0.158
6.767,-0.621,0.779,0.158
6.777,-0.621,0.777,0.158
6.787,-0.621,0.781,0.160
6.797,-0.621,0.781,0.158
6.807,-0.619,0.779,0.160
6.817,-0.619,0.777,0.156
6.827,-0.619,0.775,0.156
6.837,-0.619,0.781,0.156
6.847,-0.619,0.783,0.156
6.857,-0.619,0.781,0.156
6.866,-0.615,0.783,0.158
6.876,-0.617,0.779,0.158
6.886,-0.615,0.785,0.158
6.896,-0.615,0.785,0.160
6.906,-0.619,0.783,0.158
6.916,-0.619,0.783,0.160
6.926,-0.621,0.779,0.158
6.936,-0.623,0.777,0.158
6.946,-0.623,0.779,0.160
6.956,-0.621,0.777,0.162
6.966,-0.619,0.777,0.162
6.976,-0.619,0.781,0.162
6.986,-0.617,0.781,0.162
6.996,-0.619,0.779,0.164
7.005,-0.617,0.781,0.160
7.015,-0.617,0.783,0.160
7.025,-0.617,0.779,0.158
7.035,-0.619,0.779,0.158
7.045,-0.619,0.779,0.160
7.055,-0.621,0.785,0.162
7.065,-0.617,0.783,0.160
7.075,-0.617,0.779,0.162
7.085,-0.617,0.777,0.158
7.095,-0.617,0.777,0.158
7.105,-0.619,0.775,0.162
7.115,-0.621,0.773,0.158
7.125,-0.623,0.771,0.162
7.135,-0.623,0.773,0.162
7.144,-0.623,0.777,0.164
7.154,-0.619,0.777,0.162
7.164,-0.623,0.775,0.162
7.174,-0.619,0.777,0.162
7.184,-0.619,0.779,0.168
7.194,-0.621,0.781,0.166
7.204,-0.625,0.779,0.166
7.214,-0.623,0.779,0.166
7.224,-0.619,0.773,0.166
7.234,-0.619,0.777,0.164
7.244,-0.625,0.779,0.166
7.254,-0.623,0.779,0.168
7.264,-0.619,0.777,0.162
7.274,-0.617,0.775,0.162
7.283,-0.619,0.775,0.160
7.293,-0.619,0.775,0.160
7.303,-0.621,0.779,0.164
7.313,-0.621,0.779,0.158
7.323,-0.621,0.783,0.160
7.333,-0.619,0.781,0.160
7.343,-0.619,0.783,0.160
7.353,-0.621,0.781,0.160
7.363,-0.619,0.779,0.160
7.373,-0.619,0.781,0.162
7.383,-0.615,0.781,0.162
7.393,-0.617,0.779,0.162
7.403,-0.615,0.777,0.160
7.412,-0.615,0.781,0.162
7.422,-0.613,0.783,0.160
7.432,-0.615,0.781,0.164
7.442,-0.615,0.777,0.164
7.452,-0.613,0.779,0.166
7.462,-0.617,0.777,0.160
7.472,-0.619,0.777,0.160
7.482,-0.621,0.779,0.162
7.492,-0.621,0.779,0.162
7.502,-0.621,0.779,0.158
7.512,-0.621,0.775,0.158
7.522,-0.623,0.779,0.158
7.532,-0.621,0.781,0.156
7.542,-0.621,0.781,0.160
7.551,-0.621,0.781,0.158
7.561,-0.619,0.783,0.158
7.571,-0.613,0.783,0.160
7.581,-0.621,0.785,0.156
7.591,-0.613,0.781,0.160
7.601,-0.611,0.783,0.160
7.611,-0.613,0.783,0.162
7.621,-0.617,0.783,0.160
7.631,-0.617,0.781,0.162
7.641,-0.615,0.781,0.160
7.651,-0.615,0.781,0.158
7.661,-0.619,0.781,0.160
7.671,-0.617,0.783,0.158
7.681,-0.617,0.781,0.160
7.690,-0.623,0.777,0.158
7.700,-0.623,0.779,0.158
7.710,-0.621,0.779,0.160
7.720,-0.619,0.781,0.160
7.730,-0.611,0.777,0.158
7.740,-0.613,0.779,0.164
7.750,-0.615,0.783,0.162
7.760,-0.623,0.785,0.164
7.770,-0.615,0.781,0.162
7.780,-0.615,0.781,0.164
7.790,-0.627,0.777,0.164
7.800,-0.615,0.781,0.162
7.810,-0.611,0.773,0.164
7.820,-0.619,0.777,0.164
7.829,-0.621,0.781,0.166
7.839,-0.621,0.781,0.166
7.849,-0.619,0.781,0.160
7.859,-0.621,0.783,0.162
7.869,-0.617,0.777,0.164
7.879,-0.613,0.779,0.160
7.889,-0.611,0.777,0.166
7.899,-0.609,0.783,0.162
7.909,-0.615,0.781,0.162
7.919,-0.619,0.781,0.170
7.929,-0.617,0.787,0.164
7.939,-0.619,0.787,0.168
7.949,-0.615,0.787,0.166
7.959,-0.609,0.785,0.164
7.968,-0.611,0.787,0.162
7.978,-0.607,0.783,0.164
7.988,-0.604,0.783,0.160
7.998,-0.605,0.777,0.160
8.008,-0.611,0.777,0.164
8.018,-0.609,0.781,0.166
8.028,-0.613,0.781,0.164
8.038,-0.617,0.785,0.166
8.048,-0.615,0.785,0.168
8.058,-0.613,0.781,0.162
8.068,-0.609,0.785,0.162
8.078,-0.605,0.789,0.160
8.088,-0.609,0.781,0.158
8.098,-0.607,0.783,0.160
8.107,-0.613,0.783,0.164
8.117,-0.611,0.785,0.160
8.127,-0.615,0.785,0.162
8.137,-0.615,0.785,0.164
8.147,-0.619,0.787,0.162
8.157,-0.611,0.785,0.164
8.167,-0.611,0.791,0.164
8.177,-0.607,0.791,0.160
8.187,-0.604,0.789,0.164
8.197,-0.609,0.787,0.160
8.207,-0.602,0.785,0.158
8.217,-0.602,0.787,0.154
8.227,-0.605,0.785,0.160
8.237,-0.607,0.789,0.160
8.246,-0.604,0.791,0.158
8.256,-0.609,0.791,0.160
8.266,-0.602,0.791,0.162
8.276,-0.604,0.791,0.156
8.286,-0.600,0.793,0.154
8.296,-0.604,0.793,0.156
8.306,-0.604,0.793,0.156
8.316,-0.605,0.795,0.154
8.326,-0.604,0.795,0.158
8.336,-0.600,0.795,0.158
8.346,-0.609,0.797,0.156
8.356,-0.598,0.795,0.164
8.366,-0.605,0.789,0.154
8.376,-0.604,0.791,0.160
8.385,-0.605,0.793,0.154
8.395,-0.604,0.795,0.160
8.405,-0.602,0.791,0.162
8.415,-0.604,0.785,0.160
8.425,-0.607,0.781,0.162
8.435,-0.613,0.787,0.164
8.445,-0.607,0.779,0.164
8.455,-0.602,0.783,0.164
8.465,-0.602,0.785,0.166
8.475,-0.596,0.787,0.166
8.485,-0.596,0.791,0.162
8.495,-0.609,0.785,0.166
8.505,-0.615,0.781,0.160
8.515,-0.617,0.787,0.156
8.524,-0.611,0.787,0.164
8.534,-0.607,0.779,0.160
8.544,-0.613,0.787,0.158
8.554,-0.609,0.777,0.158
8.564,-0.619,0.783,0.156
8.574,-0.617,0.791,0.162
8.584,-0.617,0.787,0.166
8.594,-0.617,0.787,0.158
8.604,-0.613,0.787,0.156
8.614,-0.611,0.783,0.158
8.624,-0.609,0.779,0.158
8.634,-0.609,0.781,0.156
8.644,-0.607,0.785,0.162
8.654,-0.613,0.783,0.158
8.663,-0.609,0.789,0.160
8.673,-0.607,0.789,0.160
8.683,-0.605,0.787,0.158
8.693,-0.609,0.785,0.158
8.703,-0.607,0.787,0.162
8.713,-0.609,0.787,0.158
8.723,-0.611,0.793,0.160
8.733,-0.609,0.787,0.164
8.743,-0.607,0.789,0.162
8.753,-0.605,0.783,0.166
8.763,-0.605,0.787,0.156
8.773,-0.609,0.785,0.160
8.783,-0.611,0.785,0.160
8.792,-0.611,0.787,0.160
8.802,-0.609,0.791,0.156
8.812,-0.607,0.789,0.160
8.822,-0.609,0.791,0.158
8.832,-0.609,0.791,0.162
8.842,-0.607,0.789,0.162
8.852,-0.605,0.791,0.162
8.862,-0.607,0.785,0.162
8.872,-0.607,0.789,0.158
8.882,-0.607,0.789,0.166
8.892,-0.607,0.787,0.164
8.902,-0.604,0.789,0.164
8.912,-0.604,0.787,0.168
8.922,-0.605,0.787,0.164
8.931,-0.605,0.785,0.164
8.941,-0.607,0.785,0.164
8.951,-0.609,0.787,0.164
8.961,-0.611,0.783,0.168
8.971,-0.607,0.787,0.166
8.981,-0.609,0.783,0.162
8.991,-0.611,0.785,0.164
9.001,-0.609,0.787,0.166
9.011,-0.609,0.785,0.166
9.021,-0.611,0.789,0.164
9.031,-0.609,0.787,0.160
9.041,-0.607,0.789,0.162
9.051,-0.607,0.787,0.158
9.061,-0.604,0.789,0.160
9.070,-0.607,0.789,0.162
9.080,-0.605,0.789,0.160
9.090,-0.605,0.791,0.162
9.100,-0.607,0.791,0.158
9.110,-0.609,0.787,0.164
9.120,-0.607,0.789,0.164
9.130,-0.605,0.791,0.164
9.140,-0.604,0.791,0.164
9.150,-0.607,0.785,0.166
9.160,-0.607,0.783,0.164
9.170,-0.605,0.787,0.164
9.180,-0.607,0.785,0.164
9.190,-0.605,0.785,0.164
9.200,-0.607,0.779,0.164
9.209,-0.607,0.783,0.162
9.219,-0.611,0.785,0.164
9.229,-0.609,0.787,0.166
9.239,-0.609,0.787,0.166
9.249,-0.613,0.787,0.166
9.259,-0.611,0.785,0.162
9.269,-0.611,0.787,0.164
9.279,-0.613,0.785,0.164
9.289,-0.613,0.785,0.164
9.299,-0.611,0.781,0.166
9.309,-0.613,0.783,0.162
9.319,-0.613,0.785,0.164
9.329,-0.615,0.787,0.166
9.339,-0.611,0.787,0.164
9.348,-0.611,0.787,0.166
9.358,-0.611,0.785,0.172
9.368,-0.611,0.783,0.166
9.378,-0.609,0.783,0.166
9.388,-0.609,0.781,0.164
9.398,-0.609,0.781,0.166
9.408,-0.609,0.783,0.168
9.418,-0.609,0.785,0.170
9.428,-0.611,0.785,0.170
9.438,-0.609,0.787,0.168
9.448,-0.607,0.779,0.166
9.458,-0.609,0.779,0.164
9.468,-0.609,0.781,0.166
9.478,-0.611,0.785,0.168
9.487,-0.613,0.787,0.164
9.497,-0.611,0.787,0.164
9.507,-0.611,0.787,0.164
9.517,-0.611,0.785,0.164
9.527,-0.611,0.789,0.162
9.537,-0.613,0.785,0.162
9.547,-0.611,0.783,0.164
9.557,-0.611,0.783,0.164
9.567,-0.613,0.785,0.164
9.577,-0.613,0.783,0.166
9.587,-0.609,0.783,0.164
9.597,-0.611,0.783,0.166
9.607,-0.609,0.785,0.164
9.617,-0.609,0.783,0.164
9.626,-0.613,0.785,0.164
9.636,-0.615,0.783,0.166
9.646,-0.615,0.783,0.164
9.656,-0.615,0.783,0.164
9.666,-0.615,0.779,0.164
9.676,-0.615,0.781,0.166
9.686,-0.617,0.783,0.162
9.696,-0.615,0.783,0.160
9.706,-0.613,0.783,0.160
9.716,-0.615,0.783,0.162
9.726,-0.611,0.783,0.158
9.736,-0.611,0.785,0.162
9.746,-0.613,0.785,0.160
9.756,-0.609,0.783,0.164
9.765,-0.611,0.785,0.160
9.775,-0.609,0.785,0.166
9.785,-0.611,0.787,0.164
9.795,-0.609,0.789,0.166
9.805,-0.609,0.787,0.158
9.815,-0.611,0.783,0.160
9.825,-0.613,0.787,0.158
9.835,-0.609,0.783,0.162
9.845,-0.613,0.781,0.166
9.855,-0.609,0.781,0.164
9.865,-0.609,0.781,0.162
9.875,-0.611,0.783,0.166
9.885,-0.613,0.781,0.164
9.895,-0.611,0.781,0.164
9.904,-0.611,0.779,0.164
9.914,-0.617,0.781,0.164
9.924,-0.615,0.783,0.166
9.934,-0.619,0.785,0.166
9.944,-0.615,0.785,0.162
9.954,-0.617,0.785,0.162
9.964,-0.615,0.783,0.160
9.974,-0.617,0.781,0.164
9.984,-0.615,0.779,0.162
9.994,-0.615,0.781,0.162
10.004,-0.617,0.781,0.162
10.014,-0.615,0.779,0.162
10.024,-0.613,0.783,0.164
10.034,-0.613,0.783,0.164
10.043,-0.613,0.783,0.168
10.053,-0.607,0.785,0.164
10.063,-0.607,0.785,0.164
10.073,-0.605,0.783,0.166
10.083,-0.605,0.785,0.166
10.093,-0.607,0.785,0.164
10.103,-0.609,0.779,0.168
10.113,-0.613,0.781,0.168
10.123,-0.621,0.785,0.164
10.133,-0.619,0.781,0.162
10.143,-0.621,0.779,0.160
10.153,-0.621,0.777,0.160
10.163,-0.625,0.777,0.158
10.172,-0.625,0.779,0.160
10.182,-0.623,0.783,0.162
10.192,-0.619,0.787,0.158
10.202,-0.615,0.789,0.156
10.212,-0.609,0.789,0.158
10.222,-0.604,0.789,0.160
10.232,-0.602,0.789,0.160
10.242,-0.602,0.787,0.160
10.252,-0.600,0.787,0.156
10.262,-0.600,0.787,0.160
10.272,-0.598,0.787,0.160
10.282,-0.602,0.785,0.160
10.292,-0.602,0.785,0.162
10.302,-0.605,0.785,0.164
10.311,-0.602,0.783,0.162
10.321,-0.607,0.779,0.164
10.331,-0.607,0.781,0.164
10.341,-0.609,0.781,0.162
10.351,-0.613,0.783,0.162
10.361,-0.617,0.779,0.162
10.371,-0.619,0.781,0.160
10.381,-0.619,0.779,0.156
10.391,-0.621,0.783,0.156
10.401,-0.621,0.779,0.156
10.411,-0.617,0.785,0.158
10.421,-0.621,0.787,0.156
10.431,-0.617,0.787,0.154
10.441,-0.617,0.787,0.154
10.450,-0.615,0.791,0.156
10.460,-0.615,0.787,0.156
10.470,-0.611,0.789,0.152
10.480,-0.613,0.787,0.156
10.490,-0.611,0.789,0.152
10.500,-0.611,0.791,0.150
10.510,-0.615,0.791,0.150
10.520,-0.611,0.789,0.156
10.530,-0.611,0.791,0.154
10.540,-0.613,0.787,0.152
10.550,-0.613,0.787,0.154
10.560,-0.611,0.789,0.156
10.570,-0.613,0.789,0.154
10.580,-0.609,0.789,0.156
10.589,-0.611,0.789,0.160
10.599,-0.609,0.785,0.160
10.609,-0.611,0.789,0.160
10.619,-0.609,0.787,0.160
10.629,-0.605,0.787,0.164
10.639,-0.607,0.783,0.162
10.649,-0.609,0.785,0.168
10.659,-0.607,0.785,0.168
10.669,-0.609,0.785,0.168
10.679,-0.611,0.775,0.166
10.689,-0.611,0.779,0.168
10.699,-0.615,0.783,0.168
10.709,-0.621,0.785,0.170
10.719,-0.619,0.781,0.170
10.728,-0.615,0.781,0.166
10.738,-0.615,0.779,0.166
10.748,-0.617,0.775,0.168
10.758,-0.613,0.779,0.164
10.768,-0.617,0.775,0.164
10.778,-0.615,0.777,0.166
10.788,-0.615,0.775,0.166
10.798,-0.615,0.777,0.168
10.808,-0.613,0.781,0.168
10.818,-0.611,0.779,0.166
10.828,-0.613,0.781,0.166
10.838,-0.611,0.781,0.166
10.848,-0.611,0.779,0.168
10.858,-0.619,0.781,0.168
10.867,-0.617,0.779,0.164
10.877,-0.615,0.779,0.166
10.887,-0.613,0.783,0.168
10.897,-0.619,0.785,0.166
10.907,-0.617,0.787,0.164
10.917,-0.615,0.783,0.168
10.927,-0.613,0.783,0.164
10.937,-0.615,0.783,0.162
10.947,-0.613,0.783,0.164
10.957,-0.615,0.783,0.164
10.967,-0.613,0.785,0.160
10.977,-0.611,0.787,0.162
10.987,-0.611,0.787,0.164
10.997,-0.609,0.791,0.160
11.006,-0.607,0.787,0.162
11.016,-0.611,0.787,0.160
11.026,-0.609,0.785,0.160
11.036,-0.609,0.787,0.164
11.046,-0.609,0.787,0.162
11.056,-0.609,0.785,0.162
11.066,-0.611,0.785,0.164
11.076,-0.609,0.785,0.162
11.086,-0.611,0.783,0.164
11.096,-0.607,0.787,0.164
11.106,-0.611,0.785,0.164
11.116,-0.609,0.785,0.168
11.126,-0.609,0.781,0.164
11.136,-0.615,0.783,0.160
11.145,-0.613,0.785,0.166
11.155,-0.611,0.783,0.162
11.165,-0.619,0.783,0.162
11.175,-0.615,0.785,0.162
11.185,-0.613,0.785,0.164
11.195,-0.613,0.785,0.162
11.205,-0.609,0.783,0.162
11.215,-0.613,0.783,0.160
11.225,-0.611,0.785,0.162
11.235,-0.609,0.785,0.160
11.245,-0.613,0.781,0.160
11.255,-0.611,0.781,0.158
11.265,-0.611,0.785,0.158
11.275,-0.609,0.783,0.160
11.284,-0.611,0.785,0.158
11.294,-0.611,0.785,0.156
11.304,-0.611,0.785,0.160
11.314,-0.613,0.783,0.156
11.324,-0.613,0.783,0.162
11.334,-0.611,0.779,0.160
11.344,-0.615,0.785,0.162
11.354,-0.617,0.785,0.160
11.364,-0.615,0.785,0.164
11.374,-0.615,0.787,0.160
11.384,-0.613,0.781,0.162
11.394,-0.615,0.785,0.164
11.404,-0.611,0.785,0.164
11.414,-0.609,0.783,0.162
11.423,-0.609,0.783,0.166
11.433,-0.609,0.785,0.166
11.443,-0.611,0.785,0.162
11.453,-0.609,0.781,0.164
11.463,-0.607,0.779,0.166
11.473,-0.609,0.783,0.162
11.483,-0.611,0.787,0.164
11.493,-0.617,0.785,0.166
11.503,-0.615,0.789,0.162
11.513,-0.617,0.785,0.166
11.523,-0.613,0.783,0.160
11.533,-0.615,0.783,0.158
11.543,-0.617,0.781,0.162
11.552,-0.615,0.781,0.162
11.562,-0.613,0.779,0.162
11.572,-0.611,0.783,0.162
11.582,-0.615,0.783,0.160
11.592,-0.613,0.783,0.160
11.602,-0.613,0.787,0.166
11.612,-0.609,0.787,0.162
11.622,-0.609,0.787,0.160
11.632,-0.609,0.787,0.162
11.642,-0.609,0.787,0.162
11.652,-0.611,0.785,0.164
11.662,-0.609,0.785,0.162
11.672,-0.607,0.785,0.164
11.682,-0.607,0.787,0.164
11.691,-0.611,0.791,0.166
11.701,-0.607,0.787,0.164
11.711,-0.607,0.785,0.162
11.721,-0.607,0.785,0.158
11.731,-0.609,0.783,0.164
11.741,-0.611,0.781,0.160
11.751,-0.613,0.789,0.162
11.761,-0.613,0.789,0.162
11.771,-0.611,0.787,0.158
11.781,-0.611,0.787,0.162
11.791,-0.611,0.787,0.158
11.801,-0.611,0.785,0.158
11.811,-0.607,0.787,0.158
11.821,-0.607,0.785,0.158
11.830,-0.609,0.787,0.160
11.840,-0.607,0.789,0.160
11.850,-0.609,0.789,0.160
11.860,-0.611,0.789,0.158
11.870,-0.609,0.785,0.162
11.880,-0.607,0.785,0.160
11.890,-0.607,0.785,0.158
11.900,-0.611,0.787,0.162
11.910,-0.611,0.783,0.160
11.920,-0.611,0.785,0.162
11.930,-0.611,0.785,0.158
11.940,-0.611,0.787,0.156
11.950,-0.611,0.787,0.160
11.960,-0.611,0.785,0.156
11.969,-0.609,0.787,0.156
11.979,-0.613,0.787,0.156
11.989,-0.611,0.783,0.158
11.999,-0.613,0.789,0.158
12.009,-0.613,0.785,0.158
12.019,-0.613,0.785,0.158
12.029,-0.611,0.787,0.160
12.039,-0.611,0.787,0.158
12.049,-0.609,0.783,0.154
12.059,-0.611,0.787,0.158
12.069,-0.611,0.785,0.156
12.079,-0.611,0.783,0.160
12.089,-0.611,0.785,0.160
12.099,-0.609,0.787,0.158
12.108,-0.611,0.787,0.158
12.118,-0.613,0.785,0.158
12.128,-0.613,0.783,0.158
12.138,-0.615,0.783,0.158
12.148,-0.617,0.783,0.160
12.158,-0.615,0.785,0.160
12.168,-0.615,0.785,0.162
12.178,-0.611,0.779,0.162
12.188,-0.615,0.783,0.158
12.198,-0.615,0.785,0.164
12.208,-0.613,0.783,0.162
12.218,-0.611,0.783,0.162
12.228,-0.609,0.785,0.162
12.238,-0.609,0.787,0.160
12.247,-0.609,0.787,0.164
12.257,-0.613,0.781,0.162
12.267,-0.611,0.781,0.158
12.277,-0.613,0.785,0.162
12.287,-0.611,0.787,0.158
12.297,-0.615,0.789,0.162
12.307,-0.615,0.787,0.164
12.317,-0.613,0.787,0.160
12.327,-0.615,0.783,0.156
12.337,-0.617,0.783,0.156
12.347,-0.617,0.781,0.158
12.357,-0.617,0.781,0.156
12.367,-0.615,0.781,0.160
12.377,-0.621,0.779,0.160
12.386,-0.613,0.781,0.160
12.396,-0.613,0.781,0.160
12.406,-0.613,0.783,0.164
12.416,-0.611,0.783,0.162
12.426,-0.613,0.785,0.158
12.436,-0.615,0.781,0.160
12.446,-0.611,0.781,0.164
12.456,-0.613,0.783,0.162
12.466,-0.615,0.781,0.166
12.476,-0.613,0.783,0.164
12.486,-0.611,0.787,0.164
12.496,-0.615,0.787,0.166
12.506,-0.613,0.783,0.164
12.516,-0.611,0.783,0.164
12.525,-0.613,0.781,0.164
12.535,-0.613,0.781,0.164
12.545,-0.615,0.781,0.162
12.555,-0.617,0.785,0.164
12.565,-0.615,0.783,0.164
12.575,-0.615,0.785,0.160
12.585,-0.611,0.783,0.162
12.595,-0.615,0.787,0.158
12.605,-0.611,0.785,0.162
12.615,-0.615,0.783,0.158
12.625,-0.613,0.783,0.160
12.635,-0.611,0.783,0.158
12.645,-0.611,0.783,0.158
12.655,-0.613,0.779,0.164
12.664,-0.613,0.783,0.162
12.674,-0.613,0.785,0.162
12.684,-0.613,0.785,0.158
12.694,-0.613,0.783,0.162
12.704,-0.613,0.781,0.160
12.714,-0.617,0.783,0.158
12.724,-0.617,0.781,0.164
12.734,-0.619,0.781,0.162
12.744,-0.621,0.781,0.158
12.754,-0.619,0.783,0.166
12.764,-0.619,0.779,0.164
12.774,-0.621,0.781,0.160
12.784,-0.621,0.783,0.160
12.794,-0.617,0.785,0.162
12.803,-0.617,0.783,0.160
12.813,-0.617,0.783,0.158
12.823,-0.615,0.787,0.158
12.833,-0.615,0.781,0.160
12.843,-0.613,0.783,0.158
12.853,-0.613,0.783,0.162
12.863,-0.615,0.783,0.158
12.873,-0.615,0.781,0.162
12.883,-0.615,0.779,0.158
12.893,-0.617,0.779,0.162
12.903,-0.617,0.781,0.164
12.913,-0.617,0.781,0.160
12.923,-0.615,0.783,0.160
12.933,-0.617,0.781,0.158
12.942,-0.615,0.777,0.160
12.952,-0.615,0.781,0.160
12.962,-0.613,0.783,0.162
12.972,-0.619,0.783,0.160
12.982,-0.617,0.783,0.162
12.992,-0.617,0.783,0.162
13.002,-0.617,0.781,0.164
13.012,-0.617,0.779,0.162
13.022,-0.621,0.783,0.164
13.032,-0.619,0.779,0.164
13.042,-0.615,0.779,0.162
13.052,-0.613,0.781,0.160
13.062,-0.617,0.783,0.160
13.071,-0.615,0.779,0.160
13.081,-0.613,0.775,0.162
13.091,-0.613,0.779,0.160
13.101,-0.619,0.783,0.164
13.111,-0.615,0.785,0.164
13.121,-0.619,0.787,0.164
13.131,-0.617,0.785,0.162
13.141,-0.615,0.787,0.160
13.151,-0.615,0.783,0.158
13.161,-0.613,0.779,0.160
13.171,-0.613,0.779,0.162
13.181,-0.613,0.781,0.160
13.191,-0.615,0.781,0.158
13.201,-0.613,0.783,0.160
13.210,-0.613,0.781,0.162
13.220,-0.617,0.781,0.160
13.230,-0.617,0.787,0.158
13.240,-0.617,0.783,0.162
13.250,-0.613,0.783,0.162
13.260,-0.615,0.783,0.160
13.270,-0.619,0.781,0.162
13.280,-0.615,0.783,0.162
13.290,-0.617,0.779,0.162
13.300,-0.617,0.781,0.164
13.310,-0.619,0.783,0.164
13.320,-0.617,0.785,0.166
13.330,-0.617,0.785,0.160
13.340,-0.615,0.781,0.160
13.349,-0.615,0.783,0.160
13.359,-0.619,0.781,0.160
13.369,-0.617,0.783,0.164
13.379,-0.617,0.783,0.158
13.389,-0.615,0.789,0.160
13.399,-0.615,0.789,0.158
13.409,-0.613,0.789,0.158
13.419,-0.613,0.789,0.158
13.429,-0.615,0.789,0.156
13.439,-0.611,0.787,0.158
13.449,-0.607,0.787,0.156
13.459,-0.609,0.785,0.160
13.469,-0.609,0.785,0.158
13.479,-0.607,0.785,0.158
13.488,-0.609,0.783,0.160
13.498,-0.607,0.787,0.164
13.508,-0.609,0.783,0.162
13.518,-0.607,0.785,0.160
13.528,-0.609,0.781,0.162
13.538,-0.611,0.783,0.158
13.548,-0.611,0.783,0.160
13.558,-0.611,0.783,0.160
13.568,-0.615,0.785,0.158
13.578,-0.615,0.785,0.164
13.588,-0.617,0.785,0.158
13.598,-0.615,0.785,0.160
13.608,-0.613,0.785,0.156
13.618,-0.615,0.785,0.156
13.627,-0.613,0.787,0.160
13.637,-0.613,0.787,0.164
13.647,-0.611,0.783,0.158
13.657,-0.613,0.781,0.156
13.667,-0.609,0.783,0.156
13.677,-0.611,0.783,0.160
13.687,-0.609,0.781,0.158
13.697,-0.611,0.785,0.158
13.707,-0.611,0.783,0.162
13.717,-0.613,0.785,0.162
13.727,-0.613,0.785,0.164
13.737,-0.613,0.783,0.162
13.747,-0.609,0.781,0.160
13.757,-0.613,0.781,0.160
13.766,-0.613,0.783,0.164
13.776,-0.613,0.785,0.162
13.786,-0.615,0.785,0.162
13.796,-0.615,0.785,0.160
13.806,-0.611,0.781,0.162
13.816,-0.615,0.781,0.166
13.826,-0.613,0.783,0.168
13.836,-0.613,0.781,0.162
13.846,-0.613,0.777,0.164
13.856,-0.611,0.777,0.162
13.866,-0.617,0.781,0.162
13.876,-0.621,0.779,0.160
13.886,-0.621,0.779,0.162
13.896,-0.623,0.779,0.162
13.905,-0.625,0.785,0.162
13.915,-0.627,0.785,0.162
13.925,-0.629,0.783,0.160
13.935,-0.625,0.783,0.164
13.945,-0.619,0.779,0.164
13.955,-0.623,0.777,0.162
13.965,-0.617,0.775,0.158
13.975,-0.617,0.775,0.160
13.985,-0.619,0.775,0.164
13.995,-0.615,0.781,0.160
14.005,-0.619,0.779,0.162
14.015,-0.617,0.781,0.160
14.025,-0.615,0.781,0.160
14.035,-0.615,0.785,0.160
14.044,-0.613,0.787,0.164
14.054,-0.611,0.783,0.160
14.064,-0.611,0.783,0.160
14.074,-0.611,0.787,0.160
14.084,-0.611,0.781,0.158
14.094,-0.613,0.787,0.160
14.104,-0.611,0.785,0.158
14.114,-0.615,0.789,0.160
14.124,-0.611,0.791,0.158
14.134,-0.607,0.779,0.160
14.144,-0.611,0.783,0.160
14.154,-0.613,0.785,0.156
14.164,-0.611,0.785,0.158
14.174,-0.617,0.785,0.160
14.183,-0.617,0.787,0.158
14.193,-0.615,0.787,0.156
14.203,-0.613,0.787,0.156
14.213,-0.615,0.789,0.158
14.223,-0.613,0.785,0.160
14.233,-0.613,0.785,0.156
14.243,-0.613,0.787,0.158
14.253,-0.609,0.785,0.158
14.263,-0.611,0.783,0.156
14.273,-0.611,0.785,0.160
14.283,-0.611,0.785,0.160
14.293,-0.611,0.787,0.158
14.303,-0.609,0.785,0.160
14.313,-0.609,0.785,0.162
14.322,-0.611,0.787,0.160
14.332,-0.611,0.787,0.158
14.342,-0.613,0.785,0.160
14.352,-0.613,0.787,0.160
14.362,-0.615,0.781,0.160
14.372,-0.613,0.785,0.162
14.382,-0.609,0.781,0.164
14.392,-0.609,0.783,0.160
14.402,-0.609,0.785,0.162
14.412,-0.609,0.787,0.164
14.422,-0.609,0.785,0.160
14.432,-0.609,0.785,0.164
14.442,-0.611,0.785,0.162
14.451,-0.611,0.785,0.162
14.461,-0.611,0.785,0.162
14.471,-0.609,0.783,0.162
14.481,-0.611,0.779,0.162
14.491,-0.615,0.783,0.162
14.501,-0.613,0.781,0.160
14.511,-0.617,0.783,0.164
14.521,-0.617,0.781,0.168
14.531,-0.621,0.779,0.166
14.541,-0.621,0.781,0.160
14.551,-0.619,0.779,0.164
14.561,-0.621,0.779,0.164
14.571,-0.619,0.781,0.168
14.581,-0.615,0.779,0.164
14.590,-0.617,0.779,0.164
14.600,-0.615,0.781,0.164
14.610,-0.619,0.783,0.168
14.620,-0.617,0.781,0.166
14.630,-0.617,0.777,0.164
14.640,-0.615,0.777,0.166
14.650,-0.619,0.781,0.166
14.660,-0.621,0.783,0.162
14.670,-0.621,0.787,0.166
14.680,-0.617,0.783,0.164
14.690,-0.617,0.783,0.164
14.700,-0.615,0.779,0.160
14.710,-0.615,0.779,0.160
14.720,-0.617,0.779,0.160
14.729,-0.619,0.779,0.162
14.739,-0.617,0.781,0.162
14.749,-0.615,0.783,0.164
14.759,-0.615,0.783,0.162
14.769,-0.613,0.785,0.164
14.779,-0.613,0.783,0.162
14.789,-0.609,0.785,0.166
14.799,-0.611,0.787,0.162
14.809,-0.611,0.787,0.164
14.819,-0.607,0.783,0.168
14.829,-0.609,0.783,0.164
14.839,-0.611,0.783,0.162
14.849,-0.611,0.785,0.162
14.859,-0.611,0.787,0.164
14.868,-0.609,0.787,0.164
14.878,-0.607,0.783,0.158
14.888,-0.611,0.783,0.158
14.898,-0.613,0.785,0.158
14.908,-0.613,0.783,0.160
14.918,-0.613,0.785,0.160
14.928,-0.611,0.785,0.158
14.938,-0.611,0.787,0.162
14.948,-0.609,0.785,0.156
14.958,-0.609,0.787,0.156
14.968,-0.611,0.787,0.160
14.978,-0.611,0.785,0.156
14.988,-0.611,0.783,0.156
14.998,-0.611,0.781,0.156
15.007,-0.607,0.785,0.156
15.017,-0.609,0.785,0.158
15.027,-0.611,0.787,0.156
15.037,-0.609,0.787,0.158
15.047,-0.609,0.787,0.158
15.057,-0.607,0.789,0.156
15.067,-0.609,0.787,0.156
15.077,-0.609,0.787,0.156
15.087,-0.607,0.789,0.160
15.097,-0.609,0.787,0.160
15.107,-0.611,0.787,0.154
15.117,-0.605,0.789,0.154
15.127,-0.609,0.785,0.158
15.137,-0.609,0.787,0.152
15.146,-0.611,0.791,0.158
15.156,-0.611,0.787,0.154
15.166,-0.609,0.791,0.156
15.176,-0.611,0.787,0.154
15.186,-0.609,0.789,0.156
15.196,-0.609,0.789,0.154
15.206,-0.607,0.787,0.156
15.216,-0.609,0.787,0.152
15.226,-0.611,0.785,0.154
15.236,-0.607,0.787,0.156
15.246,-0.613,0.785,0.156
15.256,-0.613,0.783,0.156
15.266,-0.617,0.781,0.154
15.276,-0.613,0.785,0.156
15.285,-0.617,0.783,0.158
15.295,-0.615,0.779,0.158
15.305,-0.623,0.781,0.160
15.315,-0.621,0.779,0.160
15.325,-0.623,0.775,0.162
15.335,-0.619,0.779,0.160
15.345,-0.621,0.777,0.164
15.355,-0.621,0.777,0.164
15.365,-0.625,0.777,0.162
15.375,-0.621,0.773,0.166
15.385,-0.633,0.773,0.170
15.395,-0.629,0.775,0.160
15.405,-0.623,0.781,0.162
15.415,-0.623,0.783,0.162
15.424,-0.627,0.781,0.156
15.434,-0.621,0.781,0.160
15.444,-0.621,0.777,0.156
15.454,-0.621,0.777,0.156
15.464,-0.621,0.777,0.156
15.474,-0.621,0.775,0.156
15.484,-0.623,0.777,0.160
15.494,-0.619,0.779,0.158
15.504,-0.619,0.781,0.160
15.514,-0.615,0.781,0.156
15.524,-0.613,0.783,0.160
15.534,-0.615,0.781,0.160
15.544,-0.611,0.783,0.160
15.554,-0.611,0.779,0.160
15.563,-0.609,0.783,0.154
15.573,-0.613,0.783,0.160
15.583,-0.609,0.781,0.156
15.593,-0.609,0.785,0.164
15.603,-0.609,0.787,0.158
15.613,-0.609,0.787,0.158
15.623,-0.609,0.783,0.156
15.633,-0.617,0.779,0.156
15.643,-0.615,0.781,0.160
15.653,-0.617,0.783,0.160
15.663,-0.619,0.781,0.160
15.673,-0.621,0.781,0.158
15.683,-0.621,0.785,0.162
15.693,-0.621,0.785,0.156
15.702,-0.619,0.783,0.156
15.712,-0.621,0.783,0.154
15.722,-0.623,0.781,0.156
15.732,-0.617,0.781,0.154
15.742,-0.617,0.781,0.160
15.752,-0.617,0.779,0.160
15.762,-0.619,0.781,0.156
15.772,-0.621,0.781,0.162
15.782,-0.619,0.783,0.158
15.792,-0.617,0.781,0.158
15.802,-0.621,0.783,0.158
15.812,-0.619,0.781,0.160
15.822,-0.619,0.779,0.158
15.831,-0.617,0.779,0.158
15.841,-0.615,0.779,0.154
15.851,-0.617,0.783,0.154
15.861,-0.617,0.783,0.152
15.871,-0.615,0.783,0.156
15.881,-0.617,0.783,0.150
15.891,-0.617,0.783,0.156
15.901,-0.615,0.787,0.148
15.911,-0.613,0.783,0.154
15.921,-0.615,0.785,0.154
15.931,-0.611,0.783,0.152
15.941,-0.609,0.787,0.154
15.951,-0.615,0.789,0.156
15.961,-0.613,0.789,0.156
15.970,-0.615,0.783,0.156
15.980,-0.611,0.783,0.154
15.990,-0.613,0.781,0.154
16.000,-0.615,0.787,0.158
16.010,-0.613,0.781,0.156
16.020,-0.617,0.781,0.156
16.030,-0.621,0.781,0.158
16.040,-0.617,0.781,0.160
16.050,-0.617,0.775,0.160
16.060,-0.625,0.777,0.158
16.070,-0.619,0.779,0.160
16.080,-0.619,0.775,0.158
16.090,-0.621,0.775,0.160
16.100,-0.619,0.777,0.162
16.109,-0.619,0.777,0.162
16.119,-0.623,0.777,0.162
16.129,-0.625,0.777,0.160
16.139,-0.623,0.777,0.162
16.149,-0.625,0.781,0.160
16.159,-0.623,0.783,0.162
16.169,-0.627,0.785,0.162
16.179,-0.623,0.779,0.162
16.189,-0.623,0.777,0.162
16.199,-0.625,0.773,0.158
16.209,-0.623,0.777,0.158
16.219,-0.623,0.775,0.154
16.229,-0.619,0.777,0.160
16.239,-0.619,0.777,0.160
16.248,-0.621,0.777,0.160
16.258,-0.617,0.783,0.158
16.268,-0.617,0.783,0.162
16.278,-0.617,0.783,0.162
16.288,-0.611,0.781,0.156
16.298,-0.613,0.783,0.162
16.308,-0.611,0.781,0.160
16.318,-0.611,0.779,0.160
16.328,-0.615,0.785,0.156
16.338,-0.613,0.783,0.160
16.348,-0.613,0.785,0.158
16.358,-0.615,0.787,0.160
16.368,-0.617,0.787,0.158
16.378,-0.613,0.781,0.158
16.387,-0.613,0.781,0.158
16.397,-0.615,0.781,0.158
16.407,-0.619,0.781,0.156
16.417,-0.621,0.785,0.158
16.427,-0.617,0.787,0.158
16.437,-0.615,0.789,0.156
16.447,-0.615,0.787,0.158
16.457,-0.615,0.785,0.156
16.467,-0.619,0.785,0.152
16.477,-0.615,0.785,0.152
16.487,-0.615,0.783,0.156
16.497,-0.613,0.781,0.156
16.507,-0.615,0.785,0.154
16.517,-0.611,0.781,0.156
16.526,-0.611,0.783,0.158
16.536,-0.611,0.787,0.156
16.546,-0.615,0.781,0.156
16.556,-0.615,0.785,0.162
16.566,-0.613,0.785,0.158
16.576,-0.617,0.781,0.156
16.586,-0.615,0.783,0.154
16.596,-0.615,0.783,0.156
16.606,-0.617,0.785,0.154
16.616,-0.617,0.785,0.154
16.626,-0.613,0.785,0.152
16.636,-0.615,0.783,0.152
16.646,-0.617,0.783,0.154
16.656,-0.615,0.789,0.152
16.665,-0.613,0.785,0.150
16.675,-0.611,0.787,0.150
16.685,-0.609,0.785,0.150
16.695,-0.613,0.787,0.154
16.705,-0.613,0.783,0.152
16.715,-0.613,0.785,0.152
16.725,-0.615,0.785,0.156
16.735,-0.615,0.787,0.152
16.745,-0.617,0.785,0.152
16.755,-0.617,0.783,0.154
16.765,-0.615,0.781,0.154
16.775,-0.619,0.783,0.152
16.785,-0.617,0.781,0.154
16.795,-0.621,0.783,0.156
16.804,-0.621,0.781,0.154
16.814,-0.619,0.779,0.156
16.824,-0.619,0.779,0.158
16.834,-0.619,0.781,0.156
16.844,-0.621,0.777,0.158
16.854,-0.619,0.777,0.156
16.864,-0.621,0.779,0.156
16.874,-0.621,0.781,0.160
16.884,-0.621,0.781,0.158
16.894,-0.617,0.781,0.158
16.904,-0.619,0.775,0.156
16.914,-0.625,0.779,0.158
16.924,-0.625,0.783,0.158
16.934,-0.623,0.781,0.160
16.943,-0.623,0.779,0.158
16.953,-0.621,0.779,0.160
16.963,-0.619,0.777,0.160
16.973,-0.619,0.775,0.156
16.983,-0.621,0.775,0.156
16.993,-0.621,0.775,0.154
17.003,-0.619,0.777,0.156
17.013,-0.621,0.777,0.156
17.023,-0.619,0.777,0.154
17.033,-0.617,0.785,0.156
17.043,-0.617,0.787,0.158
17.053,-0.615,0.785,0.156
17.063,-0.613,0.781,0.154
17.073,-0.613,0.783,0.158
17.082,-0.613,0.783,0.156
17.092,-0.613,0.783,0.156
17.102,-0.615,0.781,0.158
17.112,-0.617,0.785,0.158
17.122,-0.615,0.789,0.156
17.132,-0.611,0.787,0.160
17.142,-0.613,0.781,0.154
17.152,-0.613,0.779,0.154
17.162,-0.615,0.779,0.156
17.172,-0.617,0.783,0.154
17.182,-0.619,0.783,0.156
17.192,-0.617,0.785,0.152
17.202,-0.617,0.787,0.156
17.211,-0.617,0.785,0.154
17.221,-0.617,0.785,0.156
17.231,-0.615,0.787,0.156
17.241,-0.615,0.783,0.156
17.251,-0.613,0.783,0.154
17.261,-0.613,0.783,0.154
17.271,-0.615,0.785,0.156
17.281,-0.611,0.783,0.156
17.291,-0.613,0.781,0.158
17.301,-0.613,0.783,0.156
17.311,-0.615,0.783,0.154
17.321,-0.617,0.781,0.156
17.331,-0.623,0.781,0.156
17.341,-0.623,0.779,0.156
17.350,-0.625,0.779,0.158
17.360,-0.629,0.779,0.160
17.370,-0.625,0.777,0.150
17.380,-0.617,0.781,0.154
17.390,-0.619,0.783,0.152
17.400,-0.617,0.781,0.156
17.410,-0.617,0.781,0.152
17.420,-0.615,0.785,0.152
17.430,-0.615,0.785,0.156
17.440,-0.623,0.785,0.146
17.450,-0.609,0.781,0.156
17.460,-0.613,0.787,0.154
17.470,-0.617,0.783,0.156
17.480,-0.613,0.783,0.154
17.489,-0.611,0.783,0.152
17.499,-0.617,0.781,0.160
17.509,-0.617,0.785,0.156
17.519,-0.617,0.787,0.156
17.529,-0.615,0.785,0.160
17.539,-0.619,0.785,0.160
17.549,-0.619,0.783,0.160
17.559,-0.619,0.779,0.158
17.569,-0.619,0.777,0.160
17.579,-0.615,0.781,0.162
17.589,-0.613,0.775,0.158
17.599,-0.615,0.775,0.156
17.609,-0.615,0.777,0.160
17.619,-0.617,0.779,0.162
17.628,-0.619,0.781,0.158
17.638,-0.621,0.781,0.160
17.648,-0.625,0.777,0.158
17.658,-0.621,0.783,0.162
17.668,-0.629,0.783,0.160
17.678,-0.629,0.779,0.162
17.688,-0.627,0.777,0.160
17.698,-0.625,0.777,0.158
17.708,-0.627,0.777,0.158
17.718,-0.625,0.771,0.158
17.728,-0.625,0.773,0.164
17.738,-0.621,0.775,0.160
17.748,-0.623,0.777,0.158
17.758,-0.625,0.773,0.160
17.767,-0.627,0.775,0.162
17.777,-0.619,0.775,0.160
17.787,-0.621,0.779,0.166
17.797,-0.619,0.779,0.164
17.807,-0.619,0.779,0.160
17.817,-0.619,0.775,0.162
17.827,-0.619,0.777,0.162
17.837,-0.621,0.777,0.162
17.847,-0.617,0.783,0.166
17.857,-0.621,0.783,0.162
17.867,-0.619,0.789,0.162
17.877,-0.615,0.787,0.162
17.887,-0.611,0.779,0.160
17.897,-0.611,0.781,0.158
17.906,-0.611,0.781,0.158
17.916,-0.609,0.785,0.160
17.926,-0.613,0.783,0.158
17.936,-0.613,0.787,0.162
17.946,-0.613,0.789,0.156
17.956,-0.613,0.789,0.160
17.966,-0.613,0.787,0.158
17.976,-0.611,0.785,0.154
17.986,-0.611,0.785,0.156
17.996,-0.613,0.781,0.156
18.006,-0.615,0.783,0.158
18.016,-0.613,0.783,0.160
18.026,-0.611,0.783,0.160
18.036,-0.611,0.783,0.156
18.045,-0.613,0.785,0.158
18.055,-0.615,0.785,0.156
18.065,-0.613,0.783,0.158
18.075,-0.615,0.785,0.160
18.085,-0.613,0.785,0.154
18.095,-0.615,0.781,0.152
18.105,-0.613,0.781,0.152
18.115,-0.615,0.781,0.156
18.125,-0.613,0.785,0.154
18.135,-0.613,0.785,0.158
18.145,-0.611,0.787,0.152
18.155,-0.615,0.789,0.150
18.165,-0.613,0.785,0.150
18.175,-0.615,0.789,0.154
18.184,-0.613,0.787,0.154
18.194,-0.613,0.787,0.152
18.204,-0.613,0.783,0.152
18.214,-0.613,0.787,0.154
18.224,-0.609,0.785,0.152
18.234,-0.613,0.781,0.152
18.244,-0.615,0.785,0.154
18.254,-0.611,0.787,0.154
18.264,-0.613,0.785,0.154
18.274,-0.617,0.783,0.156
18.284,-0.619,0.785,0.152
18.294,-0.617,0.781,0.156
18.304,-0.617,0.781,0.158
18.314,-0.619,0.783,0.154
18.323,-0.617,0.781,0.160
18.333,-0.615,0.779,0.154
18.343,-0.615,0.783,0.160
18.353,-0.613,0.783,0.158
18.363,-0.613,0.785,0.158
18.373,-0.613,0.785,0.156
18.383,-0.613,0.777,0.158
18.393,-0.615,0.779,0.154
18.403,-0.615,0.785,0.156
18.413,-0.621,0.787,0.158
18.423,-0.623,0.787,0.160
18.433,-0.621,0.789,0.154
18.443,-0.621,0.781,0.158
18.453,-0.619,0.781,0.152
18.462,-0.617,0.781,0.154
18.472,-0.619,0.779,0.150
18.482,-0.621,0.783,0.152
18.492,-0.621,0.783,0.154
18.502,-0.619,0.781,0.158
18.512,-0.621,0.781,0.158
18.522,-0.617,0.781,0.160
18.532,-0.617,0.783,0.158
18.542,-0.617,0.783,0.162
18.552,-0.617,0.779,0.158
18.562,-0.617,0.779,0.162
18.572,-0.617,0.779,0.158
18.582,-0.619,0.777,0.160
18.591,-0.615,0.779,0.160
18.601,-0.617,0.779,0.162
18.611,-0.617,0.785,0.160
18.621,-0.615,0.785,0.158
18.631,-0.611,0.781,0.162
18.641,-0.615,0.775,0.158
18.651,-0.615,0.779,0.162
18.661,-0.619,0.781,0.160
18.671,-0.617,0.781,0.158
18.681,-0.617,0.787,0.158
18.691,-0.615,0.783,0.160
18.701,-0.615,0.785,0.158
18.711,-0.615,0.787,0.160
18.721,-0.615,0.785,0.160
18.730,-0.615,0.787,0.160
18.740,-0.615,0.783,0.160
18.750,-0.613,0.783,0.158
18.760,-0.611,0.781,0.160
18.770,-0.615,0.781,0.158
18.780,-0.613,0.783,0.160
18.790,-0.615,0.779,0.160
18.800,-0.613,0.783,0.158
18.810,-0.615,0.783,0.156
18.820,-0.617,0.783,0.158
18.830,-0.617,0.781,0.162
18.840,-0.615,0.781,0.160
18.850,-0.621,0.779,0.158
18.860,-0.615,0.781,0.156
18.869,-0.617,0.781,0.160
18.879,-0.615,0.781,0.160
18.889,-0.619,0.787,0.156
18.899,-0.617,0.787,0.158
18.909,-0.617,0.783,0.156
18.919,-0.615,0.787,0.152
18.929,-0.615,0.787,0.156
18.939,-0.615,0.785,0.156
18.949,-0.613,0.785,0.154
18.959,-0.613,0.789,0.152
18.969,-0.613,0.785,0.154
18.979,-0.611,0.785,0.154
18.989,-0.613,0.785,0.156
18.999,-0.613,0.785,0.156
19.008,-0.615,0.783,0.156
19.018,-0.615,0.781,0.158
19.028,-0.615,0.783,0.162
19.038,-0.613,0.779,0.160
19.048,-0.615,0.779,0.156
19.058,-0.615,0.781,0.158
19.068,-0.617,0.781,0.160
19.078,-0.615,0.783,0.160
19.088,-0.617,0.787,0.158
19.098,-0.617,0.781,0.160
19.108,-0.617,0.779,0.158
19.118,-0.617,0.783,0.160
19.128,-0.613,0.781,0.164
19.138,-0.615,0.779,0.160
19.147,-0.615,0.781,0.162
19.157,-0.615,0.783,0.162
19.167,-0.615,0.783,0.164
19.177,-0.617,0.781,0.162
19.187,-0.611,0.779,0.160
19.197,-0.615,0.783,0.160
19.207,-0.619,0.783,0.160
19.217,-0.619,0.787,0.162
19.227,-0.621,0.785,0.158
19.237,-0.619,0.783,0.158
19.247,-0.617,0.781,0.158
19.257,-0.615,0.777,0.154
19.267,-0.617,0.781,0.156
19.277,-0.615,0.779,0.154
19.286,-0.617,0.783,0.158
19.296,-0.617,0.781,0.156
19.306,-0.617,0.783,0.158
19.316,-0.613,0.785,0.160
19.326,-0.613,0.785,0.164
19.336,-0.611,0.783,0.162
19.346,-0.611,0.783,0.164
19.356,-0.615,0.783,0.164
19.366,-0.615,0.781,0.156
19.376,-0.613,0.781,0.158
19.386,-0.613,0.783,0.160
19.396,-0.615,0.783,0.162
19.406,-0.615,0.783,0.162
19.416,-0.621,0.785,0.160
19.425,-0.617,0.785,0.164
19.435,-0.611,0.783,0.160
19.445,-0.615,0.779,0.162
19.455,-0.613,0.779,0.160
19.465,-0.615,0.781,0.162
19.475,-0.615,0.779,0.160
19.485,-0.613,0.783,0.156
19.495,-0.611,0.785,0.162
19.505,-0.615,0.785,0.158
19.515,-0.613,0.785,0.154
19.525,-0.615,0.783,0.160
19.535,-0.617,0.781,0.160
19.545,-0.617,0.783,0.158
19.555,-0.615,0.781,0.156
19.564,-0.613,0.781,0.160
19.574,-0.615,0.781,0.156
19.584,-0.615,0.781,0.158
19.594,-0.615,0.783,0.158
19.604,-0.615,0.781,0.156
19.614,-0.617,0.781,0.156
19.624,-0.617,0.783,0.160
19.634,-0.615,0.781,0.158
19.644,-0.619,0.779,0.160
19.654,-0.621,0.781,0.160
19.664,-0.619,0.785,0.158
19.674,-0.621,0.781,0.154
19.684,-0.619,0.781,0.156
19.694,-0.619,0.781,0.156
19.703,-0.617,0.785,0.154
19.713,-0.615,0.785,0.156
19.723,-0.615,0.783,0.158
19.733,-0.611,0.785,0.156
19.743,-0.615,0.785,0.156
19.753,-0.613,0.787,0.158
19.763,-0.611,0.785,0.156
19.773,-0.615,0.785,0.158
19.783,-0.611,0.783,0.156
19.793,-0.615,0.783,0.158
19.803,-0.611,0.787,0.158
19.813,-0.611,0.785,0.156
19.823,-0.613,0.783,0.158
19.833,-0.615,0.779,0.158
19.842,-0.613,0.781,0.160
19.852,-0.617,0.783,0.160
19.862,-0.613,0.783,0.160
19.872,-0.615,0.781,0.160
19.882,-0.615,0.785,0.158
19.892,-0.619,0.779,0.156
19.902,-0.617,0.783,0.160
19.912,-0.623,0.781,0.160
19.922,-0.617,0.781,0.160
19.932,-0.619,0.783,0.160
19.942,-0.619,0.783,0.158
19.952,-0.619,0.779,0.158
19.962,-0.619,0.779,0.162
19.972,-0.619,0.781,0.162
19.981,-0.619,0.779,0.164
19.991,-0.617,0.779,0.160
20.001,-0.613,0.781,0.160
20.011,-0.615,0.781,0.162
20.021,-0.613,0.779,0.160
20.031,-0.615,0.779,0.160
20.041,-0.615,0.783,0.160
20.051,-0.619,0.783,0.160
20.061,-0.619,0.783,0.162
20.071,-0.617,0.787,0.160
20.081,-0.619,0.787,0.160
20.091,-0.617,0.783,0.156
20.101,-0.615,0.781,0.156
20.110,-0.617,0.779,0.154
20.120,-0.619,0.783,0.158
20.130,-0.619,0.781,0.156
20.140,-0.617,0.779,0.156
20.150,-0.617,0.781,0.158
20.160,-0.617,0.781,0.158
20.170,-0.619,0.785,0.162
20.180,-0.615,0.785,0.162
20.190,-0.615,0.785,0.160
20.200,-0.615,0.781,0.162
20.210,-0.619,0.781,0.160
20.220,-0.615,0.779,0.158
20.230,-0.619,0.779,0.160
20.240,-0.621,0.783,0.160
20.249,-0.617,0.783,0.164
20.259,-0.619,0.785,0.158
20.269,-0.615,0.785,0.164
20.279,-0.613,0.783,0.162
20.289,-0.615,0.777,0.158
20.299,-0.613,0.783,0.156
20.309,-0.615,0.783,0.158
20.319,-0.615,0.783,0.160
20.329,-0.615,0.789,0.158
20.339,-0.613,0.785,0.156
20.349,-0.613,0.785,0.156
20.359,-0.615,0.789,0.158
20.369,-0.615,0.789,0.156
20.379,-0.613,0.785,0.158
20.388,-0.617,0.785,0.156
20.398,-0.613,0.787,0.158
20.408,-0.613,0.787,0.156
20.418,-0.613,0.789,0.154
20.428,-0.613,0.783,0.158
20.438,-0.615,0.787,0.158
20.448,-0.613,0.781,0.156
20.458,-0.615,0.781,0.160
20.468,-0.615,0.779,0.162
20.478,-0.615,0.779,0.158
20.488,-0.617,0.779,0.160
20.498,-0.621,0.781,0.160
20.508,-0.619,0.781,0.158
20.518,-0.621,0.783,0.160
20.527,-0.621,0.783,0.158
20.537,-0.621,0.779,0.160
20.547,-0.617,0.781,0.156
20.557,-0.619,0.783,0.158
20.567,-0.617,0.785,0.158
20.577,-0.617,0.785,0.156
20.587,-0.615,0.789,0.154
20.597,-0.615,0.785,0.158
20.607,-0.611,0.787,0.156
20.617,-0.611,0.783,0.156
20.627,-0.613,0.783,0.154
20.637,-0.617,0.785,0.156
20.647,-0.617,0.787,0.156
20.657,-0.615,0.783,0.158
20.666,-0.615,0.783,0.158
20.676,-0.617,0.781,0.158
20.686,-0.617,0.781,0.158
20.696,-0.617,0.781,0.158
20.706,-0.619,0.781,0.160
20.716,-0.621,0.781,0.158
20.726,-0.619,0.781,0.160
20.736,-0.621,0.779,0.164
20.746,-0.619,0.779,0.158
20.756,-0.617,0.779,0.160
20.766,-0.619,0.777,0.160
20.776,-0.623,0.779,0.158
20.786,-0.621,0.783,0.164
20.796,-0.619,0.781,0.160
20.805,-0.619,0.783,0.160
20.815,-0.619,0.781,0.162
20.825,-0.617,0.781,0.162
20.835,-0.617,0.779,0.162
20.845,-0.613,0.781,0.164
20.855,-0.613,0.779,0.164
20.865,-0.615,0.781,0.162
20.875,-0.615,0.781,0.166
20.885,-0.613,0.775,0.162
20.895,-0.607,0.781,0.164
20.905,-0.611,0.779,0.162
20.915,-0.609,0.783,0.164
20.925,-0.615,0.783,0.164
20.935,-0.613,0.783,0.164
20.944,-0.613,0.781,0.162
20.954,-0.617,0.781,0.162
20.964,-0.615,0.779,0.158
20.974,-0.617,0.777,0.158
20.984,-0.625,0.779,0.156
20.994,-0.625,0.781,0.158
21.004,-0.625,0.783,0.160
21.014,-0.627,0.779,0.158
21.024,-0.623,0.779,0.158
21.034,-0.617,0.781,0.162
21.044,-0.615,0.783,0.156
21.054,-0.615,0.783,0.158
21.064,-0.613,0.781,0.160
21.074,-0.617,0.781,0.156
21.083,-0.619,0.783,0.156
21.093,-0.625,0.781,0.158
21.103,-0.623,0.783,0.160
21.113,-0.625,0.783,0.160
21.123,-0.629,0.787,0.156
21.133,-0.627,0.779,0.156
21.143,-0.627,0.777,0.152
21.153,-0.627,0.775,0.154
21.163,-0.625,0.779,0.154
21.173,-0.627,0.781,0.156
21.183,-0.623,0.781,0.156
21.193,-0.619,0.785,0.152
21.203,-0.617,0.785,0.154
21.213,-0.615,0.785,0.154
21.222,-0.613,0.783,0.156
21.232,-0.611,0.789,0.154
21.242,-0.611,0.783,0.154
21.252,-0.611,0.785,0.156
21.262,-0.615,0.783,0.156
21.272,-0.611,0.787,0.156
21.282,-0.615,0.783,0.158
21.292,-0.615,0.783,0.158
21.302,-0.617,0.781,0.158
21.312,-0.621,0.781,0.156
21.322,-0.619,0.783,0.158
21.332,-0.621,0.781,0.154
21.342,-0.617,0.779,0.154
21.352,-0.623,0.777,0.156
21.361,-0.621,0.777,0.156
21.371,-0.621,0.779,0.158
21.381,-0.621,0.777,0.158
21.391,-0.621,0.779,0.152
21.401,-0.623,0.777,0.154
21.411,-0.621,0.781,0.158
21.421,-0.621,0.779,0.154
21.431,-0.621,0.777,0.156
21.441,-0.617,0.779,0.156
21.451,-0.617,0.781,0.158
21.461,-0.619,0.779,0.158
21.471,-0.617,0.779,0.154
21.481,-0.617,0.781,0.154
21.490,-0.619,0.783,0.154
21.500,-0.623,0.781,0.154
21.510,-0.621,0.783,0.156
21.520,-0.623,0.785,0.154
21.530,-0.621,0.785,0.154
21.540,-0.619,0.783,0.158
21.550,-0.621,0.785,0.156
21.560,-0.621,0.783,0.158
21.570,-0.619,0.783,0.156
21.580,-0.621,0.785,0.160
21.590,-0.621,0.783,0.158
21.600,-0.617,0.781,0.158
21.610,-0.615,0.783,0.162
21.620,-0.617,0.781,0.162
21.629,-0.613,0.781,0.158
21.639,-0.615,0.783,0.158
21.649,-0.611,0.779,0.160
21.659,-0.613,0.783,0.158
21.669,-0.615,0.785,0.162
21.679,-0.613,0.781,0.162
21.689,-0.613,0.781,0.160
21.699,-0.615,0.783,0.160
21.709,-0.619,0.785,0.158
21.719,-0.613,0.789,0.164
21.729,-0.617,0.787,0.162
21.739,-0.615,0.781,0.160
21.749,-0.617,0.781,0.160
21.759,-0.609,0.783,0.160
21.768,-0.617,0.779,0.158
21.778,-0.615,0.785,0.154
21.788,-0.617,0.779,0.158
21.798,-0.615,0.783,0.160
21.808,-0.615,0.783,0.158
21.818,-0.613,0.783,0.156
21.828,-0.617,0.787,0.160
21.838,-0.611,0.785,0.158
21.848,-0.613,0.785,0.158
21.858,-0.609,0.785,0.158
21.868,-0.613,0.783,0.156
21.878,-0.611,0.783,0.160
21.888,-0.615,0.781,0.154
21.898,-0.611,0.783,0.162
21.907,-0.615,0.785,0.162
21.917,-0.615,0.787,0.160
21.927,-0.613,0.785,0.158
21.937,-0.611,0.781,0.156
21.947,-0.615,0.779,0.156
21.957,-0.615,0.781,0.158
21.967,-0.619,0.781,0.158
21.977,-0.619,0.783,0.160
21.987,-0.619,0.783,0.156
21.997,-0.615,0.783,0.156
22.007,-0.617,0.785,0.158
22.017,-0.619,0.783,0.156
22.027,-0.617,0.781,0.158
22.037,-0.615,0.785,0.156
22.046,-0.615,0.787,0.154
22.056,-0.613,0.783,0.154
22.066,-0.611,0.781,0.150
22.076,-0.613,0.785,0.154
22.086,-0.613,0.783,0.156
22.096,-0.615,0.787,0.156
22.106,-0.619,0.787,0.156
22.116,-0.615,0.781,0.156
22.126,-0.617,0.781,0.154
22.136,-0.615,0.783,0.156
22.146,-0.621,0.783,0.152
22.156,-0.617,0.783,0.152
22.166,-0.617,0.781,0.154
22.176,-0.619,0.783,0.154
22.185,-0.617,0.785,0.156
22.195,-0.617,0.783,0.152
22.205,-0.617,0.787,0.150
22.215,-0.617,0.787,0.154
22.225,-0.615,0.787,0.156
22.235,-0.613,0.789,0.154
22.245,-0.613,0.789,0.152
22.255,-0.613,0.787,0.152
22.265,-0.613,0.785,0.152
22.275,-0.613,0.785,0.152
22.285,-0.613,0.785,0.156
22.295,-0.613,0.785,0.156
22.305,-0.615,0.785,0.158
22.315,-0.615,0.787,0.158
22.324,-0.617,0.785,0.156
22.334,-0.615,0.781,0.156
22.344,-0.617,0.779,0.156
22.354,-0.617,0.783,0.156
22.364,-0.619,0.783,0.156
22.374,-0.621,0.783,0.156
22.384,-0.617,0.783,0.160
22.394,-0.617,0.779,0.160
22.404,-0.617,0.781,0.164
22.414,-0.619,0.781,0.158
22.424,-0.615,0.783,0.162
22.434,-0.615,0.779,0.162
22.444,-0.615,0.779,0.162
22.454,-0.615,0.785,0.162
22.463,-0.615,0.783,0.162
22.473,-0.617,0.779,0.162
22.483,-0.615,0.777,0.162
22.493,-0.617,0.781,0.164
22.503,-0.619,0.783,0.162
22.513,-0.619,0.789,0.160
22.523,-0.623,0.787,0.158
22.533,-0.617,0.783,0.158
22.543,-0.615,0.779,0.158
22.553,-0.619,0.779,0.158
22.563,-0.619,0.779,0.158
22.573,-0.619,0.779,0.160
22.583,-0.615,0.783,0.160
22.593,-0.615,0.781,0.158
22.602,-0.615,0.783,0.160
22.612,-0.617,0.783,0.158
22.622,-0.617,0.789,0.160
22.632,-0.617,0.787,0.160
22.642,-0.615,0.785,0.162
22.652,-0.613,0.783,0.160
22.662,-0.617,0.781,0.162
22.672,-0.617,0.783,0.160
22.682,-0.617,0.785,0.162
22.692,-0.617,0.783,0.158
22.702,-0.617,0.787,0.164
22.712,-0.617,0.789,0.162
22.722,-0.613,0.785,0.160
22.732,-0.611,0.781,0.160
22.741,-0.615,0.779,0.160
22.751,-0.617,0.781,0.160
22.761,-0.617,0.783,0.160
22.771,-0.615,0.785,0.158
22.781,-0.615,0.785,0.160
22.791,-0.615,0.787,0.160
22.801,-0.615,0.785,0.154
22.811,-0.615,0.785,0.160
22.821,-0.613,0.785,0.156
22.831,-0.615,0.785,0.156
22.841,-0.617,0.783,0.156
22.851,-0.613,0.785,0.160
22.861,-0.611,0.783,0.156
22.870,-0.611,0.783,0.160
22.880,-0.611,0.785,0.158
22.890,-0.613,0.785,0.160
22.900,-0.611,0.783,0.160
22.910,-0.613,0.781,0.156
22.920,-0.615,0.781,0.158
22.930,-0.617,0.783,0.158
22.940,-0.617,0.783,0.156
22.950,-0.619,0.779,0.158
22.960,-0.617,0.783,0.156
22.970,-0.619,0.781,0.160
22.980,-0.619,0.783,0.156
22.990,-0.619,0.785,0.156
23.000,-0.619,0.783,0.152
23.009,-0.619,0.783,0.152
23.019,-0.619,0.783,0.158
23.029,-0.615,0.789,0.152
23.039,-0.617,0.787,0.156
23.049,-0.615,0.787,0.156
23.059,-0.613,0.785,0.156
23.069,-0.613,0.787,0.160
23.079,-0.613,0.785,0.156
23.089,-0.613,0.783,0.160
23.099,-0.615,0.781,0.156
23.109,-0.615,0.783,0.158
23.119,-0.617,0.785,0.160
23.129,-0.617,0.781,0.160
23.139,-0.613,0.779,0.160
23.148,-0.621,0.781,0.160
23.158,-0.617,0.779,0.160
23.168,-0.619,0.781,0.160
23.178,-0.617,0.781,0.160
23.188,-0.619,0.781,0.160
23.198,-0.617,0.783,0.164
23.208,-0.617,0.779,0.158
23.218,-0.619,0.781,0.164
23.228,-0.617,0.783,0.160
23.238,-0.617,0.783,0.162
23.248,-0.619,0.781,0.160
23.258,-0.615,0.781,0.164
23.268,-0.615,0.785,0.160
23.278,-0.613,0.779,0.164
23.287,-0.617,0.779,0.164
23.297,-0.615,0.777,0.162
23.307,-0.617,0.779,0.160
23.317,-0.619,0.785,0.160
23.327,-0.619,0.785,0.160
23.337,-0.617,0.781,0.160
23.347,-0.615,0.781,0.160
23.357,-0.615,0.779,0.158
23.367,-0.617,0.779,0.156
23.377,-0.615,0.781,0.160
23.387,-0.615,0.781,0.160
23.397,-0.613,0.783,0.160
23.407,-0.613,0.785,0.158
23.417,-0.617,0.785,0.156
23.426,-0.615,0.785,0.162
23.436,-0.615,0.787,0.162
23.446,-0.613,0.785,0.164
23.456,-0.617,0.785,0.162
23.466,-0.617,0.783,0.162
23.476,-0.615,0.781,0.164
23.486,-0.619,0.779,0.162
23.496,-0.617,0.781,0.162
23.506,-0.619,0.781,0.164
23.516,-0.619,0.783,0.164
23.526,-0.619,0.787,0.166
23.536,-0.615,0.781,0.160
23.546,-0.615,0.781,0.164
23.556,-0.615,0.779,0.158
23.565,-0.615,0.779,0.160
23.575,-0.619,0.781,0.162
23.585,-0.613,0.783,0.160
23.595,-0.615,0.787,0.158
23.605,-0.615,0.787,0.152
23.615,-0.615,0.787,0.156
23.625,-0.613,0.789,0.158
23.635,-0.611,0.787,0.158
23.645,-0.615,0.787,0.154
23.655,-0.613,0.787,0.154
23.665,-0.611,0.787,0.154
23.675,-0.611,0.785,0.152
23.685,-0.611,0.789,0.156
23.695,-0.611,0.785,0.158
23.704,-0.609,0.787,0.156
23.714,-0.615,0.789,0.156
23.724,-0.613,0.785,0.158
23.734,-0.611,0.783,0.156
23.744,-0.617,0.783,0.156
23.754,-0.617,0.783,0.156
23.764,-0.619,0.783,0.154
23.774,-0.621,0.781,0.156
23.784,-0.621,0.783,0.156
23.794,-0.619,0.783,0.154
23.804,-0.619,0.783,0.152
23.814,-0.621,0.785,0.156
23.824,-0.617,0.787,0.154
23.834,-0.619,0.789,0.154
23.843,-0.613,0.785,0.156
23.853,-0.613,0.785,0.156
23.863,-0.613,0.783,0.158
23.873,-0.611,0.783,0.154
23.883,-0.615,0.785,0.156
23.893,-0.615,0.785,0.156
23.903,-0.613,0.785,0.158
23.913,-0.619,0.783,0.162
23.923,-0.617,0.781,0.152
23.933,-0.615,0.781,0.158
23.943,-0.617,0.781,0.160
23.953,-0.621,0.781,0.160
23.963,-0.621,0.781,0.160
23.973,-0.617,0.783,0.162
23.982,-0.617,0.781,0.160
23.992,-0.617,0.779,0.158
24.002,-0.615,0.777,0.162
24.012,-0.617,0.779,0.164
24.022,-0.617,0.779,0.164
24.032,-0.613,0.779,0.160
24.042,-0.615,0.781,0.162
24.052,-0.617,0.783,0.158
24.062,-0.615,0.783,0.158
24.072,-0.615,0.783,0.162
24.082,-0.617,0.779,0.160
24.092,-0.617,0.781,0.158
24.102,-0.621,0.785,0.158
24.112,-0.619,0.787,0.160
24.121,-0.621,0.787,0.160
24.131,-0.621,0.783,0.156
24.141,-0.615,0.783,0.160
24.151,-0.615,0.781,0.154
24.161,-0.617,0.783,0.158
24.171,-0.615,0.781,0.158
24.181,-0.615,0.781,0.158
24.191,-0.619,0.783,0.156
24.201,-0.617,0.783,0.160
24.211,-0.613,0.783,0.160
24.221,-0.615,0.785,0.162
24.231,-0.615,0.785,0.162
24.241,-0.615,0.785,0.162
24.251,-0.613,0.785,0.166
24.260,-0.615,0.781,0.162
24.270,-0.615,0.781,0.160
24.280,-0.615,0.781,0.166
24.290,-0.615,0.785,0.164
24.300,-0.611,0.787,0.160
24.310,-0.613,0.789,0.164
24.320,-0.609,0.787,0.162
24.330,-0.611,0.783,0.162
24.340,-0.611,0.781,0.160
24.350,-0.615,0.785,0.160
24.360,-0.611,0.785,0.162
24.370,-0.613,0.789,0.158
24.380,-0.613,0.789,0.162
24.389,-0.609,0.789,0.160
24.399,-0.613,0.789,0.160
24.409,-0.611,0.785,0.160
24.419,-0.611,0.791,0.160
24.429,-0.609,0.789,0.158
24.439,-0.611,0.785,0.156
24.449,-0.609,0.787,0.160
24.459,-0.607,0.783,0.158
24.469,-0.609,0.785,0.158
24.479,-0.609,0.785,0.160
24.489,-0.609,0.785,0.156
24.499,-0.613,0.787,0.158
24.509,-0.613,0.787,0.162
24.519,-0.611,0.787,0.158
24.528,-0.617,0.785,0.158
24.538,-0.619,0.785,0.160
24.548,-0.619,0.787,0.160
24.558,-0.615,0.783,0.162
24.568,-0.619,0.783,0.158
24.578,-0.615,0.785,0.160
24.588,-0.615,0.783,0.158
24.598,-0.613,0.781,0.158
24.608,-0.613,0.785,0.160
24.618,-0.613,0.783,0.160
24.628,-0.609,0.785,0.158
24.638,-0.611,0.785,0.162
24.648,-0.611,0.785,0.158
24.658,-0.611,0.785,0.162
24.667,-0.615,0.783,0.162
24.677,-0.611,0.781,0.160
24.687,-0.613,0.785,0.162
24.697,-0.615,0.781,0.162
24.707,-0.617,0.781,0.166
24.717,-0.619,0.783,0.164
24.727,-0.619,0.781,0.166
24.737,-0.621,0.777,0.164
24.747,-0.619,0.781,0.162
24.757,-0.621,0.775,0.166
24.767,-0.619,0.777,0.166
24.777,-0.615,0.777,0.168
24.787,-0.617,0.781,0.164
24.797,-0.617,0.781,0.168
24.806,-0.615,0.783,0.164
24.816,-0.615,0.781,0.164
24.826,-0.613,0.779,0.162
24.836,-0.611,0.779,0.168
24.846,-0.615,0.781,0.164
24.856,-0.615,0.785,0.166
24.866,-0.615,0.787,0.166
24.876,-0.619,0.783,0.164
24.886,-0.617,0.783,0.160
24.896,-0.619,0.781,0.160
24.906,-0.619,0.781,0.160
24.916,-0.619,0.781,0.160
24.926,-0.619,0.785,0.160
24.936,-0.619,0.783,0.160
24.945,-0.623,0.785,0.156
24.955,-0.613,0.785,0.158
24.965,-0.619,0.783,0.158
24.975,-0.615,0.785,0.158
24.985,-0.613,0.787,0.164
24.995,-0.613,0.783,0.160
25.005,-0.615,0.783,0.160
25.015,-0.611,0.783,0.160
25.025,-0.613,0.783,0.158
25.035,-0.611,0.785,0.162
25.045,-0.613,0.783,0.158
25.055,-0.615,0.789,0.160
25.065,-0.613,0.785,0.156
25.075,-0.611,0.783,0.156
25.084,-0.609,0.781,0.158
25.094,-0.613,0.783,0.158
25.104,-0.613,0.787,0.154
25.114,-0.611,0.789,0.156
25.124,-0.611,0.787,0.158
25.134,-0.609,0.789,0.156
25.144,-0.611,0.789,0.154
25.154,-0.607,0.789,0.162
25.164,-0.611,0.787,0.156
25.174,-0.609,0.785,0.158
25.184,-0.611,0.785,0.154
25.194,-0.613,0.787,0.156
25.204,-0.611,0.785,0.158
25.214,-0.611,0.783,0.156
25.223,-0.613,0.785,0.154
25.233,-0.611,0.785,0.156
25.243,-0.615,0.787,0.154
25.253,-0.615,0.783,0.156
25.263,-0.617,0.781,0.158
25.273,-0.615,0.783,0.154
25.283,-0.617,0.783,0.156
25.293,-0.619,0.783,0.154
25.303,-0.617,0.783,0.158
25.313,-0.623,0.783,0.158
25.323,-0.621,0.785,0.154
25.333,-0.619,0.785,0.154
25.343,-0.619,0.783,0.154
25.353,-0.619,0.787,0.154
25.362,-0.619,0.785,0.154
25.372,-0.619,0.787,0.150
25.382,-0.619,0.785,0.152
25.392,-0.615,0.791,0.154
25.402,-0.617,0.787,0.152
25.412,-0.613,0.785,0.152
25.422,-0.613,0.787,0.154
25.432,-0.613,0.791,0.154
25.442,-0.613,0.785,0.156
25.452,-0.615,0.787,0.156
25.462,-0.615,0.789,0.156
25.472,-0.615,0.787,0.154
25.482,-0.617,0.783,0.158
25.492,-0.619,0.785,0.158
25.501,-0.615,0.781,0.160
25.511,-0.613,0.781,0.160
25.521,-0.613,0.779,0.158
25.531,-0.615,0.787,0.162
25.541,-0.613,0.783,0.162
25.551,-0.613,0.777,0.160
25.561,-0.613,0.779,0.162
25.571,-0.613,0.779,0.164
25.581,-0.615,0.781,0.164
25.591,-0.617,0.785,0.166
25.601,-0.617,0.785,0.164
25.611,-0.617,0.781,0.164
25.621,-0.617,0.783,0.166
25.631,-0.617,0.779,0.162
25.640,-0.615,0.779,0.162
25.650,-0.617,0.779,0.160
25.660,-0.617,0.779,0.162
25.670,-0.615,0.779,0.164
25.680,-0.619,0.783,0.166
25.690,-0.617,0.785,0.160
25.700,-0.615,0.785,0.162
25.710,-0.615,0.783,0.164
25.720,-0.611,0.785,0.162
25.730,-0.613,0.787,0.162
25.740,-0.611,0.785,0.162
25.750,-0.611,0.783,0.162
25.760,-0.611,0.785,0.164
25.769,-0.609,0.783,0.162
25.779,-0.613,0.787,0.162
25.789,-0.611,0.789,0.164
25.799,-0.613,0.789,0.162
25.809,-0.609,0.785,0.160
25.819,-0.609,0.785,0.160
25.829,-0.611,0.783,0.160
25.839,-0.613,0.785,0.162
25.849,-0.613,0.787,0.162
25.859,-0.615,0.787,0.158
25.869,-0.613,0.787,0.158
25.879,-0.613,0.787,0.158
25.889,-0.609,0.789,0.158
25.899,-0.613,0.785,0.158
25.908,-0.613,0.787,0.156
25.918,-0.615,0.785,0.160
25.928,-0.611,0.785,0.160
25.938,-0.611,0.785,0.158
25.948,-0.609,0.789,0.160
25.958,-0.609,0.787,0.162
25.968,-0.611,0.785,0.160
25.978,-0.607,0.785,0.158
25.988,-0.609,0.785,0.160
25.998,-0.611,0.787,0.162
26.008,-0.611,0.783,0.160
26.018,-0.613,0.785,0.160
26.028,-0.613,0.783,0.156
26.038,-0.615,0.783,0.158
26.047,-0.615,0.783,0.156
26.057,-0.615,0.783,0.158
26.067,-0.617,0.783,0.158
26.077,-0.617,0.785,0.158
26.087,-0.615,0.789,0.160
26.097,-0.613,0.789,0.156
26.107,-0.613,0.783,0.154
26.117,-0.613,0.787,0.154
26.127,-0.611,0.787,0.154
26.137,-0.611,0.789,0.156
26.147,-0.611,0.787,0.156
26.157,-0.609,0.787,0.156
26.167,-0.609,0.789,0.152
26.177,-0.611,0.787,0.154
26.186,-0.613,0.785,0.156
26.196,-0.611,0.787,0.158
26.206,-0.615,0.789,0.158
26.216,-0.617,0.787,0.158
26.226,-0.615,0.787,0.156
26.236,-0.615,0.779,0.158
26.246,-0.619,0.783,0.160
26.256,-0.615,0.785,0.160
26.266,-0.615,0.781,0.160
26.276,-0.615,0.781,0.160
26.286,-0.613,0.783,0.164
26.296,-0.613,0.783,0.160
26.306,-0.617,0.783,0.158
26.316,-0.613,0.781,0.158
26.325,-0.615,0.783,0.160
26.335,-0.619,0.783,0.160
26.345,-0.621,0.791,0.160
26.355,-0.619,0.783,0.160
26.365,-0.617,0.785,0.158
26.375,-0.617,0.783,0.164
26.385,-0.617,0.779,0.158
26.395,-0.615,0.779,0.160
26.405,-0.617,0.783,0.160
26.415,-0.615,0.783,0.160
26.425,-0.613,0.783,0.162
26.435,-0.613,0.783,0.162
26.445,-0.613,0.783,0.160
26.455,-0.615,0.785,0.160
26.464,-0.613,0.785,0.164
26.474,-0.611,0.783,0.166
26.484,-0.611,0.783,0.164
26.494,-0.613,0.781,0.160
26.504,-0.611,0.785,0.162
26.514,-0.615,0.785,0.160
26.524,-0.615,0.783,0.162
26.534,-0.613,0.785,0.160
26.544,-0.613,0.787,0.164
26.554,-0.611,0.787,0.162
26.564,-0.613,0.783,0.156
26.574,-0.613,0.785,0.162
26.584,-0.611,0.787,0.160
26.594,-0.615,0.787,0.158
26.603,-0.611,0.789,0.160
26.613,-0.613,0.787,0.158
26.623,-0.611,0.791,0.160
26.633,-0.611,0.787,0.158
26.643,-0.609,0.787,0.160
26.653,-0.613,0.785,0.158
26.663,-0.611,0.789,0.162
26.673,-0.609,0.785,0.158
26.683,-0.609,0.787,0.158
26.693,-0.611,0.787,0.158
26.703,-0.609,0.787,0.158
26.713,-0.605,0.783,0.162
26.723,-0.607,0.787,0.160
26.733,-0.609,0.789,0.156
26.742,-0.609,0.785,0.160
26.752,-0.611,0.787,0.158
26.762,-0.611,0.785,0.162
26.772,-0.613,0.789,0.160
26.782,-0.611,0.787,0.158
26.792,-0.613,0.785,0.160
26.802,-0.615,0.785,0.156
26.812,-0.615,0.787,0.160
26.822,-0.613,0.787,0.154
26.832,-0.615,0.785,0.154
26.842,-0.611,0.787,0.160
26.852,-0.613,0.785,0.156
26.862,-0.611,0.787,0.158
26.872,-0.613,0.785,0.156
26.881,-0.613,0.789,0.156
26.891,-0.613,0.789,0.158
26.901,-0.613,0.787,0.154
26.911,-0.613,0.789,0.158
26.921,-0.615,0.787,0.156
26.931,-0.613,0.785,0.156
26.941,-0.615,0.785,0.154
26.951,-0.611,0.787,0.156
26.961,-0.617,0.785,0.158
26.971,-0.613,0.787,0.156
26.981,-0.613,0.781,0.160
26.991,-0.617,0.783,0.158
27.001,-0.617,0.787,0.160
27.011,-0.613,0.785,0.158
27.020,-0.611,0.781,0.162
27.030,-0.613,0.785,0.158
27.040,-0.615,0.787,0.160
27.050,-0.611,0.787,0.160
27.060,-0.613,0.783,0.160
27.070,-0.613,0.779,0.160
27.080,-0.615,0.783,0.160
27.090,-0.619,0.787,0.158
27.100,-0.621,0.789,0.160
27.110,-0.615,0.787,0.162
27.120,-0.617,0.787,0.158
27.130,-0.617,0.783,0.158
27.140,-0.615,0.785,0.158
27.149,-0.615,0.783,0.162
27.159,-0.613,0.781,0.154
27.169,-0.613,0.781,0.160
27.179,-0.613,0.783,0.158
27.189,-0.609,0.785,0.158
27.199,-0.611,0.783,0.162
27.209,-0.609,0.787,0.164
27.219,-0.611,0.787,0.166
27.229,-0.607,0.787,0.164
27.239,-0.611,0.785,0.162
27.249,-0.609,0.785,0.160
27.259,-0.609,0.785,0.160
27.269,-0.611,0.785,0.162
27.279,-0.609,0.785,0.164
27.288,-0.609,0.789,0.162
27.298,-0.609,0.793,0.162
27.308,-0.611,0.789,0.158
27.318,-0.607,0.785,0.162
27.328,-0.607,0.785,0.162
27.338,-0.609,0.783,0.164
27.348,-0.609,0.785,0.162
27.358,-0.609,0.789,0.164
27.368,-0.607,0.791,0.158
27.378,-0.609,0.791,0.158
27.388,-0.611,0.791,0.160
27.398,-0.613,0.789,0.158
27.408,-0.611,0.791,0.158
27.418,-0.611,0.783,0.160
27.427,-0.611,0.787,0.158
27.437,-0.611,0.787,0.162
27.447,-0.611,0.787,0.162
27.457,-0.611,0.787,0.160
27.467,-0.607,0.789,0.164
27.477,-0.607,0.785,0.164
27.487,-0.607,0.785,0.158
27.497,-0.611,0.787,0.162
27.507,-0.611,0.785,0.162
27.517,-0.609,0.785,0.164
27.527,-0.615,0.787,0.162
27.537,-0.613,0.785,0.158
27.547,-0.611,0.783,0.162
27.557,-0.611,0.785,0.160
27.566,-0.611,0.787,0.160
27.576,-0.613,0.787,0.160
27.586,-0.611,0.785,0.158
27.596,-0.611,0.785,0.158
27.606,-0.613,0.785,0.162
27.616,-0.613,0.789,0.158
27.626,-0.611,0.789,0.158
27.636,-0.613,0.785,0.154
27.646,-0.611,0.785,0.160
27.656,-0.609,0.785,0.156
27.666,-0.613,0.785,0.154
27.676,-0.609,0.787,0.158
27.686,-0.613,0.789,0.156
27.696,-0.617,0.785,0.158
27.705,-0.617,0.787,0.158
27.715,-0.615,0.787,0.158
27.725,-0.615,0.785,0.158
27.735,-0.615,0.783,0.160
27.745,-0.617,0.785,0.162
27.755,-0.617,0.781,0.162
27.765,-0.615,0.783,0.162
27.775,-0.615,0.783,0.160
27.785,-0.621,0.785,0.162
27.795,-0.621,0.781,0.162
27.805,-0.621,0.777,0.162
27.815,-0.619,0.779,0.162
27.825,-0.623,0.781,0.162
27.835,-0.623,0.781,0.164
27.844,-0.623,0.787,0.158
27.854,-0.619,0.783,0.160
27.864,-0.623,0.779,0.160
27.874,-0.619,0.781,0.158
27.884,-0.617,0.779,0.156
27.894,-0.617,0.783,0.158
27.904,-0.615,0.781,0.158
27.914,-0.617,0.785,0.158
27.924,-0.613,0.783,0.158
27.934,-0.615,0.785,0.158
27.944,-0.615,0.789,0.162
27.954,-0.611,0.787,0.160
27.964,-0.611,0.787,0.156
27.974,-0.607,0.787,0.160
27.983,-0.609,0.787,0.162
27.993,-0.609,0.785,0.158
28.003,-0.607,0.787,0.156
28.013,-0.611,0.787,0.162
28.023,-0.611,0.791,0.160
28.033,-0.611,0.791,0.158
28.043,-0.607,0.793,0.160
28.053,-0.604,0.783,0.160
28.063,-0.609,0.783,0.158
28.073,-0.609,0.787,0.158
28.083,-0.609,0.785,0.156
28.093,-0.613,0.785,0.160
28.103,-0.615,0.787,0.158
28.113,-0.615,0.789,0.154
28.122,-0.615,0.791,0.158
28.132,-0.615,0.791,0.154
28.142,-0.613,0.787,0.158
28.152,-0.611,0.789,0.160
28.162,-0.611,0.787,0.156
28.172,-0.609,0.789,0.156
28.182,-0.611,0.787,0.158
28.192,-0.609,0.789,0.158
28.202,-0.607,0.789,0.158
28.212,-0.607,0.789,0.156
28.222,-0.605,0.789,0.158
28.232,-0.607,0.789,0.160
28.242,-0.607,0.789,0.158
28.252,-0.609,0.787,0.160
28.261,-0.609,0.787,0.156
28.271,-0.611,0.787,0.158
28.281,-0.611,0.785,0.158
28.291,-0.613,0.789,0.156
28.301,-0.611,0.787,0.156
28.311,-0.611,0.789,0.156
28.321,-0.609,0.789,0.156
28.331,-0.611,0.789,0.158
28.341,-0.611,0.789,0.156
28.351,-0.611,0.789,0.154
28.361,-0.609,0.791,0.150
28.371,-0.609,0.791,0.156
28.381,-0.609,0.791,0.156
28.391,-0.613,0.791,0.156
28.400,-0.611,0.789,0.156
28.410,-0.607,0.785,0.156
28.420,-0.607,0.787,0.156
28.430,-0.607,0.789,0.156
28.440,-0.613,0.787,0.158
28.450,-0.611,0.791,0.156
28.460,-0.609,0.787,0.160
28.470,-0.615,0.789,0.156
28.480,-0.611,0.783,0.158
28.490,-0.611,0.789,0.158
28.500,-0.615,0.785,0.158
28.510,-0.611,0.783,0.158
28.520,-0.615,0.785,0.160
28.529,-0.609,0.785,0.162
28.539,-0.609,0.787,0.160
28.549,-0.611,0.785,0.160
28.559,-0.613,0.781,0.158
28.569,-0.611,0.781,0.160
28.579,-0.613,0.783,0.160
28.589,-0.617,0.791,0.162
28.599,-0.617,0.791,0.162
28.609,-0.615,0.789,0.162
28.619,-0.615,0.783,0.160
28.629,-0.611,0.785,0.154
28.639,-0.615,0.783,0.156
28.649,-0.615,0.781,0.160
28.659,-0.613,0.783,0.158
28.668,-0.615,0.785,0.158
28.678,-0.611,0.785,0.158
28.688,-0.609,0.787,0.156
28.698,-0.611,0.787,0.162
28.708,-0.609,0.787,0.158
28.718,-0.611,0.785,0.158
28.728,-0.607,0.787,0.160
28.738,-0.611,0.787,0.162
28.748,-0.611,0.787,0.160
28.758,-0.613,0.785,0.160
28.768,-0.611,0.785,0.158
28.778,-0.609,0.787,0.162
28.788,-0.613,0.791,0.160
28.798,-0.607,0.787,0.160
28.807,-0.607,0.785,0.158
28.817,-0.609,0.785,0.160
28.827,-0.609,0.783,0.158
28.837,-0.613,0.787,0.158
28.847,-0.615,0.785,0.156
28.857,-0.611,0.789,0.158
28.867,-0.611,0.787,0.158
28.877,-0.613,0.789,0.160
28.887,-0.613,0.789,0.158
28.897,-0.611,0.789,0.158
28.907,-0.615,0.787,0.158
28.917,-0.611,0.789,0.158
28.927,-0.609,0.785,0.160
28.937,-0.609,0.785,0.158
28.946,-0.607,0.787,0.160
28.956,-0.611,0.787,0.160
28.966,-0.607,0.787,0.160
28.976,-0.611,0.787,0.158
28.986,-0.611,0.789,0.158
28.996,-0.611,0.787,0.162
29.006,-0.611,0.785,0.158
29.016,-0.613,0.785,0.160
29.026,-0.613,0.783,0.156
29.036,-0.615,0.789,0.160
29.046,-0.613,0.785,0.156
29.056,-0.615,0.785,0.156
29.066,-0.613,0.787,0.158
29.076,-0.611,0.785,0.154
29.085,-0.611,0.787,0.156
29.095,-0.611,0.783,0.158
29.105,-0.607,0.785,0.154
29.115,-0.607,0.789,0.156
29.125,-0.605,0.789,0.150
29.135,-0.607,0.789,0.158
29.145,-0.605,0.789,0.152
29.155,-0.607,0.785,0.156
29.165,-0.609,0.791,0.158
29.175,-0.615,0.791,0.152
29.185,-0.615,0.789,0.156
29.195,-0.613,0.791,0.158
29.205,-0.615,0.787,0.156
29.215,-0.617,0.789,0.158
29.224,-0.615,0.787,0.154
29.234,-0.615,0.787,0.158
29.244,-0.617,0.787,0.160
29.254,-0.615,0.787,0.158
29.264,-0.613,0.785,0.156
29.274,-0.613,0.781,0.160
29.284,-0.611,0.787,0.160
29.294,-0.611,0.783,0.164
29.304,-0.611,0.785,0.162
29.314,-0.607,0.781,0.164
29.324,-0.609,0.785,0.162
29.334,-0.609,0.785,0.162
29.344,-0.609,0.785,0.162
29.354,-0.607,0.783,0.160
29.363,-0.611,0.785,0.164
29.373,-0.617,0.789,0.162
29.383,-0.615,0.791,0.160
29.393,-0.615,0.791,0.160
29.403,-0.611,0.789,0.160
29.413,-0.611,0.787,0.154
29.423,-0.611,0.785,0.156
29.433,-0.611,0.785,0.160
29.443,-0.613,0.783,0.160
29.453,-0.609,0.785,0.162
29.463,-0.611,0.787,0.156
29.473,-0.609,0.789,0.158
29.483,-0.611,0.791,0.160
29.493,-0.609,0.789,0.160
29.502,-0.609,0.791,0.160
29.512,-0.613,0.789,0.164
29.522,-0.607,0.787,0.160
29.532,-0.609,0.787,0.158
29.542,-0.609,0.785,0.162
29.552,-0.609,0.783,0.160
29.562,-0.613,0.783,0.162
29.572,-0.611,0.791,0.164
29.582,-0.611,0.789,0.166
29.592,-0.611,0.783,0.162
29.602,-0.611,0.781,0.162
29.612,-0.613,0.781,0.158
29.622,-0.611,0.783,0.164
29.632,-0.613,0.783,0.162
29.641,-0.613,0.785,0.158
29.651,-0.611,0.789,0.158
29.661,-0.609,0.789,0.158
29.671,-0.615,0.789,0.156
29.681,-0.611,0.787,0.160
29.691,-0.611,0.789,0.156
29.701,-0.613,0.787,0.156
29.711,-0.611,0.787,0.158
29.721,-0.611,0.789,0.156
29.731,-0.609,0.787,0.158
29.741,-0.607,0.791,0.152
29.751,-0.609,0.789,0.158
29.761,-0.609,0.787,0.158
29.771,-0.609,0.787,0.158
29.780,-0.609,0.789,0.156
29.790,-0.609,0.789,0.160
29.800,-0.609,0.785,0.158
29.810,-0.611,0.789,0.156
29.820,-0.611,0.785,0.156
29.830,-0.613,0.787,0.154
29.840,-0.609,0.791,0.156
29.850,-0.611,0.793,0.152
29.860,-0.609,0.789,0.154
29.870,-0.607,0.789,0.154
29.880,-0.611,0.789,0.152
29.890,-0.607,0.793,0.154
29.900,-0.605,0.793,0.150
29.909,-0.609,0.793,0.152
29.919,-0.605,0.791,0.154
29.929,-0.605,0.793,0.152
29.939,-0.605,0.789,0.152
29.949,-0.605,0.789,0.152
29.959,-0.607,0.791,0.156
29.969,-0.611,0.789,0.156
29.979,-0.609,0.789,0.156
29.989,-0.615,0.787,0.156
29.999,-0.613,0.791,0.156
30.009,-0.615,0.787,0.158
30.019,-0.615,0.785,0.160
30.029,-0.613,0.783,0.156
30.039,-0.613,0.785,0.162
30.048,-0.615,0.785,0.160
30.058,-0.615,0.783,0.160
30.068,-0.615,0.785,0.166
30.078,-0.615,0.785,0.160
30.088,-0.615,0.787,0.160
30.098,-0.615,0.787,0.162
30.108,-0.611,0.783,0.162
30.118,-0.609,0.785,0.164
30.128,-0.611,0.783,0.162
30.138,-0.611,0.791,0.160
30.148,-0.611,0.785,0.160
30.158,-0.609,0.781,0.160
30.168,-0.609,0.785,0.160
30.178,-0.613,0.789,0.160
30.187,-0.617,0.791,0.160
30.197,-0.615,0.791,0.160
30.207,-0.613,0.787,0.158
30.217,-0.611,0.789,0.160
30.227,-0.611,0.787,0.162
30.237,-0.611,0.783,0.158
30.247,-0.611,0.785,0.156
30.257,-0.613,0.787,0.160
30.267,-0.611,0.783,0.160
30.277,-0.613,0.785,0.158
30.287,-0.613,0.791,0.158
30.297,-0.609,0.787,0.158
30.307,-0.607,0.789,0.162
30.317,-0.609,0.787,0.160
30.326,-0.609,0.787,0.162
30.336,-0.607,0.783,0.162
30.346,-0.613,0.787,0.160
30.356,-0.611,0.787,0.158
30.366,-0.613,0.781,0.162
30.376,-0.613,0.787,0.164
30.386,-0.613,0.791,0.162
30.396,-0.609,0.789,0.162
30.406,-0.609,0.785,0.160
30.416,-0.613,0.783,0.162
30.426,-0.613,0.783,0.162
30.436,-0.611,0.783,0.162
30.446,-0.611,0.787,0.158
30.456,-0.613,0.787,0.160
30.465,-0.613,0.789,0.158
30.475,-0.611,0.793,0.158
30.485,-0.611,0.791,0.162
30.495,-0.611,0.787,0.158
30.505,-0.611,0.787,0.164
30.515,-0.607,0.787,0.160
30.525,-0.609,0.787,0.156
30.535,-0.609,0.785,0.158
30.545,-0.609,0.787,0.156
30.555,-0.607,0.793,0.162
30.565,-0.609,0.789,0.160
30.575,-0.611,0.783,0.162
30.585,-0.611,0.783,0.160
30.595,-0.611,0.783,0.162
30.604,-0.613,0.783,0.158
30.614,-0.617,0.783,0.160
30.624,-0.617,0.785,0.158
30.634,-0.613,0.785,0.158
30.644,-0.617,0.787,0.156
30.654,-0.619,0.787,0.158
30.664,-0.623,0.787,0.162
30.674,-0.615,0.783,0.158
30.684,-0.613,0.785,0.154
30.694,-0.611,0.785,0.152
30.704,-0.607,0.787,0.156
30.714,-0.607,0.785,0.154
30.724,-0.609,0.791,0.160
30.734,-0.609,0.787,0.158
30.743,-0.605,0.789,0.160
30.753,-0.611,0.787,0.162
30.763,-0.613,0.789,0.160
30.773,-0.611,0.787,0.160
30.783,-0.613,0.787,0.162
30.793,-0.615,0.787,0.166
30.803,-0.615,0.785,0.162
30.813,-0.615,0.785,0.166
30.823,-0.615,0.779,0.166
30.833,-0.617,0.779,0.164
30.843,-0.615,0.779,0.164
30.853,-0.613,0.775,0.168
30.863,-0.613,0.777,0.166
30.873,-0.611,0.779,0.164
30.882,-0.615,0.783,0.170
30.892,-0.613,0.783,0.164
30.902,-0.615,0.779,0.168
30.912,-0.617,0.777,0.166
30.922,-0.619,0.781,0.166
30.932,-0.623,0.787,0.164
30.942,-0.619,0.785,0.164
30.952,-0.621,0.785,0.162
30.962,-0.621,0.779,0.166
30.972,-0.619,0.779,0.162
30.982,-0.617,0.775,0.160
30.992,-0.619,0.779,0.158
31.002,-0.617,0.777,0.162
31.012,-0.615,0.781,0.164
31.021,-0.619,0.785,0.160
31.031,-0.617,0.785,0.164
31.041,-0.615,0.785,0.164
31.051,-0.615,0.787,0.164
31.061,-0.611,0.787,0.162
31.071,-0.613,0.785,0.166
31.081,-0.609,0.785,0.162
31.091,-0.611,0.787,0.162
31.101,-0.611,0.785,0.160
31.111,-0.609,0.787,0.164
31.121,-0.609,0.793,0.162
31.131,-0.613,0.791,0.164
31.141,-0.607,0.793,0.166
31.151,-0.607,0.789,0.162
31.160,-0.605,0.787,0.160
31.170,-0.605,0.785,0.162
31.180,-0.607,0.785,0.164
31.190,-0.607,0.789,0.162
31.200,-0.607,0.789,0.160
31.210,-0.609,0.791,0.164
31.220,-0.607,0.793,0.164
31.230,-0.607,0.791,0.162
31.240,-0.609,0.789,0.162
31.250,-0.607,0.789,0.158
31.260,-0.607,0.785,0.162
31.270,-0.607,0.789,0.158
31.280,-0.607,0.787,0.160
31.290,-0.611,0.789,0.162
31.299,-0.609,0.793,0.162
31.309,-0.607,0.785,0.162
31.319,-0.607,0.787,0.160
31.329,-0.607,0.791,0.158
31.339,-0.609,0.789,0.158
31.349,-0.605,0.787,0.158
31.359,-0.609,0.789,0.158
31.369,-0.607,0.787,0.158
31.379,-0.609,0.789,0.158
31.389,-0.609,0.789,0.158
31.399,-0.607,0.793,0.156
31.409,-0.609,0.791,0.156
31.419,-0.609,0.789,0.156
31.428,-0.607,0.791,0.152
31.438,-0.607,0.793,0.154
31.448,-0.609,0.795,0.150
31.458,-0.605,0.791,0.152
31.468,-0.605,0.791,0.152
31.478,-0.604,0.791,0.152
31.488,-0.609,0.789,0.156
31.498,-0.604,0.789,0.158
31.508,-0.607,0.791,0.154
31.518,-0.609,0.789,0.152
31.528,-0.609,0.791,0.156
31.538,-0.611,0.789,0.156
31.548,-0.611,0.789,0.158
31.558,-0.611,0.787,0.156
31.567,-0.615,0.787,0.156
31.577,-0.617,0.789,0.160
31.587,-0.615,0.787,0.160
31.597,-0.613,0.785,0.160
31.607,-0.613,0.781,0.162
31.617,-0.611,0.787,0.162
31.627,-0.613,0.781,0.162
31.637,-0.613,0.783,0.162
31.647,-0.613,0.779,0.158
31.657,-0.613,0.781,0.162
31.667,-0.617,0.787,0.162
31.677,-0.619,0.791,0.160
31.687,-0.617,0.789,0.158
31.697,-0.613,0.783,0.158
31.706,-0.615,0.783,0.160
31.716,-0.617,0.779,0.156
31.726,-0.615,0.781,0.160
31.736,-0.617,0.783,0.160
31.746,-0.613,0.785,0.158
31.756,-0.615,0.785,0.158
31.766,-0.615,0.787,0.162
31.776,-0.613,0.787,0.160
31.786,-0.613,0.787,0.156
31.796,-0.611,0.789,0.158
31.806,-0.611,0.791,0.160
31.816,-0.609,0.785,0.164
31.826,-0.609,0.787,0.158
31.836,-0.607,0.787,0.162
31.845,-0.609,0.783,0.158
31.855,-0.613,0.787,0.162
31.865,-0.607,0.789,0.162
31.875,-0.609,0.791,0.166
31.885,-0.607,0.787,0.166
31.895,-0.609,0.783,0.162
31.905,-0.607,0.785,0.162
31.915,-0.609,0.783,0.162
31.925,-0.611,0.785,0.162
31.935,-0.611,0.789,0.160
31.945,-0.611,0.791,0.158
31.955,-0.613,0.789,0.162
31.965,-0.613,0.789,0.158
31.975,-0.613,0.791,0.162
31.984,-0.609,0.789,0.162
31.994,-0.611,0.789,0.162
32.004,-0.609,0.787,0.160
32.014,-0.607,0.783,0.160
32.024,-0.609,0.785,0.160
32.034,-0.607,0.791,0.158
32.044,-0.605,0.791,0.158
32.054,-0.607,0.791,0.158
32.064,-0.605,0.789,0.162
32.074,-0.605,0.789,0.160
32.084,-0.611,0.787,0.162
32.094,-0.611,0.789,0.160
32.104,-0.611,0.785,0.156
32.114,-0.617,0.785,0.158
32.123,-0.613,0.787,0.154
32.133,-0.615,0.789,0.156
32.143,-0.613,0.785,0.154
32.153,-0.615,0.785,0.156
32.163,-0.613,0.789,0.154
32.173,-0.609,0.787,0.154
32.183,-0.611,0.787,0.156
32.193,-0.609,0.787,0.156
32.203,-0.609,0.791,0.154
32.213,-0.607,0.789,0.156
32.223,-0.607,0.793,0.154
32.233,-0.605,0.789,0.156
32.243,-0.607,0.791,0.156
32.253,-0.609,0.785,0.156
32.262,-0.605,0.785,0.156
32.272,-0.613,0.787,0.160
32.282,-0.611,0.787,0.156
32.292,-0.613,0.787,0.156
32.302,-0.615,0.793,0.158
32.312,-0.617,0.787,0.160
32.322,-0.617,0.785,0.160
32.332,-0.617,0.787,0.160
32.342,-0.613,0.783,0.160
32.352,-0.609,0.781,0.162
32.362,-0.611,0.781,0.160
32.372,-0.609,0.785,0.156
32.382,-0.609,0.787,0.162
32.392,-0.613,0.783,0.162
32.401,-0.613,0.785,0.160
32.411,-0.613,0.781,0.160
32.421,-0.615,0.789,0.158
32.431,-0.615,0.791,0.158
32.441,-0.615,0.793,0.160
32.451,-0.615,0.785,0.160
32.461,-0.617,0.785,0.156
32.471,-0.613,0.781,0.158
32.481,-0.617,0.783,0.156
32.491,-0.615,0.785,0.160
32.501,-0.615,0.787,0.158
32.511,-0.611,0.785,0.156
32.521,-0.609,0.785,0.160
32.531,-0.613,0.789,0.160
32.540,-0.611,0.791,0.156
32.550,-0.609,0.791,0.160
32.560,-0.609,0.789,0.160
32.570,-0.611,0.787,0.160
32.580,-0.611,0.787,0.162
32.590,-0.613,0.785,0.160
32.600,-0.615,0.783,0.160
32.610,-0.613,0.787,0.166
32.620,-0.613,0.789,0.162
32.630,-0.613,0.789,0.162
32.640,-0.611,0.789,0.160
32.650,-0.611,0.785,0.162
32.660,-0.609,0.785,0.162
32.670,-0.611,0.783,0.160
32.679,-0.607,0.787,0.158
32.689,-0.609,0.789,0.160
32.699,-0.609,0.789,0.160
32.709,-0.609,0.789,0.158
32.719,-0.611,0.789,0.164
32.729,-0.607,0.787,0.160
32.739,-0.609,0.791,0.158
32.749,-0.607,0.789,0.158
32.759,-0.609,0.787,0.156
32.769,-0.607,0.785,0.162
32.779,-0.607,0.789,0.160
32.789,-0.607,0.789,0.160
32.799,-0.609,0.793,0.158
32.808,-0.609,0.789,0.162
32.818,-0.609,0.789,0.160
32.828,-0.611,0.785,0.160
32.838,-0.609,0.787,0.160
32.848,-0.609,0.787,0.160
32.858,-0.613,0.787,0.158
32.868,-0.615,0.785,0.162
32.878,-0.615,0.789,0.160
32.888,-0.613,0.787,0.160
32.898,-0.615,0.789,0.156
32.908,-0.611,0.787,0.156
32.918,-0.617,0.789,0.160
32.928,-0.611,0.791,0.158
32.938,-0.613,0.787,0.160
32.947,-0.609,0.787,0.154
32.957,-0.609,0.787,0.156
32.967,-0.609,0.785,0.158
32.977,-0.607,0.789,0.156
32.987,-0.607,0.787,0.158
32.997,-0.609,0.789,0.160
33.007,-0.609,0.787,0.158
33.017,-0.609,0.787,0.158
33.027,-0.609,0.787,0.160
33.037,-0.611,0.783,0.160
33.047,-0.611,0.785,0.160
33.057,-0.613,0.785,0.162
33.067,-0.615,0.783,0.162
33.077,-0.617,0.787,0.160
33.086,-0.617,0.785,0.160
33.096,-0.617,0.785,0.162
33.106,-0.617,0.783,0.164
33.116,-0.617,0.783,0.166
33.126,-0.615,0.783,0.160
33.136,-0.611,0.781,0.162
33.146,-0.615,0.785,0.162
33.156,-0.615,0.785,0.164
33.166,-0.611,0.787,0.162
33.176,-0.613,0.781,0.162
33.186,-0.613,0.781,0.160
33.196,-0.619,0.783,0.158
33.206,-0.619,0.787,0.162
33.216,-0.621,0.789,0.158
33.225,-0.619,0.787,0.160
33.235,-0.619,0.787,0.158
33.245,-0.615,0.783,0.156
33.255,-0.615,0.781,0.152
33.265,-0.615,0.785,0.160
33.275,-0.613,0.783,0.158
33.285,-0.611,0.783,0.160
33.295,-0.615,0.787,0.158
33.305,-0.613,0.787,0.158
33.315,-0.609,0.787,0.160
33.325,-0.609,0.787,0.160
33.335,-0.607,0.789,0.160
33.345,-0.607,0.789,0.162
33.355,-0.609,0.791,0.160
33.364,-0.609,0.785,0.160
33.374,-0.609,0.785,0.158
33.384,-0.607,0.787,0.158
33.394,-0.609,0.787,0.160
33.404,-0.607,0.791,0.158
33.414,-0.607,0.793,0.160
33.424,-0.605,0.789,0.164
33.434,-0.605,0.789,0.162
33.444,-0.609,0.787,0.162
33.454,-0.609,0.791,0.162
33.464,-0.607,0.785,0.162
33.474,-0.611,0.795,0.162
33.484,-0.607,0.793,0.162
33.494,-0.609,0.789,0.154
33.503,-0.607,0.791,0.160
33.513,-0.609,0.789,0.158
33.523,-0.609,0.787,0.160
33.533,-0.609,0.787,0.162
33.543,-0.605,0.787,0.160
33.553,-0.607,0.787,0.162
33.563,-0.611,0.789,0.158
33.573,-0.609,0.789,0.160
33.583,-0.609,0.789,0.162
33.593,-0.611,0.789,0.162
33.603,-0.611,0.785,0.158
33.613,-0.613,0.787,0.164
33.623,-0.611,0.789,0.158
33.633,-0.613,0.787,0.162
33.642,-0.613,0.785,0.160
33.652,-0.615,0.787,0.158
33.662,-0.613,0.785,0.158
33.672,-0.611,0.787,0.158
33.682,-0.611,0.787,0.160
33.692,-0.611,0.789,0.156
33.702,-0.611,0.789,0.158
33.712,-0.609,0.789,0.158
33.722,-0.611,0.789,0.158
33.732,-0.609,0.791,0.158
33.742,-0.609,0.789,0.158
33.752,-0.607,0.789,0.158
33.762,-0.609,0.789,0.156
33.772,-0.609,0.787,0.158
33.781,-0.609,0.791,0.162
33.791,-0.611,0.787,0.160
33.801,-0.609,0.787,0.156
33.811,-0.611,0.789,0.162
33.821,-0.613,0.787,0.158
33.831,-0.615,0.785,0.160
33.841,-0.613,0.787,0.160
33.851,-0.615,0.785,0.160
33.861,-0.615,0.785,0.160
33.871,-0.613,0.787,0.160
33.881,-0.615,0.783,0.162
33.891,-0.615,0.785,0.160
33.901,-0.613,0.783,0.162
33.911,-0.611,0.783,0.164
33.920,-0.613,0.781,0.162
33.930,-0.613,0.785,0.162
33.940,-0.613,0.785,0.164
33.950,-0.613,0.785,0.164
33.960,-0.611,0.783,0.164
33.970,-0.613,0.783,0.160
33.980,-0.615,0.785,0.162
33.990,-0.619,0.791,0.164
34.000,-0.619,0.791,0.162
34.010,-0.619,0.789,0.160
34.020,-0.615,0.789,0.162
34.030,-0.621,0.783,0.158
34.040,-0.615,0.785,0.160
34.050,-0.611,0.781,0.164
34.059,-0.615,0.779,0.162
34.069,-0.615,0.781,0.162
34.079,-0.613,0.785,0.160
34.089,-0.611,0.785,0.162
34.099,-0.611,0.783,0.160
34.109,-0.609,0.787,0.164
34.119,-0.607,0.787,0.162
34.129,-0.607,0.785,0.164
34.139,-0.609,0.789,0.162
34.149,-0.607,0.785,0.160
34.159,-0.609,0.787,0.160
34.169,-0.605,0.787,0.160
34.179,-0.607,0.793,0.158
34.188,-0.605,0.797,0.166
34.198,-0.600,0.795,0.164
34.208,-0.602,0.793,0.158
34.218,-0.602,0.787,0.160
34.228,-0.600,0.791,0.156
34.238,-0.602,0.793,0.158
34.248,-0.604,0.793,0.158
34.258,-0.602,0.795,0.164
34.268,-0.602,0.795,0.160
34.278,-0.602,0.795,0.158
34.288,-0.607,0.791,0.160
34.298,-0.604,0.791,0.160
34.308,-0.607,0.789,0.158
34.318,-0.607,0.787,0.160
34.327,-0.605,0.789,0.162
34.337,-0.605,0.789,0.162
34.347,-0.607,0.787,0.162
34.357,-0.611,0.787,0.164
34.367,-0.607,0.787,0.162
34.377,-0.611,0.789,0.164
34.387,-0.611,0.787,0.162
34.397,-0.613,0.785,0.162
34.407,-0.613,0.783,0.164
34.417,-0.613,0.787,0.162
34.427,-0.615,0.787,0.162
34.437,-0.615,0.787,0.160
34.447,-0.615,0.789,0.160
34.457,-0.613,0.785,0.162
34.466,-0.613,0.787,0.164
34.476,-0.609,0.791,0.158
34.486,-0.609,0.787,0.156
34.496,-0.611,0.789,0.156
34.506,-0.607,0.791,0.156
34.516,-0.607,0.791,0.158
34.526,-0.607,0.793,0.158
34.536,-0.604,0.795,0.154
34.546,-0.605,0.791,0.160
34.556,-0.602,0.789,0.154
34.566,-0.602,0.793,0.154
34.576,-0.604,0.789,0.154
34.586,-0.602,0.793,0.156
34.596,-0.609,0.791,0.154
34.605,-0.611,0.791,0.158
34.615,-0.607,0.789,0.158
34.625,-0.611,0.789,0.160
34.635,-0.609,0.789,0.162
34.645,-0.611,0.789,0.160
34.655,-0.605,0.781,0.160
34.665,-0.609,0.789,0.162
34.675,-0.607,0.787,0.162
34.685,-0.609,0.789,0.160
34.695,-0.613,0.787,0.160
34.705,-0.611,0.785,0.160
34.715,-0.611,0.785,0.160
34.725,-0.609,0.793,0.162
34.735,-0.613,0.791,0.162
34.744,-0.613,0.793,0.162
34.754,-0.613,0.789,0.160
34.764,-0.611,0.785,0.160
34.774,-0.609,0.785,0.154
34.784,-0.609,0.787,0.160
34.794,-0.611,0.785,0.158
34.804,-0.609,0.787,0.160
34.814,-0.611,0.787,0.160
34.824,-0.611,0.789,0.158
34.834,-0.609,0.789,0.156
34.844,-0.607,0.791,0.162
34.854,-0.607,0.791,0.158
34.864,-0.607,0.789,0.160
34.874,-0.604,0.795,0.162
34.883,-0.605,0.791,0.160
34.893,-0.605,0.791,0.158
34.903,-0.604,0.791,0.158
34.913,-0.605,0.787,0.160
34.923,-0.605,0.793,0.158
34.933,-0.611,0.793,0.162
34.943,-0.605,0.793,0.164
34.953,-0.604,0.789,0.162
34.963,-0.607,0.785,0.160
34.973,-0.609,0.789,0.158
34.983,-0.611,0.789,0.160
34.993,-0.611,0.793,0.156
35.003,-0.609,0.793,0.158
35.013,-0.611,0.795,0.156
35.022,-0.613,0.793,0.156
35.032,-0.609,0.795,0.162
35.042,-0.607,0.791,0.156
35.052,-0.605,0.787,0.160
35.062,-0.607,0.791,0.160
35.072,-0.607,0.789,0.158
35.082,-0.607,0.789,0.162
35.092,-0.611,0.789,0.156
35.102,-0.605,0.787,0.162
35.112,-0.609,0.787,0.158
35.122,-0.607,0.789,0.160
35.132,-0.609,0.787,0.162
35.142,-0.611,0.787,0.162
35.152,-0.611,0.787,0.158
35.161,-0.611,0.787,0.160
35.171,-0.611,0.787,0.160
35.181,-0.613,0.789,0.156
35.191,-0.609,0.787,0.162
35.201,-0.611,0.791,0.154
35.211,-0.607,0.787,0.160
35.221,-0.605,0.793,0.154
35.231,-0.607,0.789,0.158
35.241,-0.604,0.791,0.158
35.251,-0.605,0.791,0.158
35.261,-0.605,0.789,0.154
35.271,-0.607,0.793,0.160
35.281,-0.604,0.793,0.158
35.291,-0.609,0.791,0.158
35.300,-0.605,0.795,0.158
35.310,-0.609,0.791,0.158
35.320,-0.609,0.787,0.158
35.330,-0.607,0.791,0.158
35.340,-0.611,0.789,0.156
35.350,-0.611,0.789,0.162
35.360,-0.611,0.787,0.158
35.370,-0.611,0.787,0.156
35.380,-0.611,0.785,0.156
35.390,-0.613,0.785,0.160
35.400,-0.611,0.789,0.162
35.410,-0.609,0.785,0.160
35.420,-0.607,0.787,0.164
35.430,-0.607,0.787,0.164
35.439,-0.605,0.791,0.162
35.449,-0.609,0.789,0.162
35.459,-0.607,0.787,0.160
35.469,-0.609,0.787,0.160
35.479,-0.609,0.789,0.160
35.489,-0.617,0.793,0.160
35.499,-0.617,0.793,0.160
35.509,-0.615,0.791,0.160
35.519,-0.613,0.787,0.160
35.529,-0.611,0.783,0.160
35.539,-0.611,0.783,0.158
35.549,-0.613,0.781,0.158
35.559,-0.613,0.783,0.162
35.568,-0.611,0.783,0.164
35.578,-0.611,0.787,0.158
35.588,-0.613,0.787,0.158
35.598,-0.609,0.787,0.160
35.608,-0.609,0.789,0.160
35.618,-0.609,0.791,0.162
35.628,-0.609,0.787,0.164
35.638,-0.607,0.787,0.162
35.648,-0.605,0.787,0.164
35.658,-0.611,0.787,0.162
35.668,-0.611,0.789,0.164
35.678,-0.605,0.789,0.162
35.688,-0.611,0.793,0.162
35.698,-0.607,0.797,0.162
35.707,-0.607,0.787,0.160
35.717,-0.607,0.789,0.160
35.727,-0.609,0.785,0.158
35.737,-0.611,0.787,0.162
35.747,-0.609,0.787,0.162
35.757,-0.611,0.789,0.160
35.767,-0.613,0.793,0.160
35.777,-0.609,0.791,0.158
35.787,-0.613,0.791,0.160
35.797,-0.609,0.789,0.158
35.807,-0.609,0.789,0.162
35.817,-0.607,0.787,0.160
35.827,-0.607,0.785,0.160
35.837,-0.607,0.789,0.162
35.846,-0.605,0.789,0.160
35.856,-0.609,0.789,0.158
35.866,-0.609,0.791,0.158
35.876,-0.605,0.787,0.160
35.886,-0.607,0.789,0.162
35.896,-0.609,0.789,0.160
35.906,-0.611,0.789,0.158
35.916,-0.613,0.789,0.160
35.926,-0.613,0.785,0.160
35.936,-0.611,0.787,0.162
35.946,-0.609,0.789,0.162
35.956,-0.609,0.789,0.156
35.966,-0.611,0.789,0.160
35.976,-0.609,0.789,0.160
35.985,-0.611,0.789,0.158
35.995,-0.607,0.791,0.156
36.005,-0.607,0.791,0.158
36.015,-0.611,0.791,0.160
36.025,-0.605,0.789,0.156
36.035,-0.605,0.791,0.160
36.045,-0.605,0.789,0.156
36.055,-0.607,0.789,0.156
36.065,-0.607,0.793,0.156
36.075,-0.607,0.789,0.164
36.085,-0.609,0.791,0.162
36.095,-0.607,0.789,0.162
36.105,-0.609,0.787,0.160
36.115,-0.611,0.787,0.160
36.124,-0.609,0.789,0.158
36.134,-0.613,0.791,0.164
36.144,-0.613,0.789,0.160
36.154,-0.611,0.789,0.162
36.164,-0.611,0.783,0.164
36.174,-0.613,0.785,0.162
36.184,-0.613,0.785,0.166
36.194,-0.611,0.783,0.166
36.204,-0.613,0.783,0.158
36.214,-0.611,0.785,0.162
36.224,-0.611,0.787,0.162
36.234,-0.609,0.789,0.164
36.244,-0.609,0.783,0.162
36.254,-0.609,0.787,0.162
36.263,-0.611,0.785,0.164
36.273,-0.611,0.791,0.164
36.283,-0.613,0.793,0.162
36.293,-0.613,0.789,0.164
36.303,-0.613,0.789,0.156
36.313,-0.613,0.789,0.158
36.323,-0.613,0.787,0.158
36.333,-0.611,0.785,0.158
36.343,-0.611,0.785,0.158
36.353,-0.609,0.785,0.158
36.363,-0.609,0.785,0.160
36.373,-0.609,0.785,0.160
36.383,-0.613,0.787,0.160
36.393,-0.609,0.787,0.158
36.402,-0.607,0.791,0.160
36.412,-0.609,0.791,0.160
36.422,-0.611,0.789,0.160
36.432,-0.609,0.787,0.160
36.442,-0.611,0.785,0.160
36.452,-0.611,0.789,0.156
36.462,-0.609,0.785,0.162
36.472,-0.609,0.791,0.162
36.482,-0.607,0.793,0.160
36.492,-0.611,0.789,0.160
36.502,-0.609,0.785,0.160
36.512,-0.609,0.789,0.160
36.522,-0.607,0.789,0.156
36.532,-0.607,0.789,0.158
36.541,-0.609,0.785,0.160
36.551,-0.609,0.789,0.160
36.561,-0.609,0.791,0.160
36.571,-0.607,0.791,0.158
36.581,-0.607,0.789,0.156
36.591,-0.609,0.787,0.158
36.601,-0.609,0.789,0.158
36.611,-0.609,0.787,0.158
36.621,-0.607,0.789,0.160
36.631,-0.605,0.787,0.164
36.641,-0.609,0.789,0.160
36.651,-0.607,0.787,0.162
36.661,-0.609,0.787,0.162
36.671,-0.609,0.787,0.160
36.680,-0.611,0.787,0.158
36.690,-0.611,0.785,0.164
36.700,-0.613,0.787,0.162
36.710,-0.613,0.787,0.158
36.720,-0.611,0.787,0.162
36.730,-0.613,0.787,0.160
36.740,-0.613,0.787,0.158
36.750,-0.617,0.787,0.160
36.760,-0.613,0.789,0.158
36.770,-0.613,0.793,0.156
36.780,-0.611,0.789,0.158
36.790,-0.609,0.789,0.154
36.800,-0.609,0.791,0.158
36.810,-0.607,0.789,0.158
36.819,-0.605,0.789,0.158
36.829,-0.605,0.791,0.154
36.839,-0.607,0.789,0.158
36.849,-0.607,0.787,0.158
36.859,-0.609,0.791,0.158
36.869,-0.609,0.787,0.162
36.879,-0.611,0.793,0.160
36.889,-0.609,0.789,0.162
36.899,-0.607,0.787,0.160
36.909,-0.613,0.787,0.158
36.919,-0.609,0.785,0.160
36.929,-0.613,0.787,0.164
36.939,-0.615,0.785,0.162
36.949,-0.611,0.787,0.160
36.958,-0.615,0.789,0.164
36.968,-0.613,0.785,0.160
36.978,-0.615,0.785,0.164
36.988,-0.615,0.785,0.164
36.998,-0.611,0.783,0.166
37.008,-0.613,0.783,0.158
37.018,-0.609,0.785,0.160
37.028,-0.611,0.787,0.162
37.038,-0.611,0.789,0.162
37.048,-0.611,0.787,0.162
37.058,-0.611,0.783,0.158
37.068,-0.609,0.783,0.162
37.078,-0.611,0.787,0.162
37.087,-0.615,0.795,0.164
37.097,-0.613,0.793,0.162
37.107,-0.611,0.789,0.160
37.117,-0.611,0.787,0.156
37.127,-0.611,0.783,0.156
37.137,-0.611,0.787,0.158
37.147,-0.615,0.787,0.156
37.157,-0.611,0.789,0.158
37.167,-0.609,0.789,0.162
37.177,-0.609,0.789,0.156
37.187,-0.607,0.789,0.158
37.197,-0.607,0.793,0.162
37.207,-0.607,0.791,0.160
37.217,-0.605,0.789,0.162
37.226,-0.607,0.787,0.160
37.236,-0.607,0.785,0.166
37.246,-0.605,0.785,0.164
37.256,-0.609,0.783,0.160
37.266,-0.609,0.787,0.162
37.276,-0.613,0.791,0.162
37.286,-0.613,0.793,0.164
37.296,-0.607,0.791,0.166
37.306,-0.609,0.785,0.162
37.316,-0.609,0.783,0.160
37.326,-0.609,0.785,0.160
37.336,-0.611,0.787,0.160
37.346,-0.613,0.789,0.160
37.356,-0.607,0.791,0.160
37.365,-0.607,0.791,0.162
37.375,-0.609,0.791,0.158
37.385,-0.609,0.791,0.162
37.395,-0.605,0.789,0.160
37.405,-0.609,0.787,0.160
37.415,-0.609,0.787,0.158
37.425,-0.607,0.787,0.160
37.435,-0.607,0.789,0.158
37.445,-0.611,0.787,0.164
37.455,-0.609,0.787,0.162
37.465,-0.611,0.787,0.158
37.475,-0.611,0.791,0.160
37.485,-0.613,0.789,0.160
37.495,-0.609,0.787,0.160
37.504,-0.613,0.787,0.158
37.514,-0.611,0.789,0.160
37.524,-0.613,0.787,0.158
37.534,-0.615,0.785,0.156
37.544,-0.613,0.789,0.158
37.554,-0.611,0.789,0.156
37.564,-0.613,0.791,0.158
37.574,-0.609,0.787,0.158
37.584,-0.609,0.789,0.156
37.594,-0.607,0.789,0.156
37.604,-0.609,0.789,0.156
37.614,-0.609,0.787,0.156
37.624,-0.609,0.789,0.156
37.634,-0.607,0.793,0.156
37.643,-0.609,0.793,0.156
37.653,-0.609,0.787,0.158
37.663,-0.607,0.787,0.156
37.673,-0.607,0.789,0.156
37.683,-0.613,0.789,0.158
37.693,-0.609,0.785,0.158
37.703,-0.611,0.787,0.162
37.713,-0.613,0.783,0.158
37.723,-0.613,0.785,0.162
37.733,-0.613,0.783,0.162
37.743,-0.615,0.785,0.160
37.753,-0.611,0.785,0.162
37.763,-0.607,0.785,0.162
37.773,-0.609,0.785,0.162
37.782,-0.609,0.785,0.162
37.792,-0.611,0.789,0.162
37.802,-0.611,0.787,0.160
37.812,-0.611,0.787,0.162
37.822,-0.613,0.789,0.162
37.832,-0.617,0.789,0.160
37.842,-0.615,0.791,0.164
37.852,-0.613,0.789,0.162
37.862,-0.615,0.787,0.162
37.872,-0.617,0.787,0.158
37.882,-0.615,0.785,0.158
37.892,-0.615,0.785,0.158
37.902,-0.615,0.783,0.162
37.912,-0.611,0.785,0.158
37.921,-0.611,0.787,0.162
37.931,-0.611,0.787,0.162
37.941,-0.609,0.789,0.160
37.951,-0.607,0.791,0.164
37.961,-0.609,0.787,0.162
37.971,-0.607,0.787,0.162
37.981,-0.605,0.787,0.160
37.991,-0.607,0.789,0.160
38.001,-0.609,0.787,0.162
38.011,-0.613,0.785,0.162
38.021,-0.611,0.789,0.164
38.031,-0.611,0.791,0.166
38.041,-0.611,0.793,0.166
38.051,-0.607,0.791,0.158
38.060,-0.607,0.783,0.162
38.070,-0.607,0.785,0.162
38.080,-0.607,0.787,0.160
38.090,-0.611,0.789,0.164
38.100,-0.607,0.793,0.162
38.110,-0.607,0.793,0.164
38.120,-0.607,0.793,0.160
38.130,-0.609,0.791,0.162
38.140,-0.607,0.791,0.166
38.150,-0.605,0.787,0.166
38.160,-0.609,0.787,0.164
38.170,-0.607,0.787,0.164
38.180,-0.605,0.785,0.162
38.190,-0.605,0.787,0.166
38.199,-0.607,0.787,0.166
38.209,-0.609,0.785,0.162
38.219,-0.607,0.785,0.164
38.229,-0.611,0.785,0.162
38.239,-0.613,0.785,0.162
38.249,-0.613,0.779,0.164
38.259,-0.615,0.785,0.160
38.269,-0.613,0.787,0.158
38.279,-0.613,0.783,0.164
38.289,-0.613,0.787,0.160
38.299,-0.615,0.787,0.162
38.309,-0.611,0.787,0.160
38.319,-0.611,0.789,0.158
38.329,-0.611,0.791,0.160
38.338,-0.609,0.791,0.160
38.348,-0.613,0.789,0.160
38.358,-0.611,0.789,0.160
38.368,-0.611,0.791,0.156
38.378,-0.609,0.791,0.158
38.388,-0.607,0.787,0.158
38.398,-0.609,0.789,0.160
38.408,-0.609,0.791,0.156
38.418,-0.609,0.791,0.160
38.428,-0.613,0.789,0.158
38.438,-0.613,0.787,0.158
38.448,-0.615,0.783,0.160
38.458,-0.613,0.787,0.160
38.467,-0.615,0.785,0.160
38.477,-0.609,0.783,0.160
38.487,-0.611,0.783,0.160
38.497,-0.613,0.787,0.162
38.507,-0.611,0.787,0.160
38.517,-0.611,0.787,0.164
38.527,-0.607,0.783,0.162
38.537,-0.609,0.785,0.160
38.547,-0.615,0.787,0.164
38.557,-0.611,0.789,0.162
38.567,-0.613,0.789,0.162
38.577,-0.611,0.789,0.160
38.587,-0.615,0.785,0.160
38.597,-0.613,0.785,0.160
38.606,-0.615,0.783,0.162
38.616,-0.615,0.781,0.158
38.626,-0.611,0.785,0.160
38.636,-0.617,0.787,0.158
38.646,-0.613,0.789,0.158
38.656,-0.613,0.785,0.156
38.666,-0.611,0.785,0.160
38.676,-0.611,0.789,0.158
38.686,-0.613,0.789,0.160
38.696,-0.609,0.787,0.162
38.706,-0.609,0.787,0.158
38.716,-0.611,0.785,0.160
38.726,-0.611,0.787,0.162
38.736,-0.611,0.785,0.160
38.745,-0.611,0.787,0.160
38.755,-0.613,0.791,0.160
38.765,-0.611,0.791,0.162
38.775,-0.609,0.787,0.164
38.785,-0.609,0.785,0.156
38.795,-0.611,0.783,0.156
38.805,-0.613,0.787,0.160
38.815,-0.615,0.789,0.158
38.825,-0.611,0.789,0.158
38.835,-0.609,0.793,0.160
38.845,-0.611,0.791,0.160
38.855,-0.611,0.791,0.158
38.865,-0.611,0.789,0.158
38.875,-0.611,0.787,0.162
38.884,-0.613,0.785,0.160
38.894,-0.609,0.787,0.158
38.904,-0.609,0.787,0.160
38.914,-0.607,0.787,0.160
38.924,-0.609,0.789,0.160
38.934,-0.605,0.787,0.160
38.944,-0.607,0.787,0.162
38.954,-0.607,0.787,0.158
38.964,-0.611,0.785,0.160
38.974,-0.609,0.785,0.162
38.984,-0.611,0.787,0.160
38.994,-0.611,0.789,0.160
39.004,-0.613,0.785,0.158
39.014,-0.607,0.791,0.162
39.023,-0.611,0.787,0.158
39.033,-0.611,0.787,0.160
39.043,-0.613,0.789,0.162
39.053,-0.609,0.791,0.160
39.063,-0.609,0.787,0.156
39.073,-0.609,0.793,0.160
39.083,-0.609,0.791,0.160
39.093,-0.609,0.791,0.156
39.103,-0.605,0.787,0.158
39.113,-0.605,0.789,0.156
39.123,-0.609,0.789,0.158
39.133,-0.605,0.787,0.154
39.143,-0.611,0.791,0.158
39.153,-0.609,0.791,0.160
39.162,-0.611,0.789,0.162
39.172,-0.611,0.789,0.158
39.182,-0.611,0.787,0.160
39.192,-0.611,0.787,0.160
39.202,-0.609,0.785,0.162
39.212,-0.609,0.785,0.158
39.222,-0.609,0.783,0.160
39.232,-0.607,0.789,0.164
39.242,-0.611,0.785,0.162
39.252,-0.611,0.787,0.158
39.262,-0.615,0.779,0.160
39.272,-0.615,0.783,0.164
39.282,-0.615,0.787,0.162
39.292,-0.615,0.789,0.158
39.301,-0.613,0.791,0.166
39.311,-0.613,0.789,0.162
39.321,-0.615,0.787,0.160
39.331,-0.615,0.783,0.158
39.341,-0.615,0.785,0.158
39.351,-0.615,0.785,0.158
39.361,-0.613,0.783,0.162
39.371,-0.617,0.783,0.160
39.381,-0.611,0.787,0.160
39.391,-0.613,0.785,0.158
39.401,-0.611,0.789,0.160
39.411,-0.611,0.789,0.164
39.421,-0.609,0.791,0.160
39.431,-0.607,0.787,0.158
39.440,-0.609,0.785,0.160
39.450,-0.611,0.785,0.166
39.460,-0.615,0.787,0.162
39.470,-0.611,0.785,0.164
39.480,-0.613,0.789,0.164
39.490,-0.611,0.791,0.166
39.500,-0.609,0.787,0.164
39.510,-0.613,0.783,0.164
39.520,-0.611,0.783,0.160
39.530,-0.613,0.787,0.160
39.540,-0.613,0.787,0.164
39.550,-0.611,0.789,0.164
39.560,-0.611,0.791,0.164
39.570,-0.609,0.791,0.162
39.579,-0.609,0.791,0.160
39.589,-0.609,0.787,0.162
39.599,-0.607,0.789,0.160
39.609,-0.609,0.789,0.164
39.619,-0.607,0.789,0.160
39.629,-0.609,0.787,0.160
39.639,-0.611,0.789,0.162
39.649,-0.607,0.789,0.162
39.659,-0.611,0.789,0.162
39.669,-0.607,0.787,0.162
39.679,-0.609,0.787,0.160
39.689,-0.609,0.787,0.164
39.699,-0.611,0.787,0.158
39.709,-0.611,0.785,0.162
39.718,-0.611,0.785,0.160
39.728,-0.611,0.785,0.160
39.738,-0.613,0.787,0.158
39.748,-0.615,0.787,0.162
39.758,-0.615,0.787,0.158
39.768,-0.613,0.787,0.156
39.778,-0.611,0.787,0.162
39.788,-0.613,0.789,0.158
39.798,-0.609,0.787,0.158
39.808,-0.611,0.789,0.158
39.818,-0.609,0.787,0.156
39.828,-0.609,0.787,0.158
39.838,-0.607,0.789,0.158
39.847,-0.609,0.787,0.158
39.857,-0.609,0.791,0.160
39.867,-0.611,0.789,0.158
39.877,-0.611,0.787,0.160
39.887,-0.609,0.787,0.160
39.897,-0.611,0.783,0.160
39.907,-0.611,0.787,0.160
39.917,-0.607,0.787,0.160
39.927,-0.613,0.789,0.162
39.937,-0.613,0.783,0.160
39.947,-0.617,0.785,0.162
39.957,-0.615,0.787,0.162
39.967,-0.611,0.787,0.164
39.977,-0.609,0.783,0.160
39.986,-0.611,0.783,0.162
39.996,-0.611,0.787,0.164
40.006,-0.613,0.791,0.162
40.016,-0.611,0.785,0.164
40.026,-0.609,0.781,0.162
40.036,-0.613,0.785,0.160
40.046,-0.613,0.787,0.158
40.056,-0.617,0.791,0.158
40.066,-0.617,0.791,0.162
40.076,-0.613,0.791,0.158
40.086,-0.617,0.787,0.162
40.096,-0.613,0.785,0.156
40.106,-0.611,0.781,0.158
40.116,-0.615,0.785,0.154
40.125,-0.611,0.783,0.158
40.135,-0.615,0.785,0.160
40.145,-0.615,0.785,0.160
40.155,-0.613,0.789,0.160
40.165,-0.607,0.787,0.160
40.175,-0.609,0.789,0.160
40.185,-0.609,0.787,0.164
40.195,-0.611,0.785,0.164
40.205,-0.609,0.785,0.164
40.215,-0.613,0.783,0.160
40.225,-0.613,0.787,0.164
40.235,-0.613,0.785,0.162
40.245,-0.611,0.787,0.164
40.255,-0.613,0.789,0.160
40.264,-0.613,0.787,0.164
40.274,-0.609,0.783,0.162
40.284,-0.607,0.783,0.160
40.294,-0.609,0.783,0.162
40.304,-0.609,0.787,0.160
40.314,-0.609,0.789,0.160
40.324,-0.611,0.793,0.160
40.334,-0.607,0.789,0.160
40.344,-0.609,0.791,0.164
40.354,-0.609,0.791,0.164
40.364,-0.609,0.787,0.160
40.374,-0.609,0.787,0.160
40.384,-0.609,0.787,0.160
40.394,-0.609,0.787,0.160
40.403,-0.609,0.789,0.164
40.413,-0.609,0.789,0.160
40.423,-0.609,0.787,0.164
40.433,-0.613,0.785,0.164
40.443,-0.613,0.785,0.164
40.453,-0.615,0.785,0.162
40.463,-0.615,0.785,0.162
40.473,-0.617,0.783,0.160
40.483,-0.615,0.781,0.164
40.493,-0.619,0.785,0.158
40.503,-0.617,0.785,0.160
40.513,-0.615,0.785,0.156
40.523,-0.615,0.785,0.162
40.533,-0.617,0.787,0.158
40.542,-0.613,0.787,0.158
40.552,-0.611,0.789,0.156
40.562,-0.611,0.793,0.160
40.572,-0.609,0.791,0.158
40.582,-0.609,0.791,0.156
40.592,-0.607,0.789,0.156
40.602,-0.605,0.789,0.160
40.612,-0.607,0.789,0.160
40.622,-0.607,0.787,0.158
40.632,-0.607,0.787,0.160
40.642,-0.611,0.787,0.158
40.652,-0.609,0.791,0.160
40.662,-0.611,0.789,0.160
40.672,-0.611,0.787,0.156
40.681,-0.611,0.785,0.158
40.691,-0.613,0.785,0.160
40.701,-0.613,0.783,0.160
40.711,-0.619,0.785,0.164
40.721,-0.615,0.785,0.162
40.731,-0.615,0.787,0.162
40.741,-0.613,0.785,0.162
40.751,-0.615,0.783,0.160
40.761,-0.615,0.787,0.160
40.771,-0.615,0.789,0.164
40.781,-0.611,0.783,0.162
40.791,-0.609,0.781,0.162
40.801,-0.611,0.785,0.164
40.811,-0.613,0.787,0.166
40.820,-0.613,0.785,0.162
40.830,-0.613,0.783,0.160
40.840,-0.613,0.781,0.162
40.850,-0.615,0.785,0.162
40.860,-0.615,0.789,0.160
40.870,-0.615,0.791,0.158
40.880,-0.617,0.789,0.158
40.890,-0.615,0.789,0.156
40.900,-0.615,0.783,0.162
40.910,-0.611,0.783,0.158
40.920,-0.611,0.785,0.160
40.930,-0.611,0.783,0.158
40.940,-0.613,0.785,0.162
40.950,-0.613,0.783,0.160
40.959,-0.611,0.787,0.162
40.969,-0.607,0.789,0.162
40.979,-0.609,0.789,0.164
40.989,-0.605,0.787,0.166
40.999,-0.609,0.787,0.168
41.009,-0.607,0.787,0.162
41.019,-0.613,0.787,0.162
41.029,-0.609,0.785,0.166
41.039,-0.611,0.787,0.162
41.049,-0.611,0.787,0.164
41.059,-0.613,0.793,0.164
41.069,-0.609,0.793,0.162
41.079,-0.605,0.785,0.162
41.089,-0.609,0.787,0.160
41.098,-0.609,0.787,0.162
41.108,-0.613,0.789,0.160
41.118,-0.611,0.789,0.162
41.128,-0.611,0.791,0.164
41.138,-0.611,0.791,0.158
41.148,-0.607,0.793,0.158
41.158,-0.609,0.793,0.160
41.168,-0.609,0.789,0.162
41.178,-0.609,0.787,0.162
41.188,-0.607,0.787,0.160
41.198,-0.611,0.787,0.158
41.208,-0.607,0.787,0.160
41.218,-0.607,0.787,0.160
41.227,-0.609,0.787,0.162
41.237,-0.611,0.787,0.164
41.247,-0.609,0.789,0.160
41.257,-0.611,0.785,0.164
41.267,-0.613,0.785,0.164
41.277,-0.611,0.783,0.160
41.287,-0.613,0.783,0.162
41.297,-0.613,0.783,0.158
41.307,-0.611,0.785,0.158
41.317,-0.613,0.789,0.158
41.327,-0.611,0.787,0.158
41.337,-0.613,0.793,0.162
41.347,-0.609,0.789,0.156
41.357,-0.609,0.789,0.158
41.366,-0.609,0.791,0.156
41.376,-0.607,0.789,0.160
41.386,-0.605,0.789,0.156
41.396,-0.609,0.789,0.160
41.406,-0.605,0.791,0.158
41.416,-0.607,0.789,0.156
41.426,-0.607,0.789,0.160
41.436,-0.607,0.789,0.158
41.446,-0.609,0.791,0.160
41.456,-0.611,0.789,0.160
41.466,-0.611,0.785,0.160
41.476,-0.611,0.787,0.162
41.486,-0.611,0.787,0.160
41.496,-0.609,0.787,0.160
41.505,-0.611,0.785,0.160
41.515,-0.611,0.787,0.162
41.525,-0.609,0.787,0.160
41.535,-0.613,0.789,0.162
41.545,-0.611,0.785,0.162
41.555,-0.613,0.785,0.162
41.565,-0.611,0.791,0.162
41.575,-0.611,0.789,0.166
41.585,-0.607,0.785,0.162
41.595,-0.609,0.785,0.168
41.605,-0.605,0.785,0.160
41.615,-0.609,0.789,0.162
41.625,-0.613,0.787,0.162
41.635,-0.611,0.785,0.168
41.644,-0.613,0.787,0.162
41.654,-0.615,0.791,0.160
41.664,-0.617,0.791,0.162
41.674,-0.615,0.791,0.162
41.684,-0.615,0.787,0.162
41.694,-0.613,0.787,0.162
41.704,-0.613,0.785,0.162
41.714,-0.609,0.781,0.162
41.724,-0.613,0.783,0.160
41.734,-0.613,0.781,0.160
41.744,-0.611,0.787,0.160
41.754,-0.613,0.787,0.162
41.764,-0.613,0.787,0.160
41.774,-0.611,0.787,0.162
41.783,-0.609,0.787,0.164
41.793,-0.611,0.791,0.164
41.803,-0.607,0.787,0.164
41.813,-0.611,0.787,0.162
41.823,-0.609,0.785,0.162
41.833,-0.611,0.787,0.164
41.843,-0.613,0.785,0.166
41.853,-0.611,0.789,0.162
41.863,-0.613,0.789,0.160
41.873,-0.611,0.793,0.166
41.883,-0.609,0.785,0.160
41.893,-0.609,0.785,0.160
41.903,-0.609,0.783,0.160
41.913,-0.611,0.781,0.162
41.922,-0.613,0.785,0.162
41.932,-0.609,0.787,0.164
41.942,-0.609,0.791,0.160
41.952,-0.611,0.791,0.158
41.962,-0.609,0.789,0.160
41.972,-0.609,0.787,0.162
41.982,-0.611,0.789,0.160
41.992,-0.613,0.787,0.160
42.002,-0.609,0.787,0.160
42.012,-0.609,0.787,0.162
42.022,-0.609,0.787,0.158
42.032,-0.605,0.789,0.158
42.042,-0.607,0.787,0.160
42.052,-0.611,0.793,0.158
42.061,-0.611,0.787,0.158
42.071,-0.611,0.787,0.160
42.081,-0.611,0.787,0.158
42.091,-0.611,0.787,0.158
42.101,-0.613,0.787,0.156
42.111,-0.613,0.787,0.160
42.121,-0.613,0.789,0.156
42.131,-0.609,0.791,0.154
42.141,-0.611,0.789,0.158
42.151,-0.609,0.789,0.158
42.161,-0.611,0.789,0.158
42.171,-0.609,0.791,0.152
42.181,-0.609,0.791,0.156
42.191,-0.609,0.791,0.156
42.200,-0.609,0.791,0.160
42.210,-0.607,0.793,0.154
42.220,-0.609,0.787,0.156
42.230,-0.605,0.789,0.158
42.240,-0.609,0.787,0.158
42.250,-0.611,0.789,0.158
42.260,-0.613,0.787,0.156
42.270,-0.613,0.789,0.160
42.280,-0.615,0.785,0.162
42.290,-0.615,0.787,0.162
42.300,-0.619,0.783,0.164
42.310,-0.615,0.783,0.158
42.320,-0.619,0.779,0.162
42.330,-0.617,0.781,0.162
42.339,-0.619,0.783,0.166
42.349,-0.617,0.783,0.162
42.359,-0.619,0.783,0.162
42.369,-0.617,0.785,0.164
42.379,-0.617,0.785,0.164
42.389,-0.615,0.781,0.170
42.399,-0.613,0.783,0.164
42.409,-0.611,0.785,0.162
42.419,-0.611,0.785,0.166
42.429,-0.611,0.785,0.164
42.439,-0.609,0.785,0.164
42.449,-0.609,0.785,0.162
42.459,-0.611,0.781,0.162
42.469,-0.611,0.781,0.160
42.478,-0.615,0.787,0.162
42.488,-0.615,0.789,0.160
42.498,-0.611,0.787,0.162
42.508,-0.611,0.787,0.160
42.518,-0.609,0.785,0.158
42.528,-0.609,0.785,0.156
42.538,-0.613,0.783,0.160
42.548,-0.613,0.785,0.156
42.558,-0.609,0.785,0.158
42.568,-0.611,0.787,0.162
42.578,-0.611,0.789,0.160
42.588,-0.607,0.789,0.160
42.598,-0.605,0.789,0.162
42.607,-0.611,0.787,0.158
42.617,-0.607,0.789,0.162
42.627,-0.609,0.789,0.162
42.637,-0.611,0.785,0.162
42.647,-0.613,0.787,0.162
42.657,-0.611,0.789,0.164
42.667,-0.611,0.787,0.164
42.677,-0.613,0.791,0.162
42.687,-0.611,0.793,0.164
42.697,-0.607,0.789,0.162
42.707,-0.609,0.783,0.160
42.717,-0.611,0.783,0.162
42.727,-0.609,0.785,0.164
42.737,-0.611,0.787,0.160
42.746,-0.609,0.791,0.160
42.756,-0.613,0.791,0.162
42.766,-0.611,0.791,0.160
42.776,-0.615,0.789,0.160
42.786,-0.611,0.791,0.160
42.796,-0.609,0.787,0.160
42.806,-0.609,0.787,0.162
42.816,-0.607,0.789,0.160
42.826,-0.607,0.787,0.156
42.836,-0.604,0.791,0.156
42.846,-0.609,0.783,0.158
42.856,-0.617,0.789,0.162
42.866,-0.611,0.789,0.158
42.876,-0.609,0.789,0.162
42.885,-0.609,0.787,0.154
42.895,-0.611,0.787,0.158
42.905,-0.613,0.787,0.160
42.915,-0.611,0.787,0.158
42.925,-0.615,0.785,0.158
42.935,-0.619,0.787,0.162
42.945,-0.611,0.787,0.156
42.955,-0.611,0.789,0.156
42.965,-0.611,0.789,0.158
42.975,-0.613,0.789,0.154
42.985,-0.613,0.789,0.156
42.995,-0.611,0.789,0.158
43.005,-0.609,0.791,0.156
43.015,-0.611,0.789,0.158
43.024,-0.609,0.787,0.154
43.034,-0.609,0.789,0.158
43.044,-0.611,0.789,0.154
43.054,-0.609,0.787,0.156
43.064,-0.611,0.787,0.158
43.074,-0.613,0.785,0.160
43.084,-0.611,0.787,0.158
43.094,-0.617,0.785,0.162
43.104,-0.615,0.787,0.160
43.114,-0.613,0.781,0.160
43.124,-0.613,0.783,0.164
43.134,-0.613,0.785,0.162
43.144,-0.613,0.783,0.162
43.154,-0.613,0.783,0.160
43.163,-0.617,0.783,0.164
43.173,-0.617,0.785,0.160
43.183,-0.615,0.785,0.164
43.193,-0.619,0.785,0.162
43.203,-0.617,0.787,0.162
43.213,-0.615,0.783,0.164
43.223,-0.613,0.783,0.162
43.233,-0.615,0.785,0.164
43.243,-0.613,0.785,0.164
43.253,-0.609,0.783,0.162
43.263,-0.611,0.787,0.166
43.273,-0.611,0.787,0.164
43.283,-0.611,0.787,0.164
43.293,-0.613,0.785,0.162
43.302,-0.613,0.783,0.164
43.312,-0.615,0.785,0.164
43.322,-0.615,0.787,0.162
43.332,-0.617,0.791,0.164
43.342,-0.615,0.787,0.160
43.352,-0.611,0.789,0.158
43.362,-0.615,0.785,0.156
43.372,-0.613,0.785,0.162
43.382,-0.611,0.781,0.156
43.392,-0.613,0.785,0.158
43.402,-0.609,0.783,0.158
43.412,-0.611,0.783,0.158
43.422,-0.609,0.787,0.160
43.432,-0.611,0.787,0.162
43.441,-0.613,0.789,0.158
43.451,-0.611,0.791,0.162
43.461,-0.611,0.789,0.160
43.471,-0.611,0.787,0.160
43.481,-0.611,0.789,0.164
43.491,-0.613,0.787,0.162
43.501,-0.613,0.785,0.162
43.511,-0.609,0.785,0.160
43.521,-0.613,0.787,0.162
43.531,-0.611,0.791,0.162
43.541,-0.607,0.791,0.162
43.551,-0.605,0.785,0.158
43.561,-0.604,0.785,0.160
43.571,-0.607,0.787,0.160
43.580,-0.609,0.791,0.158
43.590,-0.609,0.789,0.158
43.600,-0.609,0.793,0.160
43.610,-0.609,0.791,0.158
43.620,-0.611,0.787,0.160
43.630,-0.613,0.791,0.156
43.640,-0.613,0.787,0.160
43.650,-0.613,0.789,0.158
43.660,-0.615,0.785,0.158
43.670,-0.613,0.787,0.162
43.680,-0.613,0.787,0.158
43.690,-0.611,0.787,0.162
43.700,-0.613,0.785,0.158
43.710,-0.607,0.787,0.162
43.719,-0.611,0.787,0.160
43.729,-0.613,0.787,0.162
43.739,-0.611,0.785,0.160
43.749,-0.611,0.785,0.158
43.759,-0.611,0.787,0.160
43.769,-0.613,0.787,0.162
43.779,-0.613,0.789,0.162
43.789,-0.613,0.787,0.156
43.799,-0.613,0.787,0.160
43.809,-0.611,0.789,0.162
43.819,-0.611,0.789,0.158
43.829,-0.607,0.791,0.158
43.839,-0.609,0.789,0.154
43.849,-0.607,0.793,0.158
43.858,-0.609,0.791,0.158
43.868,-0.607,0.791,0.158
43.878,-0.607,0.791,0.156
43.888,-0.607,0.787,0.158
43.898,-0.611,0.791,0.162
43.908,-0.609,0.787,0.162
43.918,-0.613,0.787,0.162
43.928,-0.611,0.785,0.164
43.938,-0.611,0.787,0.162
43.948,-0.611,0.785,0.160
43.958,-0.611,0.787,0.162
43.968,-0.611,0.789,0.164
43.978,-0.613,0.785,0.164
43.987,-0.615,0.785,0.164
43.997,-0.615,0.785,0.162
44.007,-0.615,0.787,0.166
44.017,-0.615,0.783,0.164
44.027,-0.615,0.787,0.162
44.037,-0.613,0.785,0.160
44.047,-0.611,0.789,0.166
44.057,-0.617,0.785,0.162
44.067,-0.611,0.785,0.162
44.077,-0.613,0.787,0.160
44.087,-0.609,0.785,0.164
44.097,-0.611,0.789,0.160
44.107,-0.611,0.791,0.164
44.117,-0.607,0.793,0.160
44.126,-0.609,0.785,0.162
44.136,-0.611,0.785,0.162
44.146,-0.611,0.791,0.166
44.156,-0.607,0.787,0.160
44.166,-0.607,0.785,0.162
44.176,-0.611,0.787,0.164
44.186,-0.605,0.789,0.164
44.196,-0.613,0.791,0.162
44.206,-0.611,0.787,0.162
44.216,-0.611,0.785,0.162
44.226,-0.611,0.787,0.164
44.236,-0.611,0.791,0.162
44.246,-0.613,0.793,0.160
44.256,-0.615,0.793,0.160
44.265,-0.611,0.789,0.156
44.275,-0.615,0.787,0.160
44.285,-0.611,0.783,0.158
44.295,-0.615,0.787,0.156
44.305,-0.611,0.787,0.158
44.315,-0.609,0.787,0.162
44.325,-0.609,0.787,0.158
44.335,-0.611,0.787,0.158
44.345,-0.613,0.787,0.160
44.355,-0.609,0.789,0.162
44.365,-0.607,0.789,0.162
44.375,-0.609,0.787,0.162
44.385,-0.607,0.787,0.164
44.395,-0.613,0.787,0.162
44.404,-0.613,0.783,0.164
44.414,-0.615,0.785,0.164
44.424,-0.615,0.783,0.164
44.434,-0.613,0.789,0.168
44.444,-0.615,0.789,0.164
44.454,-0.613,0.789,0.164
44.464,-0.615,0.785,0.166
44.474,-0.617,0.779,0.162
44.484,-0.617,0.783,0.162
44.494,-0.619,0.783,0.162
44.504,-0.615,0.783,0.158
44.514,-0.621,0.783,0.160
44.524,-0.617,0.787,0.158
44.534,-0.613,0.787,0.160
44.543,-0.615,0.785,0.158
44.553,-0.611,0.789,0.162
44.563,-0.611,0.785,0.160
44.573,-0.607,0.787,0.164
44.583,-0.607,0.787,0.164
44.593,-0.605,0.791,0.166
44.603,-0.607,0.789,0.162
44.613,-0.605,0.789,0.166
44.623,-0.609,0.789,0.162
44.633,-0.611,0.785,0.162
44.643,-0.611,0.785,0.162
44.653,-0.615,0.783,0.164
44.663,-0.619,0.783,0.162
44.673,-0.619,0.783,0.164
44.682,-0.617,0.783,0.162
44.692,-0.617,0.785,0.160
44.702,-0.615,0.783,0.164
44.712,-0.617,0.787,0.162
44.722,-0.617,0.785,0.158
44.732,-0.615,0.785,0.164
44.742,-0.617,0.787,0.160
44.752,-0.617,0.785,0.160
44.762,-0.613,0.785,0.160
44.772,-0.611,0.789,0.160
44.782,-0.611,0.789,0.162
44.792,-0.611,0.787,0.160
44.802,-0.607,0.789,0.156
44.812,-0.611,0.787,0.160
44.821,-0.611,0.787,0.160
44.831,-0.611,0.789,0.164
44.841,-0.613,0.785,0.164
44.851,-0.613,0.785,0.162
44.861,-0.611,0.787,0.162
44.871,-0.617,0.787,0.164
44.881,-0.615,0.785,0.164
44.891,-0.611,0.783,0.164
44.901,-0.613,0.785,0.164
44.911,-0.615,0.783,0.164
44.921,-0.615,0.785,0.164
44.931,-0.617,0.785,0.164
44.941,-0.619,0.783,0.168
44.951,-0.613,0.783,0.162
44.960,-0.613,0.783,0.164
44.970,-0.615,0.785,0.162
44.980,-0.613,0.781,0.162
44.990,-0.615,0.783,0.166
45.000,-0.619,0.787,0.172
45.010,-0.615,0.785,0.164
45.020,-0.615,0.785,0.160
45.030,-0.615,0.783,0.166
45.040,-0.615,0.785,0.162
45.050,-0.613,0.783,0.166
45.060,-0.615,0.781,0.166
45.070,-0.611,0.783,0.164
45.080,-0.611,0.783,0.166
45.090,-0.613,0.787,0.164
45.099,-0.613,0.787,0.166
45.109,-0.609,0.781,0.164
45.119,-0.611,0.785,0.162
45.129,-0.611,0.787,0.162
45.139,-0.615,0.787,0.166
45.149,-0.617,0.789,0.164
45.159,-0.615,0.789,0.160
45.169,-0.613,0.785,0.158
45.179,-0.615,0.785,0.160
45.189,-0.613,0.785,0.160
45.199,-0.613,0.783,0.158
45.209,-0.613,0.785,0.158
45.219,-0.613,0.783,0.158
45.229,-0.613,0.785,0.162
45.238,-0.611,0.787,0.162
45.248,-0.611,0.787,0.160
45.258,-0.611,0.789,0.158
45.268,-0.609,0.789,0.160
45.278,-0.607,0.789,0.162
45.288,-0.607,0.785,0.160
45.298,-0.609,0.785,0.164
45.308,-0.611,0.787,0.164
45.318,-0.615,0.787,0.164
45.328,-0.615,0.781,0.164
45.338,-0.613,0.783,0.164
45.348,-0.617,0.789,0.162
45.358,-0.615,0.789,0.162
45.368,-0.615,0.785,0.164
45.377,-0.617,0.781,0.162
45.387,-0.615,0.781,0.160
45.397,-0.615,0.785,0.162
45.407,-0.615,0.789,0.162
45.417,-0.621,0.787,0.164
45.427,-0.615,0.789,0.160
45.437,-0.613,0.789,0.158
45.447,-0.617,0.791,0.160
45.457,-0.617,0.789,0.160
45.467,-0.613,0.787,0.158
45.477,-0.615,0.787,0.160
45.487,-0.609,0.785,0.160
45.497,-0.611,0.787,0.162
45.506,-0.609,0.785,0.160
45.516,-0.611,0.787,0.160
45.526,-0.609,0.785,0.162
45.536,-0.611,0.785,0.162
45.546,-0.611,0.787,0.162
45.556,-0.615,0.785,0.158
45.566,-0.615,0.785,0.162
45.576,-0.613,0.785,0.158
45.586,-0.613,0.785,0.162
45.596,-0.615,0.787,0.158
45.606,-0.615,0.785,0.158
45.616,-0.615,0.785,0.158
45.626,-0.611,0.785,0.160
45.636,-0.615,0.787,0.160
45.645,-0.615,0.787,0.156
45.655,-0.611,0.787,0.156
45.665,-0.611,0.787,0.158
45.675,-0.611,0.789,0.160
45.685,-0.607,0.789,0.164
45.695,-0.607,0.787,0.162
45.705,-0.609,0.785,0.160
45.715,-0.611,0.787,0.160
45.725,-0.613,0.783,0.158
45.735,-0.613,0.785,0.162
45.745,-0.617,0.787,0.160
45.755,-0.613,0.785,0.162
45.765,-0.617,0.785,0.164
45.775,-0.615,0.787,0.162
45.784,-0.617,0.785,0.162
45.794,-0.617,0.783,0.160
45.804,-0.615,0.783,0.164
45.814,-0.617,0.787,0.164
45.824,-0.615,0.781,0.164
45.834,-0.617,0.783,0.164
45.844,-0.617,0.781,0.166
45.854,-0.619,0.785,0.164
45.864,-0.617,0.785,0.166
45.874,-0.619,0.783,0.166
45.884,-0.617,0.783,0.162
45.894,-0.619,0.781,0.164
45.904,-0.617,0.781,0.166
45.914,-0.615,0.783,0.162
45.923,-0.615,0.783,0.162
45.933,-0.613,0.787,0.162
45.943,-0.615,0.785,0.164
45.953,-0.615,0.787,0.164
45.963,-0.613,0.787,0.162
45.973,-0.611,0.785,0.162
45.983,-0.615,0.785,0.160
45.993,-0.615,0.787,0.164
46.003,-0.619,0.789,0.164
46.013,-0.615,0.789,0.162
46.023,-0.615,0.785,0.162
46.033,-0.615,0.785,0.156
46.043,-0.613,0.783,0.158
46.053,-0.613,0.781,0.162
46.062,-0.615,0.783,0.158
46.072,-0.617,0.783,0.160
46.082,-0.615,0.783,0.162
46.092,-0.615,0.781,0.160
46.102,-0.613,0.783,0.160
46.112,-0.617,0.785,0.164
46.122,-0.615,0.787,0.162
46.132,-0.613,0.789,0.162
46.142,-0.613,0.785,0.164
46.152,-0.615,0.787,0.162
46.162,-0.613,0.787,0.160
46.172,-0.613,0.785,0.158
46.182,-0.617,0.787,0.162
46.192,-0.613,0.785,0.168
46.201,-0.619,0.789,0.166
46.211,-0.617,0.789,0.166
46.221,-0.609,0.783,0.162
46.231,-0.609,0.779,0.162
46.241,-0.611,0.781,0.160
46.251,-0.609,0.785,0.162
46.261,-0.611,0.783,0.160
46.271,-0.615,0.787,0.158
46.281,-0.613,0.791,0.158
46.291,-0.615,0.791,0.158
46.301,-0.611,0.791,0.154
46.311,-0.613,0.789,0.160
46.321,-0.609,0.789,0.158
46.331,-0.609,0.785,0.158
46.340,-0.611,0.789,0.160
46.350,-0.609,0.789,0.158
46.360,-0.611,0.789,0.160
46.370,-0.609,0.789,0.160
46.380,-0.611,0.787,0.158
46.390,-0.611,0.789,0.160
46.400,-0.613,0.787,0.158
46.410,-0.613,0.791,0.156
46.420,-0.611,0.787,0.158
46.430,-0.613,0.785,0.160
46.440,-0.615,0.785,0.156
46.450,-0.613,0.787,0.156
46.460,-0.611,0.789,0.158
46.470,-0.611,0.791,0.158
46.479,-0.613,0.789,0.160
46.489,-0.613,0.791,0.154
46.499,-0.611,0.789,0.156
46.509,-0.611,0.789,0.158
46.519,-0.609,0.789,0.156
46.529,-0.609,0.789,0.158
46.539,-0.607,0.791,0.156
46.549,-0.607,0.791,0.158
46.559,-0.605,0.793,0.158
46.569,-0.605,0.793,0.160
46.579,-0.609,0.793,0.160
46.589,-0.607,0.789,0.158
46.599,-0.607,0.787,0.160
46.609,-0.607,0.785,0.160
46.618,-0.609,0.789,0.160
46.628,-0.613,0.787,0.160
46.638,-0.609,0.787,0.162
46.648,-0.613,0.787,0.160
46.658,-0.611,0.785,0.160
46.668,-0.613,0.785,0.162
46.678,-0.615,0.781,0.166
46.688,-0.615,0.785,0.164
46.698,-0.613,0.781,0.162
46.708,-0.613,0.783,0.164
46.718,-0.611,0.785,0.164
46.728,-0.615,0.787,0.162
46.738,-0.615,0.789,0.164
46.748,-0.615,0.785,0.160
46.757,-0.613,0.787,0.162
46.767,-0.617,0.785,0.164
46.777,-0.617,0.787,0.162
46.787,-0.619,0.787,0.164
46.797,-0.617,0.787,0.156
46.807,-0.613,0.785,0.160
46.817,-0.613,0.783,0.162
46.827,-0.613,0.781,0.160
46.837,-0.615,0.783,0.158
46.847,-0.615,0.783,0.160
46.857,-0.615,0.785,0.160
46.867,-0.613,0.785,0.160
46.877,-0.617,0.785,0.156
46.886,-0.613,0.789,0.156
46.896,-0.611,0.785,0.162
46.906,-0.613,0.789,0.160
46.916,-0.607,0.787,0.160
46.926,-0.609,0.791,0.160
46.936,-0.609,0.787,0.160
46.946,-0.613,0.785,0.160
46.956,-0.615,0.785,0.160
46.966,-0.613,0.787,0.160
46.976,-0.613,0.791,0.160
46.986,-0.611,0.789,0.158
46.996,-0.613,0.791,0.160
47.006,-0.611,0.783,0.158
47.016,-0.607,0.781,0.160
47.025,-0.609,0.783,0.158
47.035,-0.611,0.787,0.162
47.045,-0.611,0.789,0.160
47.055,-0.611,0.789,0.158
47.065,-0.609,0.789,0.158
47.075,-0.613,0.789,0.156
47.085,-0.609,0.789,0.158
47.095,-0.611,0.789,0.156
47.105,-0.609,0.787,0.160
47.115,-0.615,0.789,0.154
47.125,-0.609,0.791,0.158
47.135,-0.611,0.787,0.156
47.145,-0.611,0.791,0.160
47.155,-0.611,0.789,0.162
47.164,-0.611,0.789,0.158
47.174,-0.611,0.789,0.160
47.184,-0.609,0.789,0.158
47.194,-0.609,0.787,0.160
47.204,-0.613,0.785,0.160
47.214,-0.613,0.787,0.158
47.224,-0.617,0.785,0.158
47.234,-0.619,0.789,0.160
47.244,-0.613,0.787,0.156
47.254,-0.609,0.791,0.158
47.264,-0.609,0.791,0.156
47.274,-0.609,0.789,0.160
47.284,-0.607,0.789,0.156
47.294,-0.607,0.787,0.156
47.303,-0.605,0.789,0.152
47.313,-0.607,0.791,0.156
47.323,-0.604,0.791,0.156
47.333,-0.613,0.789,0.158
47.343,-0.611,0.787,0.156
47.353,-0.611,0.789,0.160
47.363,-0.613,0.787,0.158
47.373,-0.613,0.787,0.160
47.383,-0.617,0.787,0.160
47.393,-0.619,0.787,0.158
47.403,-0.615,0.787,0.162
47.413,-0.617,0.785,0.158
47.423,-0.615,0.781,0.164
47.433,-0.617,0.781,0.162
47.442,-0.617,0.787,0.166
47.452,-0.615,0.783,0.164
47.462,-0.615,0.781,0.162
47.472,-0.615,0.779,0.160
47.482,-0.613,0.781,0.162
47.492,-0.613,0.783,0.164
47.502,-0.617,0.781,0.164
47.512,-0.617,0.783,0.162
47.522,-0.615,0.783,0.164
47.532,-0.617,0.787,0.166
47.542,-0.615,0.789,0.162
47.552,-0.617,0.791,0.162
47.562,-0.613,0.789,0.162
47.572,-0.611,0.785,0.158
47.581,-0.613,0.785,0.158
47.591,-0.611,0.783,0.158
47.601,-0.607,0.785,0.158
47.611,-0.604,0.785,0.162
47.621,-0.607,0.787,0.160
47.631,-0.609,0.789,0.160
47.641,-0.609,0.787,0.154
47.651,-0.607,0.789,0.160
47.661,-0.609,0.791,0.160
47.671,-0.613,0.791,0.160
47.681,-0.611,0.789,0.160
47.691,-0.613,0.789,0.162
47.701,-0.613,0.789,0.158
47.711,-0.613,0.787,0.160
47.720,-0.615,0.785,0.162
47.730,-0.615,0.787,0.164
47.740,-0.615,0.791,0.160
47.750,-0.615,0.791,0.162
47.760,-0.615,0.785,0.162
47.770,-0.611,0.783,0.160
47.780,-0.613,0.785,0.158
47.790,-0.613,0.783,0.162
47.800,-0.613,0.785,0.158
47.810,-0.617,0.785,0.158
47.820,-0.617,0.787,0.162
47.830,-0.617,0.787,0.162
47.840,-0.617,0.789,0.158
47.850,-0.615,0.787,0.162
47.859,-0.613,0.785,0.158
47.869,-0.611,0.785,0.158
47.879,-0.609,0.789,0.158
47.889,-0.609,0.789,0.162
47.899,-0.607,0.789,0.158
47.909,-0.611,0.789,0.162
47.919,-0.609,0.789,0.162
47.929,-0.609,0.789,0.162
47.939,-0.609,0.787,0.160
47.949,-0.611,0.787,0.162
47.959,-0.615,0.785,0.158
47.969,-0.617,0.785,0.160
47.979,-0.615,0.787,0.158
47.989,-0.615,0.789,0.158
47.998,-0.613,0.787,0.162
48.008,-0.617,0.787,0.154
48.018,-0.615,0.787,0.154
48.028,-0.613,0.787,0.158
48.038,-0.615,0.787,0.156
48.048,-0.613,0.789,0.156
48.058,-0.611,0.787,0.154
48.068,-0.613,0.789,0.156
48.078,-0.611,0.789,0.158
48.088,-0.615,0.789,0.156
48.098,-0.611,0.789,0.158
48.108,-0.615,0.787,0.160
48.118,-0.613,0.789,0.158
48.128,-0.613,0.787,0.156
48.137,-0.611,0.785,0.160
48.147,-0.613,0.785,0.158
48.157,-0.615,0.787,0.158
48.167,-0.615,0.787,0.158
48.177,-0.617,0.785,0.160
48.187,-0.615,0.787,0.160
48.197,-0.619,0.783,0.162
48.207,-0.617,0.783,0.164
48.217,-0.619,0.783,0.164
48.227,-0.615,0.785,0.164
48.237,-0.615,0.785,0.162
48.247,-0.615,0.783,0.166
48.257,-0.615,0.783,0.160
48.266,-0.611,0.785,0.164
48.276,-0.615,0.785,0.164
48.286,-0.613,0.785,0.164
48.296,-0.615,0.781,0.162
48.306,-0.615,0.785,0.160
48.316,-0.617,0.789,0.160
48.326,-0.617,0.787,0.162
48.336,-0.615,0.787,0.160
48.346,-0.611,0.789,0.160
48.356,-0.615,0.781,0.158
48.366,-0.611,0.777,0.158
48.376,-0.613,0.781,0.160
48.386,-0.609,0.781,0.162
48.396,-0.611,0.783,0.162
48.405,-0.619,0.785,0.168
48.415,-0.615,0.785,0.158
48.425,-0.609,0.791,0.162
48.435,-0.611,0.789,0.162
48.445,-0.621,0.789,0.170
48.455,-0.617,0.789,0.156
48.465,-0.611,0.787,0.160
48.475,-0.615,0.785,0.160
48.485,-0.617,0.785,0.162
48.495,-0.615,0.785,0.156
48.505,-0.609,0.789,0.158
48.515,-0.609,0.793,0.162
48.525,-0.607,0.791,0.162
48.535,-0.607,0.793,0.160
48.544,-0.605,0.785,0.164
48.554,-0.604,0.785,0.158
48.564,-0.609,0.789,0.162
48.574,-0.609,0.787,0.160
48.584,-0.613,0.791,0.156
48.594,-0.611,0.789,0.158
48.604,-0.609,0.793,0.158
48.614,-0.609,0.791,0.156
48.624,-0.611,0.791,0.156
48.634,-0.613,0.789,0.156
48.644,-0.611,0.785,0.156
48.654,-0.609,0.789,0.154
48.664,-0.607,0.789,0.154
48.674,-0.607,0.789,0.158
48.683,-0.605,0.789,0.156
48.693,-0.609,0.787,0.156
48.703,-0.609,0.791,0.158
48.713,-0.615,0.787,0.160
48.723,-0.611,0.787,0.160
48.733,-0.609,0.787,0.158
48.743,-0.613,0.783,0.156
48.753,-0.613,0.785,0.154
48.763,-0.615,0.787,0.156
48.773,-0.615,0.785,0.156
48.783,-0.615,0.787,0.154
48.793,-0.617,0.791,0.154
48.803,-0.615,0.791,0.156
48.813,-0.615,0.791,0.154
48.822,-0.615,0.791,0.158
48.832,-0.611,0.791,0.154
48.842,-0.609,0.791,0.156
48.852,-0.605,0.789,0.156
48.862,-0.607,0.787,0.154
48.872,-0.609,0.789,0.156
48.882,-0.607,0.791,0.158
48.892,-0.609,0.791,0.158
48.902,-0.611,0.791,0.158
48.912,-0.609,0.789,0.154
48.922,-0.613,0.787,0.158
48.932,-0.613,0.787,0.158
48.942,-0.613,0.785,0.156
48.952,-0.611,0.789,0.160
48.961,-0.615,0.785,0.154
48.971,-0.617,0.787,0.162
48.981,-0.615,0.785,0.158
48.991,-0.611,0.783,0.156
49.001,-0.617,0.783,0.164
49.011,-0.617,0.783,0.160
49.021,-0.607,0.785,0.164
49.031,-0.609,0.785,0.160
49.041,-0.611,0.787,0.162
49.051,-0.613,0.785,0.162
49.061,-0.611,0.785,0.160
49.071,-0.613,0.787,0.160
49.081,-0.611,0.783,0.162
49.091,-0.611,0.785,0.158
49.100,-0.619,0.787,0.160
49.110,-0.619,0.789,0.160
49.120,-0.619,0.791,0.158
49.130,-0.613,0.791,0.160
49.140,-0.615,0.785,0.156
49.150,-0.613,0.785,0.158
49.160,-0.613,0.785,0.154
49.170,-0.613,0.785,0.156
49.180,-0.613,0.785,0.156
49.190,-0.613,0.785,0.162
49.200,-0.617,0.785,0.158
49.210,-0.617,0.787,0.158
49.220,-0.613,0.789,0.158
49.230,-0.611,0.789,0.162
49.239,-0.611,0.787,0.162
49.249,-0.609,0.785,0.160
49.259,-0.611,0.785,0.162
49.269,-0.611,0.785,0.162
49.279,-0.613,0.783,0.160
49.289,-0.613,0.785,0.162
49.299,-0.613,0.789,0.162
49.309,-0.613,0.787,0.162
49.319,-0.613,0.791,0.160
49.329,-0.611,0.783,0.160
49.339,-0.609,0.781,0.158
49.349,-0.613,0.783,0.158
49.359,-0.613,0.785,0.162
49.369,-0.609,0.791,0.164
49.378,-0.611,0.789,0.162
49.388,-0.609,0.791,0.162
49.398,-0.611,0.789,0.160
49.408,-0.609,0.791,0.162
49.418,-0.609,0.783,0.158
49.428,-0.613,0.787,0.160
49.438,-0.613,0.785,0.158
49.448,-0.613,0.787,0.160
49.458,-0.613,0.787,0.160
49.468,-0.613,0.787,0.160
49.478,-0.611,0.787,0.160
49.488,-0.611,0.787,0.162
49.498,-0.613,0.785,0.160
49.508,-0.615,0.789,0.160
49.517,-0.611,0.785,0.162
49.527,-0.611,0.785,0.160
49.537,-0.613,0.785,0.160
49.547,-0.615,0.787,0.156
49.557,-0.615,0.787,0.156
49.567,-0.613,0.789,0.156
49.577,-0.615,0.789,0.158
49.587,-0.615,0.789,0.156
49.597,-0.613,0.789,0.156
49.607,-0.613,0.787,0.154
49.617,-0.611,0.787,0.160
49.627,-0.613,0.787,0.156
49.637,-0.609,0.787,0.156
49.647,-0.611,0.791,0.158
49.656,-0.611,0.791,0.158
49.666,-0.611,0.791,0.158
49.676,-0.611,0.793,0.162
49.686,-0.609,0.785,0.156
49.696,-0.611,0.789,0.160
49.706,-0.611,0.787,0.156
49.716,-0.609,0.785,0.160
49.726,-0.609,0.787,0.156
49.736,-0.611,0.787,0.160
49.746,-0.613,0.787,0.158
49.756,-0.611,0.787,0.160
49.766,-0.615,0.785,0.162
49.776,-0.611,0.783,0.162
49.785,-0.611,0.787,0.162
49.795,-0.607,0.787,0.162
49.805,-0.607,0.785,0.158
49.815,-0.607,0.785,0.162
49.825,-0.607,0.785,0.162
49.835,-0.613,0.789,0.164
49.845,-0.615,0.787,0.164
49.855,-0.613,0.789,0.164
49.865,-0.613,0.787,0.166
49.875,-0.619,0.789,0.164
49.885,-0.617,0.787,0.164
49.895,-0.615,0.789,0.160
49.905,-0.621,0.789,0.166
49.915,-0.621,0.783,0.156
49.924,-0.613,0.781,0.162
49.934,-0.611,0.783,0.160
49.944,-0.615,0.783,0.160
49.954,-0.613,0.783,0.160
49.964,-0.615,0.783,0.164
49.974,-0.609,0.785,0.162
49.984,-0.609,0.783,0.164
49.994,-0.613,0.785,0.164
50.004,-0.611,0.791,0.164
50.014,-0.611,0.783,0.166
50.024,-0.613,0.785,0.164
50.034,-0.621,0.781,0.166
50.044,-0.615,0.783,0.166
50.054,-0.619,0.783,0.162
50.063,-0.623,0.781,0.164
50.073,-0.615,0.787,0.166
50.083,-0.615,0.789,0.162
50.093,-0.617,0.791,0.166
50.103,-0.613,0.783,0.162
50.113,-0.611,0.781,0.162
50.123,-0.613,0.783,0.158
50.133,-0.609,0.787,0.164
50.143,-0.609,0.789,0.160
50.153,-0.611,0.789,0.164
50.163,-0.609,0.791,0.160
50.173,-0.607,0.793,0.160
50.183,-0.611,0.791,0.162
50.193,-0.609,0.787,0.162
50.202,-0.613,0.785,0.162
50.212,-0.615,0.781,0.162
50.222,-0.619,0.785,0.162
50.232,-0.609,0.783,0.162
50.242,-0.613,0.783,0.162
50.252,-0.615,0.787,0.164
50.262,-0.613,0.785,0.162
50.272,-0.617,0.783,0.160
50.282,-0.617,0.783,0.162
50.292,-0.613,0.785,0.162
50.302,-0.615,0.785,0.162
50.312,-0.617,0.783,0.162
50.322,-0.613,0.783,0.158
50.332,-0.615,0.783,0.158
50.341,-0.619,0.789,0.158
50.351,-0.619,0.787,0.158
50.361,-0.613,0.787,0.156
50.371,-0.615,0.791,0.156
50.381,-0.629,0.789,0.164
50.391,-0.617,0.789,0.150
50.401,-0.611,0.789,0.154
50.411,-0.609,0.791,0.156
50.421,-0.609,0.787,0.154
50.431,-0.609,0.787,0.156
50.441,-0.607,0.789,0.158
50.451,-0.611,0.787,0.158
50.461,-0.609,0.789,0.158
50.471,-0.617,0.785,0.160
50.480,-0.617,0.785,0.156
50.490,-0.617,0.785,0.158
50.500,-0.619,0.783,0.158
50.510,-0.615,0.781,0.158
50.520,-0.617,0.785,0.158
50.530,-0.615,0.785,0.160
50.540,-0.615,0.785,0.160
50.550,-0.619,0.785,0.162
50.560,-0.619,0.781,0.158
50.570,-0.619,0.785,0.164
50.580,-0.615,0.787,0.160
50.590,-0.615,0.781,0.162
50.600,-0.615,0.785,0.160
50.610,-0.611,0.783,0.162
50.619,-0.611,0.783,0.164
50.629,-0.613,0.787,0.164
50.639,-0.611,0.783,0.160
50.649,-0.615,0.779,0.164
50.659,-0.617,0.783,0.162
50.669,-0.621,0.785,0.164
50.679,-0.619,0.789,0.162
50.689,-0.619,0.787,0.164
50.699,-0.619,0.785,0.162
50.709,-0.615,0.781,0.158
