df_hash,22ZHK4.7H06EP
device,HZ2X61
project_hash,29R7
project_name,istanbul_aydin_university
person_hash,29R7.REJ0
person_label,V156
date_time_start,2026-06-08_19-48-47.051000_+03
date_time_start_unix,1780930127.051
date_time_end,2026-06-08_19-59-06.457000_+03
length_difference_noticed,no

time,acc_x,acc_y,acc_z
4.356,-0.783,0.709,-0.025
4.366,-0.783,0.709,-0.031
4.376,-0.779,0.697,-0.029
4.386,-0.770,0.689,-0.037
4.396,-0.773,0.689,-0.035
4.406,-0.779,0.688,-0.041
4.416,-0.781,0.684,-0.041
4.426,-0.785,0.686,-0.041
4.436,-0.785,0.688,-0.039
4.446,-0.781,0.684,-0.041
4.455,-0.785,0.680,-0.043
4.465,-0.785,0.682,-0.041
4.475,-0.783,0.688,-0.043
4.485,-0.781,0.682,-0.037
4.495,-0.781,0.682,-0.039
4.505,-0.783,0.686,-0.035
4.515,-0.779,0.689,-0.035
4.525,-0.775,0.686,-0.035
4.535,-0.771,0.684,-0.037
4.545,-0.770,0.688,-0.031
4.555,-0.766,0.686,-0.031
4.565,-0.764,0.686,-0.031
4.575,-0.758,0.691,-0.029
4.585,-0.760,0.691,-0.031
4.594,-0.762,0.688,-0.029
4.604,-0.760,0.689,-0.031
4.614,-0.760,0.691,-0.031
4.624,-0.756,0.699,-0.031
4.634,-0.758,0.699,-0.027
4.644,-0.758,0.699,-0.027
4.654,-0.754,0.699,-0.031
4.664,-0.760,0.699,-0.029
4.674,-0.760,0.695,-0.031
4.684,-0.758,0.689,-0.027
4.694,-0.764,0.688,-0.027
4.704,-0.770,0.686,-0.029
4.714,-0.766,0.682,-0.031
4.724,-0.770,0.680,-0.031
4.733,-0.768,0.682,-0.029
4.743,-0.768,0.682,-0.027
4.753,-0.766,0.684,-0.027
4.763,-0.764,0.684,-0.027
4.773,-0.764,0.684,-0.023
4.783,-0.766,0.682,-0.025
4.793,-0.764,0.676,-0.025
4.803,-0.770,0.676,-0.029
4.813,-0.768,0.668,-0.021
4.823,-0.766,0.682,-0.021
4.833,-0.768,0.682,-0.021
4.843,-0.762,0.680,-0.020
4.853,-0.762,0.684,-0.021
4.863,-0.762,0.688,-0.018
4.872,-0.760,0.691,-0.018
4.882,-0.758,0.695,-0.018
4.892,-0.758,0.693,-0.021
4.902,-0.758,0.691,-0.023
4.912,-0.764,0.697,-0.021
4.922,-0.768,0.701,-0.020
4.932,-0.762,0.703,-0.021
4.942,-0.768,0.707,-0.023
4.952,-0.762,0.703,-0.020
4.962,-0.762,0.701,-0.021
4.972,-0.760,0.701,-0.023
4.982,-0.758,0.699,-0.023
4.992,-0.752,0.691,-0.021
5.002,-0.750,0.693,-0.018
5.011,-0.750,0.693,-0.018
5.021,-0.750,0.699,-0.018
5.031,-0.748,0.701,-0.016
5.041,-0.748,0.697,-0.016
5.051,-0.748,0.697,-0.016
5.061,-0.748,0.697,-0.018
5.071,-0.748,0.699,-0.016
5.081,-0.746,0.701,-0.014
5.091,-0.746,0.701,-0.014
5.101,-0.748,0.697,-0.014
5.111,-0.748,0.699,-0.010
5.121,-0.752,0.705,-0.010
5.131,-0.750,0.703,-0.012
5.141,-0.744,0.697,-0.010
5.150,-0.744,0.697,-0.010
5.160,-0.754,0.695,-0.010
5.170,-0.752,0.699,-0.012
5.180,-0.754,0.697,-0.016
5.190,-0.754,0.699,-0.014
5.200,-0.758,0.695,-0.016
5.210,-0.760,0.695,-0.018
5.220,-0.760,0.688,-0.016
5.230,-0.762,0.688,-0.016
5.240,-0.758,0.686,-0.020
5.250,-0.760,0.688,-0.020
5.260,-0.758,0.689,-0.018
5.270,-0.760,0.689,-0.021
5.280,-0.762,0.695,-0.020
5.289,-0.762,0.699,-0.018
5.299,-0.762,0.701,-0.025
5.309,-0.766,0.707,-0.023
5.319,-0.764,0.707,-0.027
5.329,-0.760,0.705,-0.023
5.339,-0.760,0.703,-0.025
5.349,-0.762,0.705,-0.025
5.359,-0.760,0.701,-0.023
5.369,-0.752,0.705,-0.023
5.379,-0.752,0.703,-0.021
5.389,-0.748,0.705,-0.023
5.399,-0.744,0.707,-0.021
5.409,-0.742,0.709,-0.020
5.418,-0.744,0.709,-0.018
5.428,-0.746,0.707,-0.016
5.438,-0.744,0.705,-0.020
5.448,-0.744,0.705,-0.018
5.458,-0.744,0.709,-0.016
5.468,-0.742,0.707,-0.014
5.478,-0.746,0.707,-0.010
5.488,-0.748,0.705,-0.016
5.498,-0.750,0.703,-0.014
5.508,-0.750,0.697,-0.012
5.518,-0.748,0.699,-0.008
5.528,-0.750,0.695,-0.012
5.538,-0.750,0.693,-0.010
5.548,-0.750,0.688,-0.010
5.557,-0.750,0.688,-0.010
5.567,-0.750,0.691,-0.006
5.577,-0.750,0.691,-0.010
5.587,-0.752,0.693,-0.012
5.597,-0.752,0.691,-0.010
5.607,-0.754,0.693,-0.018
5.617,-0.758,0.693,-0.016
5.627,-0.762,0.699,-0.018
5.637,-0.766,0.701,-0.014
5.647,-0.768,0.705,-0.018
5.657,-0.768,0.707,-0.021
5.667,-0.770,0.711,-0.020
5.677,-0.766,0.707,-0.018
5.687,-0.762,0.703,-0.020
5.696,-0.758,0.707,-0.020
5.706,-0.756,0.703,-0.018
5.716,-0.754,0.703,-0.018
5.726,-0.754,0.707,-0.020
5.736,-0.750,0.705,-0.020
5.746,-0.752,0.705,-0.018
5.756,-0.748,0.707,-0.014
5.766,-0.748,0.709,-0.018
5.776,-0.744,0.709,-0.016
5.786,-0.744,0.711,-0.012
5.796,-0.744,0.703,-0.012
5.806,-0.744,0.705,-0.014
5.816,-0.746,0.711,-0.004
5.826,-0.744,0.711,-0.002
5.835,-0.738,0.701,-0.004
5.845,-0.736,0.697,-0.006
5.855,-0.742,0.695,-0.002
5.865,-0.746,0.697,-0.004
5.875,-0.748,0.697,-0.004
5.885,-0.754,0.697,-0.006
5.895,-0.752,0.695,-0.008
5.905,-0.754,0.693,-0.004
5.915,-0.756,0.695,-0.006
5.925,-0.754,0.689,-0.010
5.935,-0.754,0.688,-0.008
5.945,-0.758,0.688,-0.008
5.955,-0.756,0.688,-0.010
5.965,-0.758,0.693,-0.012
5.974,-0.756,0.695,-0.014
5.984,-0.758,0.697,-0.012
5.994,-0.764,0.703,-0.014
6.004,-0.758,0.703,-0.018
6.014,-0.764,0.701,-0.020
6.024,-0.762,0.709,-0.021
6.034,-0.758,0.711,-0.021
6.044,-0.758,0.713,-0.021
6.054,-0.758,0.709,-0.021
6.064,-0.754,0.709,-0.023
6.074,-0.752,0.709,-0.020
6.084,-0.754,0.709,-0.021
6.094,-0.750,0.711,-0.021
6.104,-0.746,0.713,-0.021
6.113,-0.748,0.711,-0.021
6.123,-0.748,0.709,-0.018
6.133,-0.746,0.713,-0.016
6.143,-0.746,0.707,-0.014
6.153,-0.742,0.709,-0.016
6.163,-0.740,0.705,-0.010
6.173,-0.742,0.705,-0.014
6.183,-0.744,0.703,-0.010
6.193,-0.744,0.703,-0.014
6.203,-0.746,0.701,-0.010
6.213,-0.748,0.703,-0.010
6.223,-0.748,0.697,-0.010
6.233,-0.748,0.699,-0.010
6.243,-0.750,0.693,-0.008
6.252,-0.746,0.693,-0.008
6.262,-0.750,0.688,-0.010
6.272,-0.750,0.693,-0.012
6.282,-0.752,0.693,-0.010
6.292,-0.756,0.693,-0.012
6.302,-0.752,0.693,-0.014
6.312,-0.758,0.693,-0.014
6.322,-0.752,0.699,-0.018
6.332,-0.750,0.701,-0.016
6.342,-0.754,0.701,-0.020
6.352,-0.762,0.709,-0.018
6.362,-0.764,0.711,-0.020
6.372,-0.760,0.709,-0.023
6.382,-0.756,0.711,-0.025
6.391,-0.756,0.707,-0.023
6.401,-0.758,0.707,-0.027
6.411,-0.758,0.709,-0.027
6.421,-0.797,0.727,0.002
6.431,-0.770,0.727,-0.016
6.441,-0.746,0.709,-0.029
6.451,-0.746,0.715,-0.023
6.461,-0.744,0.711,-0.023
6.471,-0.742,0.713,-0.021
6.481,-0.738,0.715,-0.020
6.491,-0.738,0.711,-0.018
6.501,-0.734,0.713,-0.016
6.511,-0.734,0.713,-0.018
6.521,-0.734,0.711,-0.016
6.530,-0.736,0.713,-0.014
6.540,-0.734,0.707,-0.014
6.550,-0.736,0.707,-0.012
6.560,-0.738,0.705,-0.014
6.570,-0.740,0.707,-0.010
6.580,-0.744,0.707,-0.014
6.590,-0.744,0.703,-0.016
6.600,-0.746,0.699,-0.010
6.610,-0.752,0.701,-0.010
6.620,-0.754,0.697,-0.010
6.630,-0.748,0.691,-0.012
6.640,-0.744,0.688,-0.010
6.650,-0.752,0.691,-0.014
6.660,-0.756,0.693,-0.010
6.669,-0.758,0.697,-0.014
6.679,-0.760,0.699,-0.014
6.689,-0.766,0.701,-0.014
6.699,-0.770,0.703,-0.018
6.709,-0.766,0.707,-0.021
6.719,-0.760,0.707,-0.020
6.729,-0.762,0.705,-0.020
6.739,-0.762,0.709,-0.023
6.749,-0.758,0.707,-0.021
6.759,-0.756,0.707,-0.020
6.769,-0.754,0.707,-0.021
6.779,-0.748,0.705,-0.018
6.789,-0.748,0.707,-0.021
6.799,-0.744,0.709,-0.021
6.808,-0.744,0.715,-0.021
6.818,-0.744,0.713,-0.023
6.828,-0.742,0.711,-0.020
6.838,-0.744,0.711,-0.021
6.848,-0.740,0.711,-0.020
6.858,-0.742,0.711,-0.018
6.868,-0.738,0.711,-0.016
6.878,-0.740,0.709,-0.020
6.888,-0.744,0.709,-0.014
6.898,-0.744,0.705,-0.014
6.908,-0.744,0.705,-0.010
6.918,-0.742,0.709,-0.014
6.928,-0.742,0.703,-0.008
6.938,-0.744,0.699,-0.010
6.947,-0.748,0.697,-0.008
6.957,-0.744,0.699,-0.008
6.967,-0.744,0.699,-0.010
6.977,-0.744,0.693,-0.010
6.987,-0.746,0.695,-0.006
6.997,-0.754,0.697,-0.012
7.007,-0.750,0.697,-0.010
7.017,-0.754,0.697,-0.012
7.027,-0.752,0.697,-0.012
7.037,-0.754,0.695,-0.014
7.047,-0.754,0.699,-0.016
7.057,-0.758,0.701,-0.016
7.067,-0.760,0.707,-0.018
7.077,-0.758,0.705,-0.023
7.086,-0.756,0.705,-0.021
7.096,-0.760,0.711,-0.016
7.106,-0.760,0.711,-0.020
7.116,-0.754,0.709,-0.021
7.126,-0.752,0.707,-0.018
7.136,-0.748,0.709,-0.020
7.146,-0.750,0.711,-0.020
7.156,-0.748,0.715,-0.018
7.166,-0.744,0.713,-0.016
7.176,-0.742,0.707,-0.016
7.186,-0.746,0.715,-0.016
7.196,-0.748,0.713,-0.012
7.206,-0.750,0.715,-0.014
7.216,-0.748,0.713,-0.010
7.225,-0.746,0.713,-0.006
7.235,-0.744,0.707,-0.008
7.245,-0.746,0.703,-0.008
7.255,-0.742,0.699,-0.008
7.265,-0.744,0.697,-0.004
7.275,-0.742,0.697,-0.004
7.285,-0.744,0.695,-0.006
7.295,-0.748,0.693,-0.002
7.305,-0.750,0.691,-0.006
7.315,-0.750,0.693,-0.006
7.325,-0.752,0.695,-0.006
7.335,-0.754,0.695,-0.008
7.345,-0.754,0.697,-0.004
7.354,-0.758,0.699,-0.012
7.364,-0.760,0.701,-0.012
7.374,-0.762,0.695,-0.014
7.384,-0.760,0.705,-0.012
7.394,-0.764,0.709,-0.008
7.404,-0.760,0.709,-0.010
7.414,-0.754,0.703,-0.014
7.424,-0.754,0.703,-0.012
7.434,-0.752,0.703,-0.016
7.444,-0.754,0.709,-0.018
7.454,-0.752,0.711,-0.016
7.464,-0.752,0.715,-0.018
7.474,-0.748,0.717,-0.016
7.484,-0.746,0.713,-0.014
7.493,-0.744,0.713,-0.010
7.503,-0.742,0.715,-0.012
7.513,-0.740,0.711,-0.010
7.523,-0.738,0.715,-0.012
7.533,-0.738,0.711,-0.012
7.543,-0.738,0.713,-0.010
7.553,-0.742,0.713,-0.010
7.563,-0.744,0.709,-0.008
7.573,-0.742,0.707,-0.008
7.583,-0.746,0.705,-0.008
7.593,-0.740,0.703,-0.006
7.603,-0.744,0.705,-0.012
7.613,-0.744,0.701,-0.008
7.623,-0.746,0.701,-0.008
7.632,-0.750,0.697,-0.010
7.642,-0.750,0.697,-0.010
7.652,-0.750,0.699,-0.012
7.662,-0.752,0.699,-0.012
7.672,-0.750,0.699,-0.012
7.682,-0.752,0.699,-0.012
7.692,-0.752,0.699,-0.012
7.702,-0.754,0.703,-0.012
7.712,-0.752,0.701,-0.012
7.722,-0.750,0.703,-0.016
7.732,-0.752,0.703,-0.014
7.742,-0.754,0.709,-0.014
7.752,-0.756,0.705,-0.014
7.762,-0.754,0.709,-0.018
7.771,-0.754,0.713,-0.020
7.781,-0.756,0.713,-0.020
7.791,-0.754,0.713,-0.020
7.801,-0.752,0.715,-0.018
7.811,-0.750,0.711,-0.018
7.821,-0.750,0.713,-0.014
7.831,-0.746,0.707,-0.016
7.841,-0.744,0.705,-0.016
7.851,-0.742,0.709,-0.014
7.861,-0.742,0.709,-0.016
7.871,-0.738,0.707,-0.010
7.881,-0.740,0.705,-0.016
7.891,-0.742,0.709,-0.008
7.901,-0.740,0.707,-0.008
7.910,-0.740,0.703,-0.010
7.920,-0.744,0.701,-0.010
7.930,-0.746,0.701,-0.012
7.940,-0.748,0.703,-0.012
7.950,-0.746,0.703,-0.010
7.960,-0.748,0.697,-0.012
7.970,-0.750,0.699,-0.010
7.980,-0.754,0.697,-0.010
7.990,-0.756,0.699,-0.012
8.000,-0.754,0.697,-0.010
8.010,-0.758,0.695,-0.012
8.020,-0.756,0.699,-0.014
8.030,-0.756,0.697,-0.010
8.040,-0.756,0.697,-0.012
8.049,-0.758,0.697,-0.016
8.059,-0.756,0.695,-0.014
8.069,-0.756,0.699,-0.014
8.079,-0.754,0.699,-0.016
8.089,-0.756,0.701,-0.014
8.099,-0.754,0.703,-0.014
8.109,-0.756,0.705,-0.014
8.119,-0.754,0.703,-0.018
8.129,-0.754,0.705,-0.016
8.139,-0.758,0.705,-0.018
8.149,-0.756,0.703,-0.020
8.159,-0.758,0.709,-0.016
8.169,-0.754,0.703,-0.018
8.179,-0.756,0.703,-0.018
8.188,-0.760,0.711,-0.012
8.198,-0.754,0.707,-0.012
8.208,-0.746,0.699,-0.012
8.218,-0.746,0.701,-0.012
8.228,-0.750,0.699,-0.012
8.238,-0.752,0.703,-0.012
8.248,-0.748,0.705,-0.016
8.258,-0.750,0.705,-0.008
8.268,-0.750,0.707,-0.010
8.278,-0.750,0.703,-0.012
8.288,-0.752,0.701,-0.010
8.298,-0.750,0.699,-0.010
8.308,-0.748,0.699,-0.010
8.318,-0.748,0.697,-0.010
8.327,-0.746,0.699,-0.010
8.337,-0.746,0.699,-0.008
8.347,-0.748,0.701,-0.010
8.357,-0.750,0.697,-0.010
8.367,-0.752,0.699,-0.010
8.377,-0.750,0.701,-0.014
8.387,-0.750,0.703,-0.010
8.397,-0.752,0.703,-0.014
8.407,-0.750,0.699,-0.014
8.417,-0.754,0.703,-0.014
8.427,-0.756,0.705,-0.014
8.437,-0.756,0.707,-0.014
8.447,-0.754,0.707,-0.014
8.457,-0.756,0.707,-0.020
8.466,-0.754,0.707,-0.018
8.476,-0.754,0.707,-0.016
8.486,-0.756,0.707,-0.012
8.496,-0.750,0.705,-0.012
8.506,-0.752,0.707,-0.010
8.516,-0.750,0.707,-0.016
8.526,-0.744,0.707,-0.014
8.536,-0.746,0.705,-0.010
8.546,-0.744,0.705,-0.012
8.556,-0.746,0.701,-0.012
8.566,-0.750,0.703,-0.012
8.576,-0.750,0.701,-0.010
8.586,-0.752,0.703,-0.010
8.596,-0.752,0.699,-0.012
8.605,-0.754,0.697,-0.010
8.615,-0.754,0.697,-0.012
8.625,-0.754,0.695,-0.014
8.635,-0.750,0.695,-0.010
8.645,-0.754,0.697,-0.012
8.655,-0.754,0.695,-0.010
8.665,-0.754,0.693,-0.010
8.675,-0.752,0.693,-0.014
8.685,-0.752,0.699,-0.010
8.695,-0.752,0.697,-0.012
8.705,-0.752,0.697,-0.010
8.715,-0.750,0.699,-0.010
8.725,-0.752,0.705,-0.014
8.735,-0.754,0.701,-0.014
8.744,-0.756,0.697,-0.016
8.754,-0.756,0.699,-0.016
8.764,-0.758,0.703,-0.016
8.774,-0.756,0.703,-0.018
8.784,-0.752,0.703,-0.016
8.794,-0.756,0.701,-0.016
8.804,-0.756,0.705,-0.018
8.814,-0.760,0.705,-0.016
8.824,-0.760,0.703,-0.016
8.834,-0.762,0.711,-0.012
8.844,-0.756,0.707,-0.014
8.854,-0.760,0.703,-0.014
8.864,-0.756,0.705,-0.012
8.874,-0.754,0.703,-0.010
8.883,-0.750,0.705,-0.010
8.893,-0.748,0.701,-0.008
8.903,-0.748,0.701,-0.012
8.913,-0.748,0.699,-0.008
8.923,-0.748,0.699,-0.010
8.933,-0.746,0.699,-0.010
8.943,-0.750,0.699,-0.010
8.953,-0.748,0.701,-0.008
8.963,-0.752,0.699,-0.008
8.973,-0.748,0.699,-0.010
8.983,-0.750,0.703,-0.008
8.993,-0.750,0.701,-0.010
9.003,-0.748,0.699,-0.012
9.013,-0.750,0.699,-0.012
9.022,-0.756,0.709,-0.006
9.032,-0.750,0.705,-0.012
9.042,-0.748,0.695,-0.014
9.052,-0.746,0.701,-0.012
9.062,-0.748,0.699,-0.014
9.072,-0.750,0.703,-0.014
9.082,-0.750,0.705,-0.014
9.092,-0.750,0.705,-0.008
9.102,-0.752,0.711,-0.012
9.112,-0.754,0.709,-0.014
9.122,-0.754,0.705,-0.008
9.132,-0.754,0.705,-0.012
9.142,-0.748,0.703,-0.014
9.152,-0.748,0.701,-0.012
9.161,-0.746,0.699,-0.008
9.171,-0.750,0.701,-0.008
9.181,-0.752,0.703,-0.010
9.191,-0.750,0.703,-0.008
9.201,-0.752,0.705,-0.010
9.211,-0.754,0.703,-0.008
9.221,-0.752,0.701,-0.012
9.231,-0.752,0.701,-0.010
9.241,-0.752,0.699,-0.010
9.251,-0.752,0.699,-0.012
9.261,-0.752,0.699,-0.014
9.271,-0.754,0.701,-0.012
9.281,-0.754,0.701,-0.012
9.290,-0.754,0.703,-0.010
9.300,-0.752,0.703,-0.010
9.310,-0.754,0.701,-0.008
9.320,-0.752,0.701,-0.012
9.330,-0.752,0.703,-0.012
9.340,-0.754,0.703,-0.014
9.350,-0.750,0.703,-0.008
9.360,-0.754,0.703,-0.010
9.370,-0.752,0.703,-0.010
9.380,-0.752,0.699,-0.010
9.390,-0.750,0.701,-0.012
9.400,-0.754,0.699,-0.012
9.410,-0.752,0.701,-0.008
9.420,-0.750,0.703,-0.010
9.429,-0.752,0.705,-0.012
9.439,-0.750,0.701,-0.012
9.449,-0.754,0.701,-0.010
9.459,-0.754,0.705,-0.010
9.469,-0.754,0.703,-0.010
9.479,-0.752,0.703,-0.008
9.489,-0.754,0.703,-0.010
9.499,-0.754,0.703,-0.008
9.509,-0.750,0.699,-0.010
9.519,-0.750,0.703,-0.012
9.529,-0.754,0.705,-0.010
9.539,-0.750,0.707,-0.010
9.549,-0.750,0.701,-0.010
9.559,-0.748,0.703,-0.010
9.568,-0.750,0.707,-0.010
9.578,-0.752,0.701,-0.008
9.588,-0.748,0.703,-0.010
9.598,-0.752,0.697,-0.006
9.608,-0.752,0.705,-0.008
9.618,-0.750,0.703,-0.010
9.628,-0.748,0.705,-0.010
9.638,-0.750,0.701,-0.010
9.648,-0.752,0.703,-0.012
9.658,-0.754,0.703,-0.010
9.668,-0.758,0.703,-0.010
9.678,-0.754,0.705,-0.006
9.688,-0.756,0.707,-0.006
9.698,-0.752,0.701,-0.006
9.707,-0.752,0.699,-0.008
9.717,-0.752,0.699,-0.006
9.727,-0.748,0.701,-0.006
9.737,-0.748,0.699,-0.006
9.747,-0.746,0.701,-0.006
9.757,-0.750,0.701,-0.008
9.767,-0.748,0.701,-0.010
9.777,-0.746,0.699,-0.008
9.787,-0.750,0.701,-0.010
9.797,-0.750,0.703,-0.008
9.807,-0.752,0.703,-0.006
9.817,-0.750,0.701,-0.010
9.827,-0.750,0.703,-0.010
9.837,-0.754,0.703,-0.010
9.846,-0.752,0.699,-0.012
9.856,-0.750,0.701,-0.010
9.866,-0.754,0.707,-0.006
9.876,-0.752,0.703,-0.006
9.886,-0.750,0.699,-0.010
9.896,-0.746,0.697,-0.008
9.906,-0.748,0.699,-0.014
9.916,-0.752,0.699,-0.012
9.926,-0.754,0.703,-0.012
9.936,-0.754,0.705,-0.012
9.946,-0.754,0.705,-0.008
9.956,-0.756,0.703,-0.012
9.966,-0.754,0.707,-0.008
9.976,-0.756,0.701,-0.012
9.985,-0.752,0.703,-0.014
9.995,-0.752,0.701,-0.012
10.005,-0.754,0.703,-0.008
10.015,-0.752,0.701,-0.012
10.025,-0.750,0.705,-0.012
10.035,-0.752,0.701,-0.010
10.045,-0.752,0.701,-0.010
10.055,-0.754,0.701,-0.012
10.065,-0.754,0.701,-0.014
10.075,-0.752,0.703,-0.012
10.085,-0.754,0.703,-0.014
10.095,-0.752,0.701,-0.014
10.105,-0.750,0.705,-0.016
10.115,-0.752,0.701,-0.014
10.124,-0.750,0.701,-0.016
10.134,-0.750,0.703,-0.012
10.144,-0.750,0.705,-0.014
10.154,-0.750,0.705,-0.014
10.164,-0.750,0.705,-0.016
10.174,-0.750,0.703,-0.012
10.184,-0.750,0.705,-0.014
10.194,-0.750,0.703,-0.012
10.204,-0.750,0.701,-0.008
10.214,-0.750,0.703,-0.010
10.224,-0.750,0.699,-0.010
10.234,-0.752,0.703,-0.008
10.244,-0.752,0.705,-0.010
10.254,-0.752,0.699,-0.012
10.263,-0.752,0.701,-0.008
10.273,-0.750,0.701,-0.012
10.283,-0.754,0.701,-0.012
10.293,-0.752,0.701,-0.012
10.303,-0.752,0.701,-0.012
10.313,-0.752,0.703,-0.010
10.323,-0.754,0.705,-0.010
10.333,-0.754,0.703,-0.012
10.343,-0.750,0.701,-0.012
10.353,-0.752,0.705,-0.012
10.363,-0.756,0.707,-0.010
10.373,-0.748,0.703,-0.012
10.383,-0.752,0.703,-0.012
10.393,-0.752,0.699,-0.012
10.402,-0.754,0.703,-0.008
10.412,-0.754,0.705,-0.008
10.422,-0.756,0.703,-0.006
10.432,-0.750,0.701,-0.010
10.442,-0.752,0.701,-0.014
10.452,-0.756,0.701,-0.010
10.462,-0.756,0.703,-0.014
10.472,-0.756,0.703,-0.010
10.482,-0.754,0.707,-0.012
10.492,-0.756,0.701,-0.010
10.502,-0.752,0.703,-0.012
10.512,-0.754,0.701,-0.010
10.522,-0.750,0.701,-0.008
10.532,-0.752,0.697,-0.014
10.541,-0.750,0.701,-0.014
10.551,-0.748,0.699,-0.012
10.561,-0.754,0.701,-0.010
10.571,-0.754,0.697,-0.014
10.581,-0.754,0.701,-0.010
10.591,-0.754,0.701,-0.012
10.601,-0.750,0.703,-0.014
10.611,-0.752,0.703,-0.010
10.621,-0.752,0.703,-0.012
10.631,-0.752,0.697,-0.016
10.641,-0.754,0.695,-0.012
10.651,-0.752,0.709,-0.010
10.661,-0.756,0.707,-0.010
10.671,-0.752,0.705,-0.014
10.680,-0.746,0.699,-0.014
10.690,-0.748,0.699,-0.010
10.700,-0.752,0.699,-0.012
10.710,-0.754,0.701,-0.016
10.720,-0.754,0.707,-0.016
10.730,-0.756,0.703,-0.014
10.740,-0.754,0.707,-0.012
10.750,-0.754,0.705,-0.014
10.760,-0.754,0.701,-0.014
10.770,-0.756,0.699,-0.014
10.780,-0.752,0.697,-0.014
10.790,-0.750,0.703,-0.010
10.800,-0.750,0.701,-0.014
10.810,-0.750,0.701,-0.014
10.819,-0.752,0.703,-0.010
10.829,-0.752,0.701,-0.014
10.839,-0.750,0.701,-0.012
10.849,-0.752,0.705,-0.014
10.859,-0.752,0.701,-0.010
10.869,-0.752,0.701,-0.014
10.879,-0.748,0.705,-0.016
10.889,-0.750,0.703,-0.014
10.899,-0.748,0.703,-0.016
10.909,-0.752,0.705,-0.016
10.919,-0.752,0.701,-0.016
10.929,-0.754,0.703,-0.018
10.939,-0.752,0.701,-0.018
10.949,-0.754,0.703,-0.018
10.958,-0.754,0.701,-0.014
10.968,-0.752,0.703,-0.014
10.978,-0.754,0.703,-0.016
10.988,-0.752,0.701,-0.014
10.998,-0.752,0.699,-0.014
11.008,-0.750,0.697,-0.014
11.018,-0.752,0.701,-0.012
11.028,-0.754,0.699,-0.014
11.038,-0.752,0.701,-0.012
11.048,-0.756,0.703,-0.014
11.058,-0.752,0.703,-0.012
11.068,-0.754,0.703,-0.010
11.078,-0.754,0.701,-0.014
11.087,-0.754,0.703,-0.012
11.097,-0.752,0.701,-0.014
11.107,-0.752,0.701,-0.016
11.117,-0.754,0.703,-0.016
11.127,-0.752,0.705,-0.014
11.137,-0.754,0.701,-0.016
11.147,-0.752,0.703,-0.012
11.157,-0.752,0.701,-0.016
11.167,-0.750,0.703,-0.016
11.177,-0.752,0.701,-0.014
11.187,-0.748,0.701,-0.014
11.197,-0.748,0.705,-0.014
11.207,-0.750,0.705,-0.012
11.217,-0.746,0.701,-0.016
11.226,-0.748,0.701,-0.014
11.236,-0.752,0.705,-0.014
11.246,-0.752,0.703,-0.016
11.256,-0.750,0.699,-0.016
11.266,-0.752,0.701,-0.014
11.276,-0.754,0.707,-0.014
11.286,-0.750,0.703,-0.014
11.296,-0.752,0.701,-0.012
11.306,-0.754,0.699,-0.014
11.316,-0.758,0.699,-0.014
11.326,-0.756,0.699,-0.016
11.336,-0.758,0.707,-0.012
11.346,-0.756,0.705,-0.014
11.356,-0.760,0.701,-0.012
11.365,-0.754,0.703,-0.014
11.375,-0.756,0.701,-0.010
11.385,-0.752,0.699,-0.012
11.395,-0.754,0.697,-0.016
11.405,-0.750,0.701,-0.014
11.415,-0.750,0.699,-0.010
11.425,-0.752,0.701,-0.012
11.435,-0.752,0.697,-0.014
11.445,-0.752,0.701,-0.016
11.455,-0.750,0.701,-0.012
11.465,-0.752,0.703,-0.014
11.475,-0.752,0.701,-0.012
11.485,-0.752,0.703,-0.016
11.495,-0.752,0.699,-0.014
11.504,-0.754,0.699,-0.016
11.514,-0.752,0.701,-0.016
11.524,-0.754,0.697,-0.014
11.534,-0.754,0.707,-0.008
11.544,-0.756,0.707,-0.012
11.554,-0.750,0.701,-0.012
11.564,-0.744,0.699,-0.014
11.574,-0.746,0.699,-0.014
11.584,-0.752,0.697,-0.012
11.594,-0.750,0.705,-0.006
11.604,-0.752,0.705,-0.012
11.614,-0.754,0.703,-0.016
11.624,-0.752,0.707,-0.014
11.634,-0.754,0.707,-0.016
11.643,-0.752,0.705,-0.012
11.653,-0.752,0.705,-0.014
11.663,-0.752,0.705,-0.014
11.673,-0.750,0.703,-0.016
11.683,-0.750,0.703,-0.012
11.693,-0.744,0.701,-0.010
11.703,-0.748,0.705,-0.014
11.713,-0.748,0.701,-0.012
11.723,-0.748,0.705,-0.016
11.733,-0.750,0.707,-0.016
11.743,-0.746,0.707,-0.016
11.753,-0.746,0.703,-0.012
11.763,-0.750,0.705,-0.014
11.773,-0.750,0.703,-0.014
11.782,-0.750,0.707,-0.016
11.792,-0.748,0.705,-0.016
11.802,-0.748,0.707,-0.014
11.812,-0.748,0.703,-0.012
11.822,-0.754,0.707,-0.014
11.832,-0.752,0.705,-0.016
11.842,-0.752,0.705,-0.016
11.852,-0.750,0.707,-0.016
11.862,-0.752,0.705,-0.014
11.872,-0.752,0.701,-0.014
11.882,-0.752,0.701,-0.014
11.892,-0.750,0.705,-0.018
11.902,-0.752,0.703,-0.014
11.912,-0.750,0.703,-0.016
11.921,-0.750,0.705,-0.012
11.931,-0.752,0.705,-0.014
11.941,-0.752,0.701,-0.014
11.951,-0.754,0.703,-0.014
11.961,-0.752,0.701,-0.016
11.971,-0.752,0.709,-0.016
11.981,-0.750,0.707,-0.012
11.991,-0.750,0.705,-0.012
12.001,-0.752,0.703,-0.016
12.011,-0.750,0.705,-0.016
12.021,-0.750,0.705,-0.014
12.031,-0.752,0.703,-0.014
12.041,-0.748,0.705,-0.014
12.051,-0.752,0.707,-0.012
12.060,-0.750,0.703,-0.010
12.070,-0.750,0.705,-0.012
12.080,-0.750,0.703,-0.012
12.090,-0.748,0.699,-0.012
12.100,-0.746,0.705,-0.014
12.110,-0.746,0.705,-0.010
12.120,-0.750,0.703,-0.012
12.130,-0.746,0.705,-0.010
12.140,-0.748,0.707,-0.008
12.150,-0.748,0.709,-0.010
12.160,-0.748,0.701,-0.010
12.170,-0.750,0.705,-0.010
12.180,-0.750,0.707,-0.008
12.190,-0.752,0.705,-0.008
12.199,-0.750,0.703,-0.012
12.209,-0.750,0.699,-0.014
12.219,-0.752,0.701,-0.012
12.229,-0.754,0.703,-0.012
12.239,-0.758,0.701,-0.010
12.249,-0.756,0.703,-0.010
12.259,-0.758,0.703,-0.012
12.269,-0.756,0.703,-0.010
12.279,-0.752,0.703,-0.012
12.289,-0.754,0.701,-0.010
12.299,-0.750,0.701,-0.010
12.309,-0.750,0.701,-0.008
12.319,-0.750,0.703,-0.008
12.329,-0.750,0.703,-0.010
12.338,-0.750,0.703,-0.012
12.348,-0.746,0.701,-0.012
12.358,-0.750,0.703,-0.010
12.368,-0.748,0.703,-0.010
12.378,-0.750,0.703,-0.008
12.388,-0.752,0.703,-0.012
12.398,-0.752,0.703,-0.008
12.408,-0.754,0.707,-0.010
12.418,-0.756,0.705,-0.012
12.428,-0.750,0.699,-0.012
12.438,-0.752,0.703,-0.010
12.448,-0.756,0.705,-0.006
12.458,-0.752,0.705,-0.010
12.468,-0.746,0.695,-0.010
12.477,-0.748,0.699,-0.010
12.487,-0.752,0.703,-0.010
12.497,-0.750,0.709,-0.012
12.507,-0.754,0.707,-0.010
12.517,-0.756,0.705,-0.010
12.527,-0.754,0.707,-0.008
12.537,-0.758,0.703,-0.010
12.547,-0.756,0.705,-0.014
12.557,-0.754,0.703,-0.010
12.567,-0.752,0.703,-0.008
12.577,-0.752,0.699,-0.008
12.587,-0.748,0.699,-0.008
12.597,-0.750,0.701,-0.008
12.607,-0.748,0.705,-0.008
12.616,-0.750,0.707,-0.006
12.626,-0.750,0.705,-0.010
12.636,-0.750,0.705,-0.008
12.646,-0.748,0.707,-0.006
12.656,-0.748,0.705,-0.008
12.666,-0.748,0.705,-0.010
12.676,-0.750,0.703,-0.010
12.686,-0.750,0.705,-0.010
12.696,-0.752,0.707,-0.008
12.706,-0.752,0.703,-0.010
12.716,-0.748,0.705,-0.008
12.726,-0.752,0.703,-0.010
12.736,-0.750,0.703,-0.008
12.746,-0.752,0.703,-0.008
12.755,-0.748,0.701,-0.008
12.765,-0.750,0.703,-0.010
12.775,-0.750,0.705,-0.008
12.785,-0.754,0.705,-0.008
12.795,-0.750,0.701,-0.010
12.805,-0.750,0.707,-0.010
12.815,-0.754,0.709,-0.008
12.825,-0.750,0.705,-0.006
12.835,-0.750,0.705,-0.006
12.845,-0.750,0.705,-0.008
12.855,-0.750,0.705,-0.008
12.865,-0.750,0.703,-0.008
12.875,-0.748,0.705,-0.012
12.885,-0.750,0.705,-0.008
12.894,-0.750,0.703,-0.008
12.904,-0.752,0.705,-0.008
12.914,-0.750,0.703,-0.012
12.924,-0.752,0.705,-0.010
12.934,-0.754,0.707,-0.012
12.944,-0.752,0.703,-0.012
12.954,-0.752,0.707,-0.012
12.964,-0.748,0.703,-0.008
12.974,-0.748,0.705,-0.010
12.984,-0.752,0.709,-0.012
12.994,-0.748,0.707,-0.008
13.004,-0.748,0.707,-0.014
13.014,-0.752,0.707,-0.016
13.023,-0.750,0.709,-0.010
13.033,-0.752,0.707,-0.008
13.043,-0.748,0.705,-0.014
13.053,-0.746,0.709,-0.008
13.063,-0.748,0.707,-0.008
13.073,-0.752,0.713,-0.006
13.083,-0.750,0.707,-0.008
13.093,-0.746,0.705,-0.010
13.103,-0.750,0.703,-0.012
13.113,-0.754,0.705,-0.012
13.123,-0.756,0.709,-0.012
13.133,-0.754,0.709,-0.008
13.143,-0.754,0.705,-0.008
13.153,-0.752,0.705,-0.010
13.162,-0.752,0.703,-0.006
13.172,-0.752,0.703,-0.006
13.182,-0.748,0.703,-0.006
13.192,-0.746,0.703,-0.006
13.202,-0.748,0.701,-0.008
13.212,-0.742,0.701,-0.006
13.222,-0.744,0.705,-0.006
13.232,-0.748,0.701,-0.008
13.242,-0.748,0.705,-0.004
13.252,-0.748,0.705,-0.008
13.262,-0.746,0.705,-0.010
13.272,-0.748,0.705,-0.006
13.282,-0.748,0.707,-0.006
13.292,-0.748,0.707,-0.010
13.301,-0.750,0.701,-0.008
13.311,-0.748,0.705,-0.010
13.321,-0.754,0.717,-0.004
13.331,-0.750,0.711,-0.004
13.341,-0.746,0.707,-0.006
13.351,-0.740,0.701,-0.008
13.361,-0.744,0.705,-0.004
13.371,-0.748,0.707,-0.006
13.381,-0.744,0.707,-0.006
13.391,-0.750,0.711,-0.010
13.401,-0.748,0.713,-0.004
13.411,-0.754,0.709,-0.010
13.421,-0.752,0.707,-0.010
13.431,-0.750,0.709,-0.006
13.440,-0.750,0.707,-0.010
13.450,-0.748,0.707,-0.006
13.460,-0.746,0.707,-0.006
13.470,-0.746,0.709,-0.008
13.480,-0.746,0.711,-0.006
13.490,-0.746,0.709,-0.010
13.500,-0.744,0.707,-0.008
13.510,-0.746,0.707,-0.006
13.520,-0.748,0.709,-0.008
13.530,-0.748,0.709,-0.008
13.540,-0.744,0.707,-0.006
13.550,-0.742,0.707,-0.010
13.560,-0.746,0.711,-0.008
13.570,-0.746,0.709,-0.010
13.579,-0.748,0.711,-0.008
13.589,-0.744,0.709,-0.010
13.599,-0.744,0.705,-0.008
13.609,-0.746,0.711,-0.008
13.619,-0.746,0.709,-0.010
13.629,-0.748,0.711,-0.008
13.639,-0.746,0.707,-0.004
13.649,-0.746,0.707,-0.008
13.659,-0.744,0.709,-0.008
13.669,-0.746,0.709,-0.008
13.679,-0.746,0.707,-0.006
13.689,-0.750,0.707,-0.008
13.699,-0.748,0.709,-0.004
13.709,-0.748,0.709,-0.008
13.718,-0.746,0.705,-0.010
13.728,-0.746,0.705,-0.008
13.738,-0.748,0.707,-0.010
13.748,-0.748,0.707,-0.010
13.758,-0.748,0.709,-0.008
13.768,-0.750,0.705,-0.008
13.778,-0.746,0.707,-0.010
13.788,-0.748,0.707,-0.006
13.798,-0.748,0.709,-0.006
13.808,-0.748,0.707,-0.008
13.818,-0.748,0.709,-0.010
13.828,-0.746,0.709,-0.010
13.838,-0.750,0.707,-0.012
13.848,-0.748,0.709,-0.008
13.857,-0.748,0.707,-0.010
13.867,-0.748,0.705,-0.008
13.877,-0.742,0.709,-0.006
13.887,-0.746,0.711,-0.010
13.897,-0.748,0.711,-0.008
13.907,-0.746,0.709,-0.008
13.917,-0.742,0.709,-0.010
13.927,-0.746,0.711,-0.006
13.937,-0.746,0.707,-0.006
13.947,-0.748,0.705,-0.006
13.957,-0.746,0.711,-0.008
13.967,-0.748,0.709,-0.006
13.977,-0.748,0.707,-0.006
13.987,-0.744,0.707,-0.006
13.996,-0.746,0.705,-0.008
14.006,-0.750,0.707,-0.010
14.016,-0.754,0.707,-0.008
14.026,-0.754,0.711,-0.008
14.036,-0.756,0.709,-0.006
14.046,-0.754,0.711,-0.008
14.056,-0.750,0.711,-0.004
14.066,-0.750,0.709,-0.006
14.076,-0.746,0.707,-0.006
14.086,-0.746,0.707,-0.002
14.096,-0.746,0.705,-0.006
14.106,-0.744,0.707,0.000
14.116,-0.744,0.709,-0.004
14.126,-0.744,0.707,-0.006
14.135,-0.748,0.709,-0.004
14.145,-0.746,0.707,-0.004
14.155,-0.746,0.709,-0.008
14.165,-0.748,0.709,-0.006
14.175,-0.742,0.711,-0.004
14.185,-0.746,0.709,-0.004
14.195,-0.746,0.711,-0.004
14.205,-0.748,0.711,-0.006
14.215,-0.746,0.707,-0.006
14.225,-0.746,0.709,-0.004
14.235,-0.750,0.715,-0.002
14.245,-0.746,0.709,-0.006
14.255,-0.742,0.707,0.000
14.265,-0.740,0.703,-0.004
14.274,-0.744,0.709,-0.004
14.284,-0.744,0.711,-0.004
14.294,-0.746,0.715,-0.006
14.304,-0.746,0.711,-0.006
14.314,-0.748,0.715,-0.004
14.324,-0.746,0.711,-0.004
14.334,-0.742,0.709,-0.004
14.344,-0.746,0.709,-0.004
14.354,-0.748,0.707,-0.002
14.364,-0.744,0.713,-0.004
14.374,-0.744,0.711,-0.006
14.384,-0.744,0.713,-0.006
14.394,-0.746,0.709,-0.002
14.404,-0.744,0.711,-0.006
14.413,-0.748,0.711,-0.004
14.423,-0.742,0.711,-0.004
14.433,-0.748,0.711,-0.006
14.443,-0.746,0.709,-0.006
14.453,-0.742,0.711,-0.004
14.463,-0.746,0.711,-0.006
14.473,-0.744,0.715,-0.006
14.483,-0.746,0.711,-0.004
14.493,-0.746,0.711,-0.010
14.503,-0.746,0.713,-0.004
14.513,-0.744,0.711,-0.006
14.523,-0.744,0.715,-0.008
14.533,-0.746,0.709,-0.006
14.543,-0.744,0.709,-0.006
14.552,-0.744,0.709,-0.004
14.562,-0.742,0.711,-0.008
14.572,-0.744,0.709,-0.004
14.582,-0.746,0.709,-0.002
14.592,-0.746,0.707,-0.002
14.602,-0.746,0.709,-0.006
14.612,-0.748,0.709,-0.006
14.622,-0.748,0.705,-0.002
14.632,-0.746,0.709,-0.006
14.642,-0.748,0.711,-0.002
14.652,-0.748,0.705,-0.002
14.662,-0.748,0.705,-0.006
14.672,-0.750,0.707,-0.004
14.682,-0.748,0.707,-0.002
14.691,-0.746,0.707,-0.002
14.701,-0.748,0.709,-0.006
14.711,-0.746,0.709,-0.006
14.721,-0.746,0.709,-0.006
14.731,-0.746,0.709,-0.006
14.741,-0.744,0.709,-0.004
14.751,-0.746,0.711,-0.006
14.761,-0.746,0.711,-0.006
14.771,-0.746,0.707,-0.004
14.781,-0.744,0.709,-0.004
14.791,-0.746,0.709,-0.002
14.801,-0.748,0.711,-0.002
14.811,-0.746,0.707,-0.006
14.821,-0.746,0.707,-0.006
14.830,-0.744,0.709,-0.006
14.840,-0.744,0.709,-0.006
14.850,-0.746,0.715,-0.006
14.860,-0.748,0.709,-0.004
14.870,-0.742,0.711,-0.006
14.880,-0.744,0.713,-0.002
14.890,-0.746,0.715,-0.006
14.900,-0.744,0.707,-0.004
14.910,-0.748,0.709,-0.002
14.920,-0.748,0.709,-0.002
14.930,-0.748,0.711,0.000
14.940,-0.744,0.707,-0.004
14.950,-0.744,0.709,-0.004
14.959,-0.750,0.709,-0.006
14.969,-0.752,0.711,-0.004
14.979,-0.752,0.711,-0.002
14.989,-0.750,0.713,-0.004
14.999,-0.746,0.713,-0.002
15.009,-0.750,0.709,-0.004
15.019,-0.748,0.709,-0.002
15.029,-0.746,0.705,-0.004
15.039,-0.742,0.707,-0.002
15.049,-0.744,0.709,-0.002
15.059,-0.738,0.709,0.000
15.069,-0.744,0.709,-0.002
15.079,-0.744,0.711,0.000
15.089,-0.744,0.707,-0.002
15.098,-0.744,0.709,-0.002
15.108,-0.744,0.709,-0.002
15.118,-0.744,0.707,-0.004
15.128,-0.742,0.709,-0.004
15.138,-0.746,0.707,-0.002
15.148,-0.748,0.705,-0.004
15.158,-0.748,0.709,-0.008
15.168,-0.748,0.703,-0.004
15.178,-0.746,0.707,-0.004
15.188,-0.748,0.715,-0.002
15.198,-0.748,0.713,0.000
15.208,-0.744,0.705,-0.002
15.218,-0.742,0.701,-0.004
15.228,-0.746,0.707,-0.002
15.237,-0.750,0.709,-0.004
15.247,-0.750,0.713,-0.004
15.257,-0.752,0.717,-0.004
15.267,-0.754,0.715,-0.004
15.277,-0.752,0.715,-0.004
15.287,-0.752,0.711,-0.002
15.297,-0.752,0.711,0.000
15.307,-0.746,0.711,0.000
15.317,-0.746,0.709,-0.004
15.327,-0.744,0.709,-0.002
15.337,-0.742,0.711,0.000
15.347,-0.742,0.711,0.002
15.357,-0.742,0.707,0.002
15.367,-0.742,0.711,0.002
15.376,-0.740,0.711,-0.002
15.386,-0.742,0.709,0.004
15.396,-0.744,0.707,0.000
15.406,-0.744,0.707,0.000
15.416,-0.744,0.709,0.000
15.426,-0.744,0.709,0.000
15.436,-0.744,0.707,0.000
15.446,-0.742,0.709,-0.002
15.456,-0.746,0.709,-0.004
15.466,-0.744,0.711,0.002
15.476,-0.746,0.711,-0.002
15.486,-0.746,0.709,-0.002
15.496,-0.750,0.707,0.000
15.506,-0.746,0.709,-0.002
15.515,-0.746,0.709,0.002
15.525,-0.746,0.707,0.000
15.535,-0.746,0.711,0.002
15.545,-0.744,0.709,0.000
15.555,-0.748,0.709,0.000
15.565,-0.752,0.709,0.000
15.575,-0.754,0.711,-0.002
15.585,-0.750,0.705,-0.002
15.595,-0.750,0.709,-0.002
15.605,-0.756,0.707,0.000
15.615,-0.754,0.707,0.000
15.625,-0.752,0.709,0.000
15.635,-0.750,0.711,0.000
15.645,-0.754,0.711,-0.002
15.654,-0.754,0.711,-0.002
15.664,-0.752,0.711,-0.002
15.674,-0.748,0.709,-0.002
15.684,-0.748,0.709,0.000
15.694,-0.748,0.713,-0.004
15.704,-0.744,0.713,-0.002
15.714,-0.744,0.711,-0.002
15.724,-0.746,0.711,-0.004
15.734,-0.744,0.709,-0.002
15.744,-0.740,0.707,-0.002
15.754,-0.738,0.711,-0.004
15.764,-0.738,0.711,0.002
15.774,-0.738,0.715,-0.004
15.784,-0.742,0.709,-0.002
15.793,-0.738,0.713,0.000
15.803,-0.742,0.717,-0.002
15.813,-0.742,0.711,-0.002
15.823,-0.744,0.709,-0.002
15.833,-0.744,0.707,-0.002
15.843,-0.746,0.711,-0.002
15.853,-0.752,0.711,-0.002
15.863,-0.744,0.705,-0.004
15.873,-0.746,0.707,-0.004
15.883,-0.752,0.705,-0.002
15.893,-0.754,0.709,-0.002
15.903,-0.756,0.707,-0.002
15.913,-0.752,0.709,-0.002
15.923,-0.752,0.707,-0.002
15.932,-0.750,0.707,0.002
15.942,-0.752,0.707,-0.002
15.952,-0.748,0.703,-0.002
15.962,-0.750,0.705,0.004
15.972,-0.748,0.707,-0.002
15.982,-0.750,0.707,0.000
15.992,-0.750,0.707,-0.004
16.002,-0.750,0.709,-0.002
16.012,-0.748,0.707,0.000
16.022,-0.746,0.709,0.000
16.032,-0.746,0.711,0.000
16.042,-0.746,0.709,0.002
16.052,-0.746,0.707,0.002
16.062,-0.746,0.713,0.000
16.071,-0.746,0.715,-0.002
16.081,-0.750,0.709,0.000
16.091,-0.746,0.711,0.000
16.101,-0.754,0.713,0.002
16.111,-0.750,0.713,0.004
16.121,-0.742,0.711,0.002
16.131,-0.742,0.707,0.002
16.141,-0.742,0.705,0.000
16.151,-0.746,0.707,0.004
16.161,-0.746,0.711,0.002
16.171,-0.748,0.711,0.000
16.181,-0.746,0.711,0.002
16.191,-0.750,0.711,0.002
16.201,-0.752,0.711,0.000
16.210,-0.748,0.711,0.002
16.220,-0.746,0.709,0.006
16.230,-0.746,0.711,0.006
16.240,-0.744,0.711,0.006
16.250,-0.744,0.711,0.004
16.260,-0.740,0.709,0.002
16.270,-0.742,0.709,0.006
16.280,-0.744,0.711,0.004
16.290,-0.740,0.711,0.004
16.300,-0.740,0.713,0.002
16.310,-0.740,0.713,0.002
16.320,-0.742,0.713,0.000
16.330,-0.742,0.713,0.000
16.340,-0.742,0.715,0.000
16.349,-0.740,0.713,-0.002
16.359,-0.744,0.717,-0.002
16.369,-0.746,0.719,0.000
16.379,-0.746,0.719,-0.002
16.389,-0.750,0.721,-0.002
16.399,-0.746,0.719,-0.004
16.409,-0.742,0.715,-0.004
16.419,-0.746,0.715,-0.002
16.429,-0.740,0.713,-0.002
16.439,-0.740,0.713,0.000
16.449,-0.736,0.717,0.000
16.459,-0.738,0.715,0.000
16.469,-0.738,0.715,0.000
16.479,-0.738,0.715,-0.002
16.488,-0.742,0.717,0.004
16.498,-0.740,0.717,0.000
16.508,-0.742,0.715,0.000
16.518,-0.742,0.715,0.002
16.528,-0.740,0.713,0.002
16.538,-0.744,0.711,0.002
16.548,-0.742,0.711,0.002
16.558,-0.740,0.707,0.006
16.568,-0.744,0.709,0.004
16.578,-0.742,0.705,0.002
16.588,-0.744,0.711,0.006
16.598,-0.748,0.711,0.002
16.608,-0.746,0.713,0.002
16.618,-0.744,0.711,0.004
16.627,-0.744,0.711,0.002
16.637,-0.746,0.711,-0.002
16.647,-0.742,0.705,0.002
16.657,-0.742,0.705,0.002
16.667,-0.742,0.709,0.000
16.677,-0.746,0.713,0.000
16.687,-0.746,0.713,0.002
16.697,-0.750,0.715,-0.002
16.707,-0.752,0.709,0.000
16.717,-0.756,0.711,-0.002
16.727,-0.758,0.711,-0.004
16.737,-0.758,0.711,-0.004
16.747,-0.754,0.713,0.000
16.756,-0.752,0.715,0.000
16.766,-0.748,0.711,0.000
16.776,-0.748,0.711,-0.002
16.786,-0.748,0.713,0.002
16.796,-0.748,0.713,0.002
16.806,-0.746,0.715,0.004
16.816,-0.742,0.713,0.006
16.826,-0.744,0.711,0.004
16.836,-0.746,0.711,0.006
16.846,-0.742,0.707,0.006
16.856,-0.750,0.709,0.004
16.866,-0.744,0.707,0.010
16.876,-0.744,0.705,0.008
16.886,-0.744,0.709,0.006
16.895,-0.746,0.711,0.006
16.905,-0.750,0.707,0.006
16.915,-0.744,0.701,0.006
16.925,-0.748,0.707,0.008
16.935,-0.752,0.717,0.010
16.945,-0.748,0.711,0.008
16.955,-0.744,0.705,0.006
16.965,-0.744,0.705,0.008
16.975,-0.746,0.709,0.004
16.985,-0.750,0.711,0.004
16.995,-0.752,0.713,0.002
17.005,-0.746,0.713,0.006
17.015,-0.746,0.717,0.006
17.025,-0.746,0.713,0.008
17.034,-0.746,0.713,0.008
17.044,-0.748,0.713,0.002
17.054,-0.744,0.713,0.006
17.064,-0.740,0.715,0.006
17.074,-0.742,0.713,0.008
17.084,-0.740,0.717,0.008
17.094,-0.740,0.717,0.010
17.104,-0.742,0.715,0.008
17.114,-0.742,0.713,0.012
17.124,-0.744,0.711,0.008
17.134,-0.744,0.715,0.008
17.144,-0.742,0.711,0.012
17.154,-0.748,0.713,0.008
17.164,-0.746,0.713,0.006
17.173,-0.748,0.709,0.010
17.183,-0.748,0.711,0.008
17.193,-0.746,0.711,0.010
17.203,-0.746,0.711,0.006
17.213,-0.746,0.711,0.010
17.223,-0.746,0.711,0.012
17.233,-0.748,0.711,0.010
17.243,-0.746,0.711,0.010
17.253,-0.746,0.713,0.012
17.263,-0.748,0.713,0.010
17.273,-0.748,0.711,0.010
17.283,-0.746,0.711,0.012
17.293,-0.746,0.713,0.012
17.303,-0.746,0.709,0.014
17.312,-0.746,0.709,0.014
17.322,-0.746,0.705,0.014
17.332,-0.748,0.707,0.012
17.342,-0.746,0.709,0.012
17.352,-0.750,0.705,0.012
17.362,-0.750,0.705,0.012
17.372,-0.752,0.709,0.008
17.382,-0.748,0.709,0.014
17.392,-0.750,0.705,0.012
17.402,-0.752,0.707,0.008
17.412,-0.748,0.707,0.008
17.422,-0.750,0.705,0.008
17.432,-0.748,0.711,0.010
17.442,-0.748,0.709,0.008
17.451,-0.750,0.707,0.006
17.461,-0.746,0.705,0.006
17.471,-0.748,0.705,0.012
17.481,-0.744,0.705,0.006
17.491,-0.744,0.711,0.008
17.501,-0.746,0.711,0.006
17.511,-0.748,0.711,0.004
17.521,-0.750,0.715,0.008
17.531,-0.750,0.717,0.006
17.541,-0.746,0.713,0.006
17.551,-0.750,0.711,0.006
17.561,-0.754,0.715,0.006
17.571,-0.758,0.719,0.004
17.581,-0.754,0.717,0.004
17.590,-0.756,0.713,-0.002
17.600,-0.754,0.713,-0.002
17.610,-0.756,0.713,0.000
17.620,-0.758,0.715,-0.002
17.630,-0.758,0.715,0.000
17.640,-0.756,0.715,-0.002
17.650,-0.754,0.713,0.000
17.660,-0.754,0.715,0.002
17.670,-0.748,0.713,0.002
17.680,-0.748,0.709,0.004
17.690,-0.748,0.711,0.002
17.700,-0.744,0.711,0.004
17.710,-0.744,0.713,0.002
17.720,-0.742,0.715,0.000
17.729,-0.744,0.713,0.004
17.739,-0.738,0.715,-0.002
17.749,-0.740,0.713,-0.002
17.759,-0.730,0.721,0.000
17.769,-0.732,0.723,0.000
17.779,-0.729,0.725,0.000
17.789,-0.725,0.729,0.000
17.799,-0.729,0.730,-0.002
17.809,-0.725,0.734,0.000
17.819,-0.717,0.732,0.000
17.829,-0.719,0.742,0.000
17.839,-0.719,0.752,0.002
17.849,-0.711,0.748,0.004
17.859,-0.705,0.748,0.002
17.868,-0.703,0.746,0.006
17.878,-0.705,0.750,0.008
17.888,-0.705,0.752,0.010
17.898,-0.709,0.758,0.010
17.908,-0.711,0.764,0.014
17.918,-0.709,0.766,0.018
17.928,-0.703,0.764,0.023
17.938,-0.703,0.762,0.023
17.948,-0.697,0.762,0.027
17.958,-0.691,0.768,0.031
17.968,-0.695,0.771,0.033
17.978,-0.691,0.766,0.039
17.988,-0.689,0.768,0.045
17.998,-0.689,0.766,0.051
18.007,-0.684,0.768,0.051
18.017,-0.682,0.770,0.061
18.027,-0.682,0.768,0.061
18.037,-0.674,0.768,0.064
18.047,-0.674,0.773,0.070
18.057,-0.672,0.770,0.074
18.067,-0.666,0.771,0.078
18.077,-0.668,0.775,0.080
18.087,-0.664,0.771,0.088
18.097,-0.664,0.771,0.090
18.107,-0.664,0.773,0.094
18.117,-0.664,0.779,0.098
18.127,-0.662,0.773,0.104
18.137,-0.660,0.773,0.100
18.146,-0.660,0.775,0.104
18.156,-0.658,0.771,0.109
18.166,-0.658,0.771,0.107
18.176,-0.662,0.771,0.111
18.186,-0.664,0.766,0.111
18.196,-0.668,0.756,0.115
18.206,-0.668,0.760,0.121
18.216,-0.674,0.760,0.121
18.226,-0.680,0.754,0.123
18.236,-0.678,0.754,0.123
18.246,-0.686,0.754,0.125
18.256,-0.688,0.748,0.121
18.266,-0.691,0.744,0.123
18.276,-0.693,0.740,0.123
18.285,-0.688,0.734,0.123
18.295,-0.684,0.736,0.117
18.305,-0.686,0.738,0.117
18.315,-0.688,0.740,0.117
18.325,-0.686,0.740,0.113
18.335,-0.684,0.746,0.111
18.345,-0.686,0.746,0.105
18.355,-0.688,0.748,0.105
18.365,-0.688,0.750,0.102
18.375,-0.686,0.752,0.096
18.385,-0.686,0.752,0.092
18.395,-0.684,0.754,0.086
18.405,-0.688,0.752,0.082
18.415,-0.688,0.756,0.074
18.424,-0.697,0.756,0.072
18.434,-0.705,0.754,0.059
18.444,-0.707,0.756,0.057
18.454,-0.709,0.756,0.053
18.464,-0.713,0.752,0.047
18.474,-0.717,0.752,0.041
18.484,-0.715,0.754,0.037
18.494,-0.715,0.748,0.033
18.504,-0.713,0.746,0.027
18.514,-0.709,0.746,0.027
18.524,-0.713,0.748,0.023
18.534,-0.715,0.746,0.021
18.544,-0.717,0.746,0.021
18.554,-0.721,0.748,0.014
18.563,-0.721,0.746,0.014
18.573,-0.723,0.744,0.010
18.583,-0.727,0.742,0.010
18.593,-0.721,0.734,0.006
18.603,-0.725,0.740,0.006
18.613,-0.727,0.738,0.004
18.623,-0.723,0.740,0.004
18.633,-0.725,0.734,0.002
18.643,-0.725,0.725,0.002
18.653,-0.729,0.730,0.000
18.663,-0.734,0.732,-0.002
18.673,-0.732,0.723,-0.006
18.683,-0.736,0.719,-0.008
18.692,-0.742,0.717,-0.014
18.702,-0.746,0.719,-0.018
18.712,-0.754,0.721,-0.020
18.722,-0.762,0.723,-0.020
18.732,-0.764,0.721,-0.021
18.742,-0.766,0.715,-0.025
18.752,-0.770,0.715,-0.023
18.762,-0.768,0.713,-0.027
18.772,-0.766,0.709,-0.029
18.782,-0.764,0.703,-0.025
18.792,-0.764,0.701,-0.029
18.802,-0.766,0.701,-0.031
18.812,-0.762,0.705,-0.031
18.822,-0.762,0.701,-0.027
18.831,-0.764,0.699,-0.029
18.841,-0.762,0.697,-0.027
18.851,-0.762,0.699,-0.029
18.861,-0.764,0.699,-0.025
18.871,-0.764,0.701,-0.029
18.881,-0.760,0.699,-0.025
18.891,-0.754,0.697,-0.025
18.901,-0.756,0.697,-0.021
18.911,-0.752,0.701,-0.020
18.921,-0.748,0.701,-0.023
18.931,-0.748,0.703,-0.021
18.941,-0.750,0.703,-0.016
18.951,-0.752,0.701,-0.016
18.961,-0.750,0.701,-0.016
18.970,-0.752,0.699,-0.014
18.980,-0.756,0.697,-0.012
18.990,-0.756,0.703,-0.014
19.000,-0.756,0.701,-0.012
19.010,-0.758,0.699,-0.010
19.020,-0.758,0.697,-0.008
19.030,-0.754,0.695,-0.006
19.040,-0.752,0.693,-0.006
19.050,-0.758,0.699,-0.006
19.060,-0.756,0.699,-0.006
19.070,-0.758,0.697,-0.004
19.080,-0.756,0.697,-0.006
19.090,-0.758,0.703,-0.006
19.100,-0.760,0.703,-0.004
19.109,-0.756,0.701,-0.004
19.119,-0.754,0.705,-0.004
19.129,-0.754,0.707,-0.008
19.139,-0.758,0.713,-0.006
19.149,-0.760,0.715,-0.006
19.159,-0.758,0.715,-0.004
19.169,-0.754,0.719,-0.010
19.179,-0.754,0.717,-0.006
19.189,-0.752,0.717,-0.006
19.199,-0.754,0.715,-0.006
19.209,-0.752,0.715,-0.004
19.219,-0.750,0.713,-0.006
19.229,-0.752,0.711,-0.004
19.239,-0.748,0.709,-0.002
19.248,-0.746,0.707,-0.002
19.258,-0.742,0.707,-0.002
19.268,-0.742,0.707,0.000
19.278,-0.744,0.705,0.004
19.288,-0.740,0.709,0.004
19.298,-0.740,0.709,0.006
19.308,-0.742,0.705,0.012
19.318,-0.742,0.709,0.004
19.328,-0.744,0.709,0.008
19.338,-0.742,0.705,0.010
19.348,-0.746,0.711,0.008
19.358,-0.750,0.707,0.006
19.368,-0.748,0.697,0.008
19.378,-0.748,0.699,0.008
19.387,-0.758,0.701,0.010
19.397,-0.758,0.699,0.010
19.407,-0.754,0.697,0.008
19.417,-0.752,0.691,0.006
19.427,-0.754,0.689,0.006
19.437,-0.762,0.693,0.010
19.447,-0.760,0.691,0.006
19.457,-0.760,0.695,0.006
19.467,-0.760,0.691,0.006
19.477,-0.760,0.691,0.008
19.487,-0.760,0.695,0.004
19.497,-0.762,0.695,0.004
19.507,-0.766,0.697,0.006
19.517,-0.752,0.701,-0.002
19.526,-0.764,0.705,0.004
19.536,-0.764,0.705,0.000
19.546,-0.764,0.713,-0.004
19.556,-0.764,0.711,-0.002
19.566,-0.762,0.713,0.000
19.576,-0.758,0.715,0.002
19.586,-0.762,0.719,0.000
19.596,-0.758,0.711,-0.002
19.606,-0.754,0.713,0.002
19.616,-0.752,0.709,0.002
19.626,-0.750,0.705,0.002
19.636,-0.746,0.707,0.004
19.646,-0.748,0.711,0.008
19.656,-0.748,0.709,0.010
19.665,-0.746,0.707,0.008
19.675,-0.748,0.711,0.012
19.685,-0.744,0.707,0.012
19.695,-0.750,0.707,0.012
19.705,-0.744,0.707,0.016
19.715,-0.748,0.703,0.016
19.725,-0.746,0.699,0.012
19.735,-0.746,0.701,0.016
19.745,-0.746,0.697,0.018
19.755,-0.748,0.697,0.018
19.765,-0.750,0.693,0.018
19.775,-0.752,0.695,0.021
19.785,-0.754,0.697,0.020
19.795,-0.756,0.689,0.014
19.804,-0.756,0.693,0.020
19.814,-0.760,0.693,0.018
19.824,-0.760,0.689,0.018
19.834,-0.758,0.693,0.020
19.844,-0.760,0.691,0.020
19.854,-0.760,0.697,0.016
19.864,-0.760,0.699,0.018
19.874,-0.764,0.693,0.010
19.884,-0.762,0.697,0.012
19.894,-0.762,0.695,0.010
19.904,-0.762,0.699,0.010
19.914,-0.766,0.699,0.010
19.924,-0.766,0.705,0.014
19.934,-0.771,0.711,0.012
19.943,-0.764,0.717,0.014
19.953,-0.758,0.707,0.010
19.963,-0.758,0.711,0.008
19.973,-0.758,0.715,0.008
19.983,-0.760,0.713,0.014
19.993,-0.750,0.711,0.010
20.003,-0.754,0.713,0.014
20.013,-0.750,0.711,0.014
20.023,-0.752,0.709,0.014
20.033,-0.748,0.705,0.010
20.043,-0.746,0.705,0.014
20.053,-0.748,0.705,0.016
20.063,-0.750,0.711,0.012
20.073,-0.746,0.705,0.014
20.082,-0.740,0.697,0.012
20.092,-0.750,0.705,0.018
20.102,-0.750,0.705,0.018
20.112,-0.742,0.699,0.016
20.122,-0.740,0.695,0.018
20.132,-0.748,0.693,0.012
20.142,-0.754,0.697,0.010
20.152,-0.760,0.693,0.014
20.162,-0.760,0.686,0.012
20.172,-0.764,0.688,0.010
20.182,-0.770,0.693,0.012
20.192,-0.768,0.691,0.012
20.202,-0.756,0.691,0.010
20.212,-0.756,0.693,0.002
20.221,-0.758,0.695,0.000
20.231,-0.760,0.699,0.004
20.241,-0.768,0.701,-0.002
20.251,-0.766,0.701,0.002
20.261,-0.764,0.701,-0.004
20.271,-0.766,0.705,-0.006
20.281,-0.768,0.709,-0.006
20.291,-0.766,0.711,-0.008
20.301,-0.764,0.713,-0.008
20.311,-0.764,0.711,-0.008
20.321,-0.762,0.713,-0.010
20.331,-0.758,0.713,-0.008
20.341,-0.758,0.713,-0.010
20.351,-0.756,0.711,-0.010
20.360,-0.750,0.711,-0.006
20.370,-0.750,0.709,-0.010
20.380,-0.750,0.707,-0.008
20.390,-0.748,0.711,-0.006
20.400,-0.744,0.711,-0.010
20.410,-0.742,0.711,-0.008
20.420,-0.742,0.709,-0.006
20.430,-0.742,0.705,-0.006
20.440,-0.738,0.707,-0.004
20.450,-0.740,0.709,0.000
20.460,-0.748,0.713,-0.002
20.470,-0.746,0.709,0.002
20.480,-0.746,0.707,0.000
20.490,-0.746,0.705,0.002
20.499,-0.746,0.705,0.004
20.509,-0.752,0.701,0.004
20.519,-0.754,0.693,0.004
20.529,-0.758,0.691,0.006
20.539,-0.758,0.695,0.008
20.549,-0.760,0.689,0.006
20.559,-0.762,0.689,0.010
20.569,-0.762,0.689,0.008
20.579,-0.760,0.689,0.008
20.589,-0.762,0.693,0.004
20.599,-0.762,0.695,0.004
20.609,-0.760,0.689,0.004
20.619,-0.758,0.693,0.006
20.628,-0.762,0.701,0.008
20.638,-0.758,0.697,0.002
20.648,-0.758,0.703,0.002
20.658,-0.760,0.711,0.000
20.668,-0.760,0.715,0.000
20.678,-0.760,0.717,-0.004
20.688,-0.756,0.719,-0.002
20.698,-0.754,0.717,-0.004
20.708,-0.754,0.717,-0.008
20.718,-0.756,0.713,-0.008
20.728,-0.758,0.711,-0.006
20.738,-0.758,0.713,-0.004
20.748,-0.752,0.713,-0.008
20.758,-0.754,0.709,0.000
20.767,-0.746,0.707,-0.004
20.777,-0.744,0.705,0.002
20.787,-0.740,0.713,0.006
20.797,-0.744,0.705,0.004
20.807,-0.744,0.709,0.006
20.817,-0.742,0.709,0.004
20.827,-0.742,0.703,0.006
20.837,-0.742,0.709,0.010
20.847,-0.740,0.707,0.006
20.857,-0.740,0.705,0.010
20.867,-0.742,0.701,0.008
20.877,-0.744,0.703,0.012
20.887,-0.746,0.699,0.010
20.897,-0.748,0.695,0.012
20.906,-0.754,0.699,0.014
20.916,-0.756,0.697,0.012
20.926,-0.752,0.688,0.010
20.936,-0.750,0.689,0.010
20.946,-0.752,0.689,0.008
20.956,-0.756,0.691,0.008
20.966,-0.760,0.691,0.004
20.976,-0.762,0.695,0.002
20.986,-0.764,0.699,0.002
20.996,-0.766,0.701,-0.002
21.006,-0.766,0.703,-0.002
21.016,-0.764,0.707,-0.004
21.026,-0.764,0.707,-0.004
21.036,-0.768,0.707,-0.004
21.045,-0.760,0.711,-0.008
21.055,-0.760,0.713,-0.010
21.065,-0.758,0.713,-0.008
21.075,-0.756,0.709,-0.014
21.085,-0.756,0.713,-0.008
21.095,-0.752,0.709,-0.010
21.105,-0.752,0.713,-0.006
21.115,-0.746,0.717,-0.008
21.125,-0.746,0.715,-0.006
21.135,-0.744,0.717,-0.004
21.145,-0.742,0.715,-0.002
21.155,-0.740,0.715,-0.002
21.165,-0.738,0.715,0.002
21.175,-0.738,0.717,0.000
21.184,-0.738,0.713,0.004
21.194,-0.740,0.713,0.002
21.204,-0.740,0.713,0.004
21.214,-0.740,0.713,0.006
21.224,-0.742,0.711,0.008
21.234,-0.742,0.707,0.010
21.244,-0.742,0.703,0.008
21.254,-0.744,0.707,0.012
21.264,-0.746,0.701,0.012
21.274,-0.750,0.699,0.010
21.284,-0.744,0.695,0.006
21.294,-0.748,0.697,0.006
21.304,-0.752,0.703,0.010
21.314,-0.752,0.691,0.004
21.323,-0.752,0.693,0.004
21.333,-0.756,0.695,0.004
21.343,-0.756,0.697,0.002
21.353,-0.762,0.701,0.002
21.363,-0.760,0.703,0.000
21.373,-0.762,0.705,0.000
21.383,-0.760,0.705,-0.006
21.393,-0.766,0.709,-0.004
21.403,-0.766,0.711,-0.006
21.413,-0.766,0.711,-0.004
21.423,-0.762,0.713,-0.006
21.433,-0.760,0.711,-0.004
21.443,-0.758,0.709,-0.006
21.453,-0.752,0.711,-0.004
21.462,-0.748,0.711,0.000
21.472,-0.744,0.709,-0.002
21.482,-0.744,0.705,0.000
21.492,-0.738,0.711,0.000
21.502,-0.744,0.713,-0.002
21.512,-0.738,0.709,0.000
21.522,-0.738,0.709,0.002
21.532,-0.738,0.711,0.002
21.542,-0.738,0.709,0.000
21.552,-0.744,0.709,0.004
21.562,-0.742,0.709,0.004
21.572,-0.740,0.697,0.004
21.582,-0.742,0.703,0.008
21.592,-0.750,0.709,0.006
21.601,-0.742,0.701,0.010
21.611,-0.742,0.697,0.010
21.621,-0.744,0.693,0.006
21.631,-0.750,0.695,0.008
21.641,-0.754,0.697,0.006
21.651,-0.756,0.697,0.000
21.661,-0.758,0.699,0.000
21.671,-0.764,0.701,0.002
21.681,-0.764,0.699,0.000
21.691,-0.766,0.701,0.000
21.701,-0.758,0.701,-0.002
21.711,-0.760,0.707,0.000
21.721,-0.758,0.707,-0.006
21.731,-0.758,0.711,-0.004
21.740,-0.756,0.713,-0.004
21.750,-0.754,0.713,-0.006
21.760,-0.754,0.711,-0.006
21.770,-0.752,0.715,-0.006
21.780,-0.750,0.715,-0.008
21.790,-0.748,0.711,-0.004
21.800,-0.748,0.713,-0.010
21.810,-0.744,0.715,-0.008
21.820,-0.746,0.713,-0.004
21.830,-0.740,0.713,-0.006
21.840,-0.736,0.717,-0.004
21.850,-0.738,0.713,0.000
21.860,-0.736,0.715,0.000
21.870,-0.736,0.713,0.000
21.879,-0.738,0.717,0.002
21.889,-0.736,0.713,0.002
21.899,-0.738,0.713,0.000
21.909,-0.740,0.711,0.002
21.919,-0.742,0.709,0.006
21.929,-0.744,0.707,0.002
21.939,-0.748,0.707,0.004
21.949,-0.748,0.705,0.002
21.959,-0.744,0.699,0.004
21.969,-0.750,0.699,0.000
21.979,-0.752,0.697,0.002
21.989,-0.754,0.701,0.000
21.999,-0.756,0.695,0.000
22.009,-0.760,0.697,0.002
22.018,-0.758,0.699,0.000
22.028,-0.760,0.699,-0.002
22.038,-0.760,0.697,-0.002
22.048,-0.760,0.699,-0.002
22.058,-0.758,0.699,-0.006
22.068,-0.762,0.705,-0.002
22.078,-0.762,0.705,-0.004
22.088,-0.758,0.705,-0.006
22.098,-0.762,0.709,-0.006
22.108,-0.764,0.715,-0.006
22.118,-0.764,0.711,-0.006
22.128,-0.762,0.713,-0.008
22.138,-0.760,0.713,-0.006
22.148,-0.756,0.715,-0.010
22.157,-0.756,0.713,-0.004
22.167,-0.756,0.713,-0.004
22.177,-0.750,0.713,-0.004
22.187,-0.748,0.713,-0.004
22.197,-0.742,0.715,-0.002
22.207,-0.742,0.711,0.002
22.217,-0.740,0.711,0.002
22.227,-0.740,0.713,0.002
22.237,-0.736,0.707,0.004
22.247,-0.736,0.709,0.006
22.257,-0.736,0.711,0.004
22.267,-0.740,0.711,0.010
22.277,-0.744,0.709,0.008
22.287,-0.740,0.701,0.008
22.296,-0.744,0.707,0.008
22.306,-0.742,0.713,0.012
22.316,-0.742,0.705,0.006
22.326,-0.740,0.697,0.008
22.336,-0.742,0.703,0.010
22.346,-0.744,0.701,0.008
22.356,-0.750,0.701,0.004
22.366,-0.750,0.701,0.008
22.376,-0.752,0.705,0.000
22.386,-0.758,0.701,0.004
22.396,-0.756,0.701,0.000
22.406,-0.758,0.699,-0.002
22.416,-0.756,0.701,0.000
22.425,-0.756,0.701,0.000
22.435,-0.756,0.705,0.000
22.445,-0.754,0.705,-0.008
22.455,-0.756,0.705,-0.004
22.465,-0.756,0.705,-0.002
22.475,-0.758,0.707,-0.006
22.485,-0.758,0.707,-0.006
22.495,-0.758,0.707,-0.006
22.505,-0.758,0.713,-0.006
22.515,-0.758,0.711,-0.008
22.525,-0.758,0.709,-0.004
22.535,-0.756,0.709,-0.008
22.545,-0.756,0.707,-0.004
22.555,-0.754,0.711,-0.006
22.564,-0.752,0.711,-0.004
22.574,-0.752,0.711,-0.004
22.584,-0.750,0.709,-0.002
22.594,-0.750,0.711,0.000
22.604,-0.744,0.713,-0.002
22.614,-0.750,0.711,0.004
22.624,-0.750,0.709,0.002
22.634,-0.746,0.709,0.002
22.644,-0.746,0.709,0.004
22.654,-0.748,0.703,0.002
22.664,-0.748,0.703,0.006
22.674,-0.746,0.705,0.006
22.684,-0.750,0.703,0.006
22.694,-0.748,0.701,0.008
22.703,-0.752,0.697,0.008
22.713,-0.750,0.699,0.006
22.723,-0.752,0.699,0.006
22.733,-0.754,0.701,0.008
22.743,-0.754,0.701,0.008
22.753,-0.752,0.699,0.004
22.763,-0.754,0.705,0.010
22.773,-0.760,0.705,0.008
22.783,-0.758,0.699,0.008
22.793,-0.756,0.699,0.004
22.803,-0.756,0.699,0.006
22.813,-0.756,0.705,0.004
22.823,-0.756,0.705,0.006
22.833,-0.758,0.705,0.004
22.842,-0.758,0.707,0.002
22.852,-0.760,0.705,0.002
22.862,-0.762,0.705,0.004
22.872,-0.760,0.705,0.004
22.882,-0.762,0.705,0.000
22.892,-0.756,0.705,0.002
22.902,-0.752,0.705,0.008
22.912,-0.750,0.703,0.000
22.922,-0.752,0.703,0.006
22.932,-0.748,0.705,0.004
22.942,-0.746,0.705,0.006
22.952,-0.748,0.705,0.006
22.962,-0.746,0.707,0.006
22.972,-0.744,0.705,0.004
22.981,-0.746,0.701,0.004
22.991,-0.748,0.703,0.004
23.001,-0.744,0.709,0.004
23.011,-0.748,0.707,0.008
23.021,-0.752,0.703,0.008
23.031,-0.750,0.699,0.006
23.041,-0.750,0.695,0.002
23.051,-0.758,0.705,0.008
23.061,-0.760,0.707,0.004
23.071,-0.758,0.701,0.006
23.081,-0.752,0.697,0.004
23.091,-0.750,0.697,0.004
23.101,-0.758,0.699,0.002
23.111,-0.760,0.697,0.004
23.120,-0.760,0.703,0.004
23.130,-0.762,0.705,0.000
23.140,-0.762,0.703,0.002
23.150,-0.762,0.703,0.000
23.160,-0.758,0.703,0.000
23.170,-0.756,0.703,0.004
23.180,-0.756,0.709,-0.002
23.190,-0.756,0.705,-0.004
23.200,-0.758,0.703,0.002
23.210,-0.754,0.707,-0.002
23.220,-0.752,0.707,0.002
23.230,-0.752,0.707,0.000
23.240,-0.752,0.709,0.000
23.250,-0.750,0.709,-0.002
23.259,-0.750,0.707,0.000
23.269,-0.750,0.709,-0.002
23.279,-0.750,0.709,0.000
23.289,-0.748,0.711,0.000
23.299,-0.746,0.709,0.002
23.309,-0.744,0.709,0.002
23.319,-0.748,0.709,0.002
23.329,-0.748,0.709,0.000
23.339,-0.750,0.707,0.002
23.349,-0.748,0.707,0.004
23.359,-0.748,0.707,0.006
23.369,-0.748,0.707,0.004
23.379,-0.750,0.705,0.004
23.389,-0.748,0.701,0.004
23.398,-0.748,0.703,0.002
23.408,-0.750,0.703,0.002
23.418,-0.748,0.703,0.000
23.428,-0.746,0.701,0.004
23.438,-0.746,0.707,0.002
23.448,-0.748,0.707,0.004
23.458,-0.752,0.709,0.004
23.468,-0.750,0.707,0.002
23.478,-0.750,0.705,0.000
23.488,-0.750,0.707,0.004
23.498,-0.750,0.709,0.002
23.508,-0.748,0.707,0.004
23.518,-0.752,0.705,0.002
23.528,-0.752,0.709,0.004
23.537,-0.752,0.711,0.004
23.547,-0.752,0.711,0.004
23.557,-0.748,0.709,0.002
23.567,-0.750,0.707,0.000
23.577,-0.752,0.709,0.006
23.587,-0.754,0.707,-0.002
23.597,-0.758,0.711,0.002
23.607,-0.756,0.707,0.002
23.617,-0.756,0.709,0.002
23.627,-0.754,0.705,0.002
23.637,-0.752,0.707,0.002
23.647,-0.750,0.707,0.004
23.657,-0.748,0.703,0.002
23.667,-0.750,0.705,0.006
23.676,-0.750,0.703,0.008
23.686,-0.750,0.703,0.004
23.696,-0.748,0.703,0.006
23.706,-0.748,0.705,0.002
23.716,-0.750,0.707,0.002
23.726,-0.750,0.707,0.002
23.736,-0.752,0.709,0.004
23.746,-0.748,0.711,0.006
23.756,-0.754,0.705,0.004
23.766,-0.746,0.701,0.008
23.776,-0.752,0.715,0.006
23.786,-0.750,0.713,0.010
23.796,-0.748,0.705,0.004
23.806,-0.742,0.703,0.006
23.815,-0.750,0.705,0.002
23.825,-0.752,0.709,0.008
23.835,-0.750,0.707,0.004
23.845,-0.752,0.709,0.004
23.855,-0.752,0.715,0.006
23.865,-0.750,0.711,0.004
23.875,-0.752,0.709,0.004
23.885,-0.752,0.709,0.004
23.895,-0.750,0.707,0.006
23.905,-0.752,0.707,0.004
23.915,-0.750,0.707,0.004
23.925,-0.750,0.707,0.002
23.935,-0.748,0.707,0.006
23.945,-0.746,0.705,0.002
23.954,-0.748,0.707,0.002
23.964,-0.748,0.705,0.000
23.974,-0.750,0.707,0.004
23.984,-0.750,0.707,0.006
23.994,-0.748,0.711,0.000
24.004,-0.748,0.711,0.004
24.014,-0.748,0.709,0.004
24.024,-0.748,0.707,0.000
24.034,-0.748,0.709,0.002
24.044,-0.748,0.711,0.004
24.054,-0.748,0.711,0.002
24.064,-0.750,0.709,0.000
24.074,-0.752,0.707,0.002
24.084,-0.750,0.711,0.004
24.093,-0.750,0.707,0.004
24.103,-0.750,0.709,0.000
24.113,-0.750,0.707,0.004
24.123,-0.750,0.709,0.004
24.133,-0.746,0.707,0.004
24.143,-0.750,0.707,0.004
24.153,-0.750,0.705,0.004
24.163,-0.750,0.707,0.006
24.173,-0.752,0.707,0.002
24.183,-0.750,0.707,0.002
24.193,-0.754,0.707,0.004
24.203,-0.752,0.709,0.004
24.213,-0.752,0.707,0.000
24.223,-0.750,0.707,0.002
24.232,-0.752,0.705,0.002
24.242,-0.754,0.707,0.002
24.252,-0.752,0.707,0.000
24.262,-0.746,0.709,0.004
24.272,-0.748,0.705,0.004
24.282,-0.748,0.707,0.006
24.292,-0.750,0.709,0.002
24.302,-0.752,0.709,0.000
24.312,-0.750,0.711,0.002
24.322,-0.750,0.709,0.004
24.332,-0.750,0.707,0.002
24.342,-0.750,0.709,0.002
24.352,-0.750,0.709,0.000
24.361,-0.748,0.715,0.006
24.371,-0.746,0.709,0.008
24.381,-0.742,0.707,0.004
24.391,-0.748,0.707,0.004
24.401,-0.748,0.711,0.002
24.411,-0.754,0.711,0.004
24.421,-0.754,0.711,0.002
24.431,-0.754,0.709,0.006
24.441,-0.754,0.711,0.004
24.451,-0.752,0.707,0.004
24.461,-0.752,0.705,0.006
24.471,-0.750,0.705,0.006
24.481,-0.748,0.707,0.004
24.491,-0.746,0.707,0.004
24.500,-0.746,0.707,0.006
24.510,-0.748,0.705,0.006
24.520,-0.746,0.709,0.002
24.530,-0.748,0.705,0.006
24.540,-0.748,0.707,0.006
24.550,-0.748,0.707,0.004
24.560,-0.746,0.707,0.004
24.570,-0.750,0.711,0.002
24.580,-0.748,0.709,0.004
24.590,-0.750,0.709,0.004
24.600,-0.748,0.707,0.006
24.610,-0.750,0.713,0.006
24.620,-0.752,0.713,0.004
24.630,-0.746,0.707,0.002
24.639,-0.744,0.705,0.004
24.649,-0.746,0.707,0.002
24.659,-0.748,0.707,0.002
24.669,-0.750,0.709,0.002
24.679,-0.754,0.711,-0.004
24.689,-0.750,0.711,0.002
24.699,-0.750,0.709,0.002
24.709,-0.754,0.705,0.000
24.719,-0.752,0.709,-0.002
24.729,-0.752,0.709,0.002
24.739,-0.752,0.709,0.002
24.749,-0.750,0.709,0.002
24.759,-0.750,0.711,0.000
24.769,-0.748,0.709,0.004
24.778,-0.748,0.709,0.004
24.788,-0.748,0.711,0.002
24.798,-0.748,0.707,0.004
24.808,-0.746,0.709,0.006
24.818,-0.748,0.709,0.006
24.828,-0.746,0.709,0.002
24.838,-0.748,0.709,0.002
24.848,-0.744,0.709,0.004
24.858,-0.746,0.705,0.002
24.868,-0.746,0.707,0.000
24.878,-0.748,0.709,0.006
24.888,-0.748,0.713,0.004
24.898,-0.748,0.713,0.000
24.908,-0.748,0.715,-0.002
24.917,-0.750,0.711,0.002
24.927,-0.746,0.711,0.002
24.937,-0.748,0.711,0.002
24.947,-0.748,0.711,0.000
24.957,-0.748,0.711,0.004
24.967,-0.750,0.711,0.000
24.977,-0.746,0.709,0.000
24.987,-0.746,0.709,0.002
24.997,-0.746,0.711,0.002
25.007,-0.748,0.713,0.000
25.017,-0.748,0.709,0.002
25.027,-0.746,0.707,0.000
25.037,-0.750,0.709,0.002
25.047,-0.748,0.711,0.000
25.056,-0.746,0.711,-0.002
25.066,-0.746,0.709,0.002
25.076,-0.750,0.707,0.000
25.086,-0.746,0.713,0.002
25.096,-0.746,0.707,0.000
25.106,-0.752,0.711,0.002
25.116,-0.750,0.715,0.004
25.126,-0.748,0.709,0.000
25.136,-0.746,0.709,0.000
25.146,-0.746,0.713,0.002
25.156,-0.748,0.711,0.006
25.166,-0.748,0.707,-0.002
25.176,-0.750,0.705,0.004
25.186,-0.750,0.707,0.002
25.195,-0.752,0.709,0.006
25.205,-0.752,0.707,0.002
25.215,-0.748,0.705,0.002
25.225,-0.750,0.705,-0.002
25.235,-0.752,0.709,0.002
25.245,-0.754,0.711,0.002
25.255,-0.756,0.709,0.002
25.265,-0.754,0.709,0.004
25.275,-0.754,0.707,0.004
25.285,-0.750,0.707,0.002
25.295,-0.750,0.707,0.004
25.305,-0.748,0.705,0.004
25.315,-0.748,0.707,0.004
25.325,-0.750,0.707,0.004
25.334,-0.746,0.707,0.006
25.344,-0.748,0.705,0.002
25.354,-0.744,0.707,0.004
25.364,-0.748,0.709,0.004
25.374,-0.750,0.707,0.004
25.384,-0.750,0.711,0.006
25.394,-0.752,0.707,0.004
25.404,-0.754,0.711,0.006
25.414,-0.750,0.711,0.006
25.424,-0.754,0.707,0.000
25.434,-0.748,0.701,0.006
25.444,-0.750,0.709,0.010
25.454,-0.748,0.713,0.010
25.464,-0.746,0.707,0.004
25.473,-0.744,0.703,0.008
25.483,-0.748,0.705,0.008
25.493,-0.752,0.707,0.004
25.503,-0.752,0.707,0.006
25.513,-0.754,0.707,0.006
25.523,-0.752,0.713,0.008
25.533,-0.752,0.707,0.008
25.543,-0.754,0.711,0.008
25.553,-0.754,0.707,0.008
25.563,-0.754,0.703,0.004
25.573,-0.748,0.703,0.006
25.583,-0.748,0.701,0.006
25.593,-0.748,0.705,0.008
25.603,-0.746,0.703,0.006
25.612,-0.748,0.703,0.008
25.622,-0.750,0.707,0.002
25.632,-0.750,0.707,0.008
25.642,-0.748,0.707,0.002
25.652,-0.752,0.707,0.006
25.662,-0.750,0.709,0.004
25.672,-0.748,0.711,0.004
25.682,-0.750,0.709,0.000
25.692,-0.748,0.707,0.004
25.702,-0.748,0.707,0.002
25.712,-0.752,0.707,0.002
25.722,-0.748,0.709,0.002
25.732,-0.748,0.707,0.002
25.742,-0.750,0.709,0.002
25.751,-0.750,0.711,0.004
25.761,-0.750,0.709,0.002
25.771,-0.748,0.709,0.006
25.781,-0.752,0.709,0.004
25.791,-0.748,0.709,0.006
25.801,-0.748,0.707,0.006
25.811,-0.746,0.709,0.008
25.821,-0.748,0.709,0.004
25.831,-0.748,0.705,0.004
25.841,-0.750,0.705,0.004
25.851,-0.748,0.707,0.006
25.861,-0.748,0.705,0.004
25.871,-0.742,0.707,0.006
25.881,-0.744,0.709,0.008
25.890,-0.748,0.711,0.006
25.900,-0.748,0.707,0.006
25.910,-0.748,0.711,0.008
25.920,-0.750,0.715,0.004
25.930,-0.750,0.709,0.006
25.940,-0.746,0.707,0.008
25.950,-0.748,0.705,0.008
25.960,-0.748,0.707,0.006
25.970,-0.752,0.711,0.006
25.980,-0.752,0.709,0.004
25.990,-0.752,0.707,0.004
26.000,-0.752,0.711,0.008
26.010,-0.756,0.709,0.004
26.020,-0.752,0.709,0.004
26.029,-0.754,0.711,0.004
26.039,-0.754,0.711,0.004
26.049,-0.750,0.713,0.006
26.059,-0.752,0.711,0.008
26.069,-0.750,0.709,0.004
26.079,-0.748,0.707,0.010
26.089,-0.748,0.709,0.006
26.099,-0.748,0.709,0.008
26.109,-0.744,0.705,0.006
26.119,-0.746,0.707,0.008
26.129,-0.748,0.705,0.006
26.139,-0.746,0.711,0.004
26.149,-0.750,0.709,0.010
26.159,-0.744,0.709,0.006
26.168,-0.746,0.709,0.006
26.178,-0.748,0.711,0.006
26.188,-0.746,0.709,0.006
26.198,-0.744,0.701,0.004
26.208,-0.750,0.713,0.008
26.218,-0.754,0.717,0.008
26.228,-0.750,0.711,0.008
26.238,-0.746,0.707,0.004
26.248,-0.746,0.707,0.006
26.258,-0.748,0.709,0.008
26.268,-0.746,0.711,0.004
26.278,-0.750,0.711,0.004
26.288,-0.750,0.717,0.004
26.297,-0.750,0.715,0.004
26.307,-0.750,0.711,0.006
26.317,-0.748,0.709,0.006
26.327,-0.746,0.711,0.002
26.337,-0.748,0.711,0.006
26.347,-0.744,0.713,0.002
26.357,-0.748,0.711,0.000
26.367,-0.744,0.711,0.004
26.377,-0.746,0.711,0.006
26.387,-0.742,0.713,0.008
26.397,-0.744,0.713,0.004
26.407,-0.746,0.713,0.006
26.417,-0.748,0.711,0.004
26.427,-0.746,0.711,0.004
26.436,-0.746,0.711,0.004
26.446,-0.744,0.711,0.004
26.456,-0.744,0.713,0.006
26.466,-0.746,0.711,0.004
26.476,-0.748,0.711,0.000
26.486,-0.746,0.713,0.002
26.496,-0.746,0.713,0.002
26.506,-0.746,0.713,0.006
26.516,-0.746,0.713,0.004
26.526,-0.746,0.711,0.004
26.536,-0.748,0.709,0.006
26.546,-0.748,0.711,0.006
26.556,-0.748,0.711,0.006
26.566,-0.746,0.707,0.004
26.575,-0.748,0.711,0.002
26.585,-0.746,0.711,0.004
26.595,-0.748,0.713,0.006
26.605,-0.746,0.711,0.006
26.615,-0.750,0.713,0.008
26.625,-0.748,0.713,0.008
26.635,-0.748,0.711,0.006
26.645,-0.748,0.709,0.008
26.655,-0.746,0.711,0.006
26.665,-0.748,0.711,0.006
26.675,-0.746,0.707,0.006
26.685,-0.748,0.709,0.008
26.695,-0.746,0.709,0.010
26.705,-0.746,0.709,0.006
26.714,-0.746,0.711,0.010
26.724,-0.744,0.715,0.012
26.734,-0.744,0.711,0.006
26.744,-0.746,0.713,0.004
26.754,-0.746,0.715,0.006
26.764,-0.744,0.715,0.008
26.774,-0.744,0.711,0.008
26.784,-0.744,0.711,0.008
26.794,-0.746,0.713,0.010
26.804,-0.742,0.713,0.008
26.814,-0.742,0.713,0.008
26.824,-0.746,0.709,0.006
26.834,-0.752,0.715,0.000
26.844,-0.750,0.715,0.006
26.853,-0.752,0.715,0.006
26.863,-0.752,0.715,0.008
26.873,-0.752,0.711,0.006
26.883,-0.750,0.713,0.006
26.893,-0.748,0.711,0.006
26.903,-0.748,0.711,0.006
26.913,-0.746,0.713,0.006
26.923,-0.744,0.709,0.008
26.933,-0.744,0.709,0.010
26.943,-0.744,0.707,0.004
26.953,-0.746,0.713,0.010
26.963,-0.746,0.709,0.010
26.973,-0.748,0.711,0.010
26.983,-0.744,0.709,0.006
26.992,-0.744,0.707,0.006
27.002,-0.746,0.713,0.008
27.012,-0.744,0.711,0.004
27.022,-0.748,0.713,0.006
27.032,-0.744,0.709,0.006
27.042,-0.744,0.715,0.006
27.052,-0.750,0.717,0.008
27.062,-0.744,0.711,0.010
27.072,-0.738,0.707,0.006
27.082,-0.738,0.707,0.006
27.092,-0.742,0.713,0.006
27.102,-0.746,0.711,0.010
27.112,-0.748,0.715,0.010
27.122,-0.746,0.715,0.010
27.131,-0.748,0.715,0.010
27.141,-0.748,0.715,0.008
27.151,-0.748,0.715,0.006
27.161,-0.746,0.713,0.006
27.171,-0.746,0.711,0.008
27.181,-0.746,0.713,0.008
27.191,-0.746,0.713,0.008
27.201,-0.742,0.713,0.010
27.211,-0.746,0.711,0.008
27.221,-0.744,0.713,0.008
27.231,-0.744,0.713,0.006
27.241,-0.744,0.713,0.008
27.251,-0.744,0.713,0.008
27.261,-0.744,0.715,0.010
27.270,-0.744,0.713,0.006
27.280,-0.742,0.713,0.010
27.290,-0.742,0.713,0.008
27.300,-0.744,0.713,0.006
27.310,-0.740,0.715,0.008
27.320,-0.744,0.717,0.008
27.330,-0.746,0.717,0.008
27.340,-0.744,0.715,0.008
27.350,-0.744,0.719,0.008
27.360,-0.746,0.717,0.008
27.370,-0.748,0.717,0.006
27.380,-0.744,0.717,0.010
27.390,-0.744,0.715,0.006
27.400,-0.742,0.715,0.012
27.409,-0.744,0.715,0.008
27.419,-0.744,0.713,0.014
27.429,-0.744,0.713,0.008
27.439,-0.744,0.713,0.010
27.449,-0.746,0.715,0.008
27.459,-0.744,0.713,0.008
27.469,-0.744,0.715,0.010
27.479,-0.742,0.713,0.010
27.489,-0.744,0.713,0.008
27.499,-0.746,0.713,0.008
27.509,-0.746,0.717,0.010
27.519,-0.748,0.715,0.008
27.529,-0.744,0.709,0.008
27.539,-0.744,0.709,0.006
27.548,-0.744,0.715,0.006
27.558,-0.742,0.719,0.006
27.568,-0.744,0.715,0.004
27.578,-0.742,0.711,0.006
27.588,-0.740,0.717,0.006
27.598,-0.744,0.717,0.006
27.608,-0.740,0.715,0.006
27.618,-0.738,0.715,0.010
27.628,-0.744,0.715,0.008
27.638,-0.744,0.717,0.010
27.648,-0.744,0.713,0.010
27.658,-0.740,0.715,0.010
27.668,-0.742,0.711,0.012
27.678,-0.746,0.711,0.010
27.687,-0.746,0.715,0.014
27.697,-0.746,0.717,0.010
27.707,-0.746,0.715,0.008
27.717,-0.746,0.715,0.012
27.727,-0.748,0.713,0.010
27.737,-0.744,0.713,0.012
27.747,-0.744,0.715,0.010
27.757,-0.742,0.711,0.012
27.767,-0.742,0.715,0.014
27.777,-0.742,0.713,0.014
27.787,-0.744,0.713,0.012
27.797,-0.740,0.713,0.012
27.807,-0.740,0.711,0.008
27.817,-0.744,0.715,0.012
27.826,-0.742,0.715,0.010
27.836,-0.744,0.713,0.008
27.846,-0.742,0.715,0.014
27.856,-0.742,0.715,0.012
27.866,-0.746,0.719,0.010
27.876,-0.742,0.711,0.006
27.886,-0.744,0.713,0.010
27.896,-0.744,0.715,0.012
27.906,-0.746,0.715,0.012
27.916,-0.742,0.707,0.010
27.926,-0.738,0.711,0.008
27.936,-0.744,0.711,0.010
27.946,-0.748,0.713,0.012
27.956,-0.748,0.715,0.008
27.965,-0.748,0.717,0.008
27.975,-0.750,0.715,0.014
27.985,-0.748,0.715,0.008
27.995,-0.748,0.711,0.008
28.005,-0.746,0.715,0.008
28.015,-0.744,0.711,0.008
28.025,-0.744,0.709,0.006
28.035,-0.744,0.711,0.008
28.045,-0.744,0.711,0.010
28.055,-0.742,0.713,0.008
28.065,-0.744,0.715,0.008
28.075,-0.746,0.713,0.006
28.085,-0.744,0.717,0.010
28.094,-0.744,0.717,0.010
28.104,-0.742,0.715,0.012
28.114,-0.742,0.717,0.010
28.124,-0.742,0.715,0.014
28.134,-0.744,0.717,0.006
28.144,-0.738,0.715,0.012
28.154,-0.746,0.715,0.006
28.164,-0.744,0.715,0.010
28.174,-0.746,0.715,0.012
28.184,-0.746,0.715,0.008
28.194,-0.744,0.713,0.012
28.204,-0.744,0.713,0.010
28.214,-0.746,0.713,0.008
28.224,-0.750,0.711,0.010
28.233,-0.746,0.713,0.014
28.243,-0.744,0.711,0.010
28.253,-0.744,0.709,0.010
28.263,-0.742,0.709,0.016
28.273,-0.744,0.711,0.014
28.283,-0.748,0.709,0.012
28.293,-0.750,0.709,0.012
28.303,-0.750,0.713,0.006
28.313,-0.748,0.713,0.014
28.323,-0.746,0.711,0.010
28.333,-0.748,0.715,0.010
28.343,-0.748,0.711,0.010
28.353,-0.746,0.711,0.008
28.363,-0.744,0.711,0.012
28.372,-0.746,0.713,0.010
28.382,-0.746,0.717,0.008
28.392,-0.740,0.711,0.010
28.402,-0.742,0.715,0.008
28.412,-0.744,0.719,0.014
28.422,-0.740,0.715,0.010
28.432,-0.740,0.713,0.014
28.442,-0.744,0.717,0.012
28.452,-0.744,0.713,0.012
28.462,-0.744,0.715,0.012
28.472,-0.746,0.717,0.012
28.482,-0.746,0.715,0.010
28.492,-0.748,0.713,0.010
28.502,-0.748,0.711,0.012
28.511,-0.752,0.715,0.010
28.521,-0.750,0.713,0.012
28.531,-0.748,0.715,0.008
28.541,-0.748,0.711,0.012
28.551,-0.748,0.711,0.010
28.561,-0.744,0.711,0.016
28.571,-0.746,0.711,0.012
28.581,-0.746,0.711,0.012
28.591,-0.748,0.711,0.012
28.601,-0.746,0.711,0.012
28.611,-0.744,0.711,0.008
28.621,-0.744,0.715,0.014
28.631,-0.744,0.711,0.010
28.641,-0.744,0.713,0.008
28.650,-0.746,0.711,0.010
28.660,-0.742,0.715,0.012
28.670,-0.744,0.715,0.012
28.680,-0.744,0.717,0.012
28.690,-0.740,0.711,0.010
28.700,-0.744,0.715,0.008
28.710,-0.750,0.719,0.016
28.720,-0.746,0.717,0.012
28.730,-0.746,0.711,0.012
28.740,-0.746,0.713,0.014
28.750,-0.746,0.709,0.014
28.760,-0.748,0.711,0.012
28.770,-0.746,0.711,0.008
28.780,-0.750,0.717,0.010
28.789,-0.750,0.713,0.010
28.799,-0.750,0.717,0.012
28.809,-0.748,0.713,0.014
28.819,-0.748,0.709,0.012
28.829,-0.744,0.709,0.014
28.839,-0.746,0.711,0.012
28.849,-0.744,0.711,0.014
28.859,-0.746,0.711,0.016
28.869,-0.742,0.709,0.014
28.879,-0.740,0.715,0.014
28.889,-0.742,0.713,0.012
28.899,-0.740,0.715,0.014
28.909,-0.742,0.713,0.010
28.919,-0.742,0.713,0.014
28.928,-0.744,0.719,0.012
28.938,-0.744,0.715,0.014
28.948,-0.744,0.719,0.012
28.958,-0.744,0.715,0.014
28.968,-0.746,0.715,0.010
28.978,-0.744,0.715,0.012
28.988,-0.744,0.717,0.014
28.998,-0.744,0.713,0.014
29.008,-0.742,0.715,0.010
29.018,-0.744,0.715,0.010
29.028,-0.744,0.715,0.012
29.038,-0.742,0.711,0.010
29.048,-0.744,0.711,0.012
29.058,-0.744,0.715,0.010
29.067,-0.740,0.715,0.012
29.077,-0.742,0.711,0.012
29.087,-0.742,0.713,0.012
29.097,-0.744,0.713,0.014
29.107,-0.742,0.711,0.010
29.117,-0.744,0.715,0.008
29.127,-0.746,0.715,0.008
29.137,-0.746,0.713,0.010
29.147,-0.744,0.711,0.010
29.157,-0.746,0.709,0.006
29.167,-0.744,0.713,0.008
29.177,-0.750,0.715,0.008
29.187,-0.744,0.713,0.012
29.197,-0.744,0.713,0.008
29.206,-0.746,0.713,0.008
29.216,-0.746,0.713,0.010
29.226,-0.746,0.715,0.010
29.236,-0.746,0.711,0.012
29.246,-0.748,0.711,0.008
29.256,-0.746,0.713,0.012
29.266,-0.746,0.715,0.010
29.276,-0.746,0.709,0.010
29.286,-0.748,0.713,0.008
29.296,-0.748,0.713,0.008
29.306,-0.752,0.715,0.008
29.316,-0.752,0.717,0.010
29.326,-0.754,0.715,0.008
29.336,-0.752,0.717,0.008
29.345,-0.748,0.715,0.012
29.355,-0.744,0.715,0.014
29.365,-0.746,0.715,0.012
29.375,-0.746,0.715,0.014
29.385,-0.740,0.717,0.016
29.395,-0.740,0.719,0.018
29.405,-0.742,0.717,0.014
29.415,-0.740,0.721,0.020
29.425,-0.738,0.719,0.020
29.435,-0.740,0.717,0.018
29.445,-0.738,0.715,0.018
29.455,-0.738,0.715,0.020
29.465,-0.736,0.711,0.021
29.475,-0.742,0.715,0.018
29.484,-0.740,0.713,0.016
29.494,-0.740,0.711,0.018
29.504,-0.742,0.715,0.021
29.514,-0.742,0.721,0.020
29.524,-0.738,0.709,0.018
29.534,-0.734,0.709,0.016
29.544,-0.740,0.711,0.018
29.554,-0.744,0.713,0.014
29.564,-0.746,0.715,0.016
29.574,-0.746,0.715,0.012
29.584,-0.750,0.715,0.016
29.594,-0.752,0.715,0.012
29.604,-0.746,0.713,0.014
29.614,-0.748,0.713,0.010
29.623,-0.748,0.715,0.010
29.633,-0.746,0.715,0.012
29.643,-0.748,0.715,0.010
29.653,-0.746,0.713,0.012
29.663,-0.748,0.717,0.012
29.673,-0.744,0.713,0.012
29.683,-0.746,0.713,0.008
29.693,-0.744,0.715,0.010
29.703,-0.746,0.713,0.010
29.713,-0.750,0.713,0.010
29.723,-0.748,0.717,0.010
29.733,-0.750,0.715,0.010
29.743,-0.748,0.717,0.010
29.753,-0.750,0.713,0.008
29.762,-0.746,0.713,0.012
29.772,-0.746,0.717,0.010
29.782,-0.746,0.719,0.012
29.792,-0.750,0.715,0.010
29.802,-0.746,0.713,0.012
29.812,-0.746,0.715,0.016
29.822,-0.744,0.717,0.014
29.832,-0.744,0.713,0.012
29.842,-0.742,0.711,0.016
29.852,-0.742,0.713,0.016
29.862,-0.742,0.715,0.014
29.872,-0.744,0.713,0.016
29.882,-0.742,0.715,0.016
29.892,-0.742,0.715,0.018
29.901,-0.742,0.715,0.020
29.911,-0.742,0.713,0.018
29.921,-0.744,0.715,0.016
29.931,-0.744,0.713,0.020
29.941,-0.746,0.713,0.016
29.951,-0.742,0.713,0.014
29.961,-0.746,0.717,0.014
29.971,-0.746,0.711,0.014
29.981,-0.742,0.713,0.014
29.991,-0.744,0.713,0.014
30.001,-0.744,0.715,0.016
30.011,-0.746,0.717,0.014
30.021,-0.744,0.715,0.012
30.030,-0.742,0.715,0.008
30.040,-0.744,0.719,0.016
30.050,-0.744,0.717,0.012
30.060,-0.742,0.717,0.012
30.070,-0.742,0.717,0.012
30.080,-0.746,0.715,0.014
30.090,-0.746,0.717,0.016
30.100,-0.740,0.715,0.016
30.110,-0.742,0.713,0.016
30.120,-0.744,0.717,0.012
30.130,-0.746,0.713,0.010
30.140,-0.750,0.715,0.014
30.150,-0.748,0.717,0.012
30.160,-0.750,0.715,0.014
30.169,-0.746,0.717,0.012
30.179,-0.750,0.713,0.018
30.189,-0.746,0.713,0.016
30.199,-0.744,0.711,0.012
30.209,-0.746,0.711,0.014
30.219,-0.746,0.713,0.016
30.229,-0.742,0.709,0.014
30.239,-0.744,0.709,0.014
30.249,-0.742,0.711,0.018
30.259,-0.746,0.711,0.014
30.269,-0.744,0.715,0.018
30.279,-0.742,0.715,0.014
30.289,-0.744,0.713,0.014
30.299,-0.746,0.715,0.014
30.308,-0.746,0.715,0.016
30.318,-0.750,0.715,0.012
30.328,-0.746,0.711,0.016
30.338,-0.746,0.715,0.016
30.348,-0.750,0.719,0.018
30.358,-0.744,0.713,0.018
30.368,-0.742,0.709,0.014
30.378,-0.740,0.713,0.020
30.388,-0.748,0.713,0.016
30.398,-0.746,0.715,0.018
30.408,-0.742,0.717,0.016
30.418,-0.746,0.717,0.014
30.428,-0.748,0.719,0.016
30.438,-0.744,0.717,0.016
30.447,-0.746,0.715,0.016
30.457,-0.744,0.717,0.018
30.467,-0.740,0.715,0.012
30.477,-0.742,0.713,0.016
30.487,-0.740,0.715,0.018
30.497,-0.738,0.711,0.016
30.507,-0.738,0.715,0.014
30.517,-0.738,0.717,0.016
30.527,-0.742,0.713,0.010
30.537,-0.738,0.719,0.014
30.547,-0.738,0.721,0.014
30.557,-0.738,0.719,0.012
30.567,-0.740,0.719,0.016
30.577,-0.738,0.719,0.012
30.586,-0.738,0.717,0.012
30.596,-0.740,0.717,0.008
30.606,-0.740,0.721,0.010
30.616,-0.740,0.719,0.012
30.626,-0.740,0.719,0.008
30.636,-0.744,0.719,0.010
30.646,-0.744,0.715,0.010
30.656,-0.742,0.719,0.014
30.666,-0.744,0.715,0.014
30.676,-0.744,0.721,0.014
30.686,-0.746,0.715,0.012
30.696,-0.742,0.717,0.018
30.706,-0.746,0.715,0.014
30.716,-0.742,0.713,0.016
30.725,-0.742,0.719,0.014
30.735,-0.744,0.715,0.014
30.745,-0.742,0.717,0.016
30.755,-0.742,0.717,0.018
30.765,-0.744,0.717,0.014
30.775,-0.748,0.715,0.016
30.785,-0.746,0.717,0.016
30.795,-0.748,0.717,0.012
30.805,-0.746,0.713,0.014
30.815,-0.744,0.711,0.014
30.825,-0.742,0.715,0.016
30.835,-0.740,0.715,0.018
30.845,-0.744,0.719,0.018
30.855,-0.740,0.713,0.016
30.864,-0.740,0.717,0.016
30.874,-0.740,0.717,0.016
30.884,-0.744,0.719,0.018
30.894,-0.738,0.719,0.018
30.904,-0.742,0.715,0.018
30.914,-0.742,0.713,0.016
30.924,-0.744,0.717,0.016
30.934,-0.740,0.717,0.020
30.944,-0.742,0.719,0.014
30.954,-0.744,0.717,0.016
30.964,-0.748,0.717,0.014
30.974,-0.752,0.717,0.021
30.984,-0.748,0.717,0.016
30.994,-0.750,0.713,0.016
31.003,-0.748,0.713,0.014
31.013,-0.750,0.713,0.016
31.023,-0.748,0.711,0.016
31.033,-0.746,0.711,0.014
31.043,-0.742,0.713,0.016
31.053,-0.742,0.713,0.016
31.063,-0.740,0.713,0.018
31.073,-0.742,0.715,0.016
31.083,-0.740,0.713,0.016
31.093,-0.742,0.713,0.014
31.103,-0.746,0.713,0.016
31.113,-0.740,0.713,0.016
31.123,-0.740,0.715,0.018
31.133,-0.744,0.717,0.014
31.142,-0.746,0.715,0.014
31.152,-0.748,0.717,0.014
31.162,-0.744,0.707,0.014
31.172,-0.746,0.711,0.014
31.182,-0.746,0.715,0.020
31.192,-0.746,0.711,0.014
31.202,-0.742,0.707,0.014
31.212,-0.746,0.711,0.014
31.222,-0.752,0.711,0.012
31.232,-0.752,0.717,0.014
31.242,-0.752,0.713,0.018
31.252,-0.752,0.715,0.014
31.262,-0.754,0.711,0.014
31.272,-0.756,0.713,0.018
31.281,-0.752,0.711,0.012
31.291,-0.748,0.709,0.012
31.301,-0.748,0.711,0.016
31.311,-0.746,0.709,0.014
31.321,-0.746,0.705,0.018
31.331,-0.746,0.711,0.016
31.341,-0.748,0.709,0.021
31.351,-0.746,0.711,0.014
31.361,-0.748,0.711,0.016
31.371,-0.744,0.711,0.016
31.381,-0.746,0.711,0.020
31.391,-0.748,0.715,0.020
31.401,-0.744,0.717,0.018
31.411,-0.744,0.713,0.020
31.420,-0.744,0.715,0.016
31.430,-0.746,0.711,0.016
31.440,-0.746,0.713,0.018
31.450,-0.746,0.713,0.021
31.460,-0.744,0.713,0.018
31.470,-0.744,0.715,0.018
31.480,-0.748,0.715,0.020
31.490,-0.746,0.713,0.018
31.500,-0.748,0.715,0.018
31.510,-0.748,0.713,0.020
31.520,-0.746,0.715,0.016
31.530,-0.744,0.715,0.020
31.540,-0.744,0.711,0.020
31.550,-0.744,0.711,0.018
31.559,-0.742,0.709,0.018
31.569,-0.744,0.711,0.020
31.579,-0.746,0.711,0.016
31.589,-0.746,0.713,0.018
31.599,-0.746,0.711,0.020
31.609,-0.748,0.715,0.018
31.619,-0.748,0.715,0.016
31.629,-0.748,0.711,0.014
31.639,-0.744,0.713,0.014
31.649,-0.746,0.711,0.016
31.659,-0.748,0.713,0.016
31.669,-0.748,0.715,0.016
31.679,-0.746,0.715,0.018
31.689,-0.744,0.715,0.014
31.698,-0.746,0.715,0.014
31.708,-0.746,0.713,0.014
31.718,-0.750,0.717,0.016
31.728,-0.748,0.715,0.014
31.738,-0.752,0.715,0.014
31.748,-0.748,0.711,0.012
31.758,-0.748,0.713,0.016
31.768,-0.744,0.715,0.012
31.778,-0.748,0.715,0.014
31.788,-0.746,0.713,0.012
31.798,-0.744,0.715,0.012
31.808,-0.744,0.715,0.014
31.818,-0.742,0.717,0.014
31.827,-0.744,0.717,0.012
31.837,-0.742,0.715,0.016
31.847,-0.742,0.713,0.012
31.857,-0.742,0.715,0.016
31.867,-0.740,0.719,0.010
31.877,-0.744,0.717,0.014
31.887,-0.742,0.715,0.012
31.897,-0.740,0.711,0.010
31.907,-0.744,0.721,0.018
31.917,-0.744,0.721,0.018
31.927,-0.736,0.717,0.016
31.937,-0.734,0.711,0.014
31.947,-0.738,0.713,0.016
31.957,-0.740,0.717,0.012
31.966,-0.742,0.717,0.010
31.976,-0.746,0.719,0.014
31.986,-0.746,0.717,0.016
31.996,-0.746,0.715,0.014
32.006,-0.744,0.713,0.014
32.016,-0.742,0.713,0.016
32.026,-0.742,0.709,0.010
32.036,-0.744,0.711,0.012
32.046,-0.744,0.715,0.014
32.056,-0.748,0.713,0.014
32.066,-0.750,0.713,0.014
32.076,-0.748,0.711,0.016
32.086,-0.748,0.711,0.012
32.096,-0.748,0.711,0.016
32.105,-0.748,0.709,0.014
32.115,-0.746,0.711,0.014
32.125,-0.748,0.711,0.012
32.135,-0.748,0.711,0.014
32.145,-0.748,0.713,0.014
32.155,-0.748,0.711,0.012
32.165,-0.746,0.713,0.014
32.175,-0.744,0.715,0.010
32.185,-0.746,0.713,0.010
32.195,-0.746,0.717,0.010
32.205,-0.746,0.719,0.012
32.215,-0.744,0.719,0.010
32.225,-0.748,0.715,0.010
32.235,-0.742,0.717,0.016
32.244,-0.742,0.717,0.018
32.254,-0.742,0.717,0.016
32.264,-0.742,0.717,0.018
32.274,-0.742,0.719,0.018
32.284,-0.742,0.719,0.016
32.294,-0.744,0.717,0.014
32.304,-0.742,0.717,0.016
32.314,-0.746,0.719,0.016
32.324,-0.744,0.715,0.016
32.334,-0.746,0.713,0.016
32.344,-0.740,0.713,0.016
32.354,-0.738,0.715,0.016
32.364,-0.740,0.717,0.016
32.374,-0.740,0.719,0.018
32.383,-0.740,0.715,0.016
32.393,-0.740,0.719,0.012
32.403,-0.742,0.717,0.018
32.413,-0.738,0.719,0.016
32.423,-0.736,0.713,0.020
32.433,-0.740,0.715,0.020
32.443,-0.740,0.721,0.018
32.453,-0.738,0.719,0.016
32.463,-0.738,0.717,0.018
32.473,-0.738,0.717,0.016
32.483,-0.740,0.717,0.014
32.493,-0.742,0.723,0.012
32.503,-0.746,0.721,0.018
32.513,-0.746,0.721,0.014
32.522,-0.748,0.719,0.016
32.532,-0.746,0.719,0.014
32.542,-0.742,0.717,0.016
32.552,-0.740,0.717,0.016
32.562,-0.738,0.717,0.016
32.572,-0.740,0.715,0.016
32.582,-0.738,0.719,0.018
32.592,-0.740,0.717,0.018
32.602,-0.740,0.715,0.016
32.612,-0.742,0.717,0.014
32.622,-0.740,0.719,0.016
32.632,-0.738,0.719,0.016
32.642,-0.740,0.719,0.014
32.652,-0.740,0.719,0.016
32.661,-0.742,0.719,0.018
32.671,-0.746,0.719,0.016
32.681,-0.746,0.717,0.014
32.691,-0.744,0.717,0.016
32.701,-0.748,0.721,0.014
32.711,-0.746,0.719,0.020
32.721,-0.742,0.713,0.016
32.731,-0.736,0.713,0.018
32.741,-0.742,0.719,0.018
32.751,-0.744,0.719,0.014
32.761,-0.742,0.719,0.020
32.771,-0.742,0.719,0.016
32.781,-0.744,0.721,0.018
32.791,-0.742,0.719,0.018
32.800,-0.746,0.719,0.018
32.810,-0.744,0.719,0.014
32.820,-0.746,0.719,0.018
32.830,-0.740,0.713,0.020
32.840,-0.742,0.715,0.020
32.850,-0.740,0.715,0.018
32.860,-0.738,0.717,0.020
32.870,-0.738,0.719,0.021
32.880,-0.738,0.721,0.020
32.890,-0.738,0.717,0.020
32.900,-0.738,0.719,0.021
32.910,-0.738,0.717,0.018
32.920,-0.736,0.719,0.020
32.930,-0.738,0.721,0.020
32.939,-0.738,0.717,0.018
32.949,-0.736,0.717,0.020
32.959,-0.742,0.723,0.018
32.969,-0.740,0.719,0.021
32.979,-0.738,0.717,0.020
32.989,-0.744,0.719,0.016
32.999,-0.744,0.721,0.018
33.009,-0.742,0.717,0.016
33.019,-0.742,0.715,0.020
33.029,-0.742,0.717,0.020
33.039,-0.742,0.719,0.020
33.049,-0.740,0.717,0.018
33.059,-0.740,0.715,0.025
33.069,-0.740,0.719,0.018
33.078,-0.742,0.715,0.020
33.088,-0.742,0.717,0.020
33.098,-0.742,0.719,0.016
33.108,-0.738,0.717,0.018
33.118,-0.742,0.715,0.020
33.128,-0.742,0.717,0.016
33.138,-0.744,0.715,0.016
33.148,-0.742,0.715,0.016
33.158,-0.742,0.719,0.012
33.168,-0.742,0.717,0.014
33.178,-0.742,0.717,0.014
33.188,-0.742,0.717,0.014
33.198,-0.744,0.715,0.016
33.208,-0.744,0.719,0.016
33.217,-0.746,0.719,0.010
33.227,-0.742,0.717,0.014
33.237,-0.742,0.717,0.014
33.247,-0.742,0.717,0.012
33.257,-0.742,0.719,0.016
33.267,-0.740,0.715,0.016
33.277,-0.742,0.717,0.016
33.287,-0.744,0.717,0.016
33.297,-0.742,0.721,0.014
33.307,-0.744,0.717,0.018
33.317,-0.738,0.717,0.014
33.327,-0.744,0.715,0.012
33.337,-0.744,0.719,0.014
33.347,-0.746,0.719,0.014
33.356,-0.748,0.719,0.016
33.366,-0.750,0.719,0.016
33.376,-0.750,0.717,0.018
33.386,-0.748,0.717,0.018
33.396,-0.744,0.715,0.018
33.406,-0.742,0.713,0.016
33.416,-0.742,0.713,0.020
33.426,-0.740,0.715,0.016
33.436,-0.742,0.711,0.020
33.446,-0.738,0.713,0.018
33.456,-0.740,0.715,0.020
33.466,-0.740,0.713,0.018
33.476,-0.742,0.717,0.020
33.486,-0.742,0.715,0.023
33.495,-0.740,0.717,0.020
33.505,-0.742,0.717,0.020
33.515,-0.738,0.717,0.020
33.525,-0.744,0.719,0.016
33.535,-0.744,0.715,0.014
33.545,-0.742,0.715,0.021
33.555,-0.744,0.719,0.021
33.565,-0.740,0.715,0.021
33.575,-0.738,0.711,0.020
33.585,-0.740,0.711,0.020
33.595,-0.740,0.717,0.016
33.605,-0.744,0.717,0.018
33.615,-0.746,0.717,0.014
33.625,-0.750,0.721,0.014
33.634,-0.750,0.721,0.014
33.644,-0.750,0.719,0.018
33.654,-0.748,0.721,0.014
33.664,-0.746,0.715,0.014
33.674,-0.746,0.719,0.018
33.684,-0.742,0.717,0.016
33.694,-0.740,0.715,0.016
33.704,-0.740,0.719,0.016
33.714,-0.740,0.713,0.014
33.724,-0.738,0.717,0.014
33.734,-0.738,0.719,0.016
33.744,-0.738,0.721,0.018
33.754,-0.742,0.721,0.014
33.763,-0.738,0.717,0.014
33.773,-0.734,0.719,0.018
33.783,-0.740,0.721,0.014
33.793,-0.736,0.719,0.012
33.803,-0.738,0.719,0.014
33.813,-0.738,0.719,0.012
33.823,-0.738,0.723,0.016
33.833,-0.740,0.719,0.016
33.843,-0.742,0.719,0.016
33.853,-0.742,0.715,0.012
33.863,-0.748,0.717,0.014
33.873,-0.748,0.717,0.016
33.883,-0.746,0.715,0.014
33.893,-0.746,0.713,0.014
33.902,-0.744,0.713,0.016
33.912,-0.744,0.711,0.016
33.922,-0.746,0.713,0.016
33.932,-0.746,0.709,0.018
33.942,-0.750,0.711,0.016
33.952,-0.752,0.709,0.014
33.962,-0.750,0.711,0.016
33.972,-0.750,0.711,0.012
33.982,-0.752,0.709,0.014
33.992,-0.750,0.713,0.016
34.002,-0.752,0.715,0.012
34.012,-0.748,0.717,0.012
34.022,-0.746,0.715,0.014
34.032,-0.748,0.713,0.014
34.041,-0.748,0.719,0.016
34.051,-0.742,0.717,0.016
34.061,-0.744,0.717,0.014
34.071,-0.742,0.717,0.016
34.081,-0.744,0.719,0.016
34.091,-0.740,0.715,0.014
34.101,-0.740,0.715,0.014
34.111,-0.742,0.721,0.020
34.121,-0.746,0.721,0.018
34.131,-0.740,0.719,0.016
34.141,-0.744,0.717,0.018
34.151,-0.744,0.713,0.016
34.161,-0.746,0.719,0.020
34.171,-0.746,0.719,0.018
34.180,-0.744,0.719,0.016
34.190,-0.742,0.717,0.018
34.200,-0.742,0.719,0.018
34.210,-0.746,0.723,0.021
34.220,-0.748,0.723,0.016
34.230,-0.742,0.715,0.020
34.240,-0.740,0.721,0.018
34.250,-0.738,0.721,0.021
34.260,-0.740,0.719,0.018
34.270,-0.740,0.719,0.018
34.280,-0.736,0.723,0.018
34.290,-0.738,0.719,0.021
34.300,-0.738,0.719,0.018
34.310,-0.736,0.717,0.016
34.319,-0.738,0.715,0.016
34.329,-0.740,0.715,0.018
34.339,-0.742,0.717,0.016
34.349,-0.740,0.717,0.010
34.359,-0.742,0.717,0.012
34.369,-0.740,0.713,0.014
34.379,-0.748,0.721,0.014
34.389,-0.748,0.717,0.012
34.399,-0.742,0.713,0.010
34.409,-0.738,0.707,0.014
34.419,-0.740,0.717,0.014
34.429,-0.742,0.725,0.016
34.439,-0.738,0.717,0.012
34.449,-0.730,0.709,0.016
34.458,-0.734,0.715,0.016
34.468,-0.738,0.721,0.018
34.478,-0.738,0.717,0.016
34.488,-0.736,0.715,0.012
34.498,-0.738,0.725,0.010
34.508,-0.734,0.721,0.008
34.518,-0.736,0.723,0.012
34.528,-0.730,0.721,0.008
34.538,-0.727,0.723,0.006
34.548,-0.719,0.725,0.010
34.558,-0.727,0.729,0.006
34.568,-0.725,0.730,0.010
34.578,-0.721,0.729,0.008
34.588,-0.723,0.732,0.010
34.597,-0.719,0.732,0.010
34.607,-0.709,0.736,0.014
34.617,-0.707,0.732,0.014
34.627,-0.705,0.736,0.016
34.637,-0.699,0.738,0.014
34.647,-0.697,0.740,0.014
34.657,-0.689,0.740,0.016
34.667,-0.688,0.746,0.016
34.677,-0.682,0.740,0.010
34.687,-0.682,0.744,0.016
34.697,-0.686,0.750,0.012
34.707,-0.682,0.748,0.008
34.717,-0.678,0.748,0.006
34.727,-0.674,0.748,0.006
34.736,-0.674,0.752,0.000
34.746,-0.676,0.756,-0.002
34.756,-0.676,0.762,0.000
34.766,-0.678,0.764,-0.004
34.776,-0.680,0.768,-0.004
34.786,-0.680,0.766,-0.008
34.796,-0.674,0.762,-0.012
34.806,-0.680,0.762,-0.010
34.816,-0.674,0.758,-0.008
34.826,-0.672,0.756,-0.012
34.836,-0.662,0.754,-0.014
34.846,-0.664,0.754,-0.016
34.856,-0.668,0.760,-0.018
34.866,-0.670,0.762,-0.021
34.875,-0.666,0.756,-0.021
34.885,-0.668,0.754,-0.023
34.895,-0.670,0.754,-0.027
34.905,-0.672,0.758,-0.025
34.915,-0.688,0.764,-0.029
34.925,-0.688,0.764,-0.037
34.935,-0.689,0.758,-0.041
34.945,-0.688,0.760,-0.047
34.955,-0.689,0.760,-0.053
34.965,-0.691,0.764,-0.051
34.975,-0.695,0.756,-0.059
34.985,-0.703,0.756,-0.059
34.995,-0.705,0.758,-0.062
35.005,-0.707,0.758,-0.064
35.014,-0.703,0.752,-0.062
35.024,-0.705,0.750,-0.064
35.034,-0.705,0.744,-0.064
35.044,-0.703,0.734,-0.072
35.054,-0.705,0.734,-0.076
35.064,-0.705,0.734,-0.076
35.074,-0.707,0.734,-0.076
35.084,-0.709,0.729,-0.082
35.094,-0.713,0.729,-0.086
35.104,-0.717,0.727,-0.086
35.114,-0.717,0.723,-0.090
35.124,-0.721,0.723,-0.092
35.134,-0.725,0.717,-0.094
35.144,-0.730,0.707,-0.096
35.153,-0.730,0.707,-0.096
35.163,-0.738,0.705,-0.100
35.173,-0.750,0.699,-0.100
35.183,-0.758,0.697,-0.102
35.193,-0.762,0.693,-0.098
35.203,-0.770,0.689,-0.100
35.213,-0.771,0.686,-0.096
35.223,-0.777,0.674,-0.094
35.233,-0.779,0.666,-0.094
35.243,-0.783,0.672,-0.088
35.253,-0.791,0.678,-0.086
35.263,-0.789,0.666,-0.080
35.273,-0.785,0.664,-0.082
35.283,-0.781,0.650,-0.078
35.292,-0.793,0.639,-0.078
35.302,-0.803,0.637,-0.080
35.312,-0.811,0.641,-0.076
35.322,-0.816,0.637,-0.078
35.332,-0.807,0.641,-0.074
35.342,-0.807,0.637,-0.074
35.352,-0.801,0.629,-0.082
35.362,-0.807,0.633,-0.084
35.372,-0.805,0.631,-0.082
35.382,-0.811,0.625,-0.092
35.392,-0.822,0.629,-0.094
35.402,-0.822,0.629,-0.096
35.412,-0.824,0.625,-0.104
35.422,-0.834,0.629,-0.109
35.431,-0.846,0.623,-0.113
35.441,-0.857,0.627,-0.119
35.451,-0.875,0.633,-0.117
35.461,-0.885,0.637,-0.119
35.471,-0.887,0.648,-0.121
35.481,-0.873,0.641,-0.123
35.491,-0.867,0.631,-0.125
35.501,-0.865,0.625,-0.117
35.511,-0.865,0.621,-0.111
35.521,-0.865,0.617,-0.113
35.531,-0.859,0.613,-0.100
35.541,-0.857,0.600,-0.098
35.551,-0.844,0.604,-0.092
35.561,-0.832,0.605,-0.080
35.570,-0.820,0.604,-0.078
35.580,-0.820,0.615,-0.070
35.590,-0.809,0.617,-0.062
35.600,-0.793,0.615,-0.061
35.610,-0.785,0.627,-0.053
35.620,-0.777,0.631,-0.051
35.630,-0.773,0.631,-0.045
35.640,-0.770,0.631,-0.039
35.650,-0.764,0.637,-0.039
35.660,-0.758,0.643,-0.039
35.670,-0.760,0.650,-0.035
35.680,-0.764,0.650,-0.035
35.690,-0.766,0.648,-0.035
35.699,-0.768,0.652,-0.035
35.709,-0.764,0.652,-0.035
35.719,-0.768,0.656,-0.031
35.729,-0.773,0.646,-0.037
35.739,-0.783,0.645,-0.041
35.749,-0.785,0.641,-0.039
35.759,-0.795,0.648,-0.043
35.769,-0.799,0.660,-0.045
35.779,-0.812,0.660,-0.045
35.789,-0.809,0.664,-0.051
35.799,-0.812,0.662,-0.055
35.809,-0.818,0.666,-0.059
35.819,-0.822,0.668,-0.059
35.829,-0.830,0.668,-0.066
35.838,-0.832,0.672,-0.064
35.848,-0.826,0.672,-0.062
35.858,-0.828,0.670,-0.068
35.868,-0.826,0.664,-0.062
35.878,-0.820,0.662,-0.066
35.888,-0.818,0.656,-0.064
35.898,-0.816,0.666,-0.062
35.908,-0.814,0.666,-0.062
35.918,-0.805,0.666,-0.062
35.928,-0.797,0.674,-0.055
35.938,-0.787,0.672,-0.055
35.948,-0.775,0.668,-0.051
35.958,-0.771,0.662,-0.045
35.968,-0.771,0.662,-0.047
35.977,-0.773,0.658,-0.043
35.987,-0.775,0.660,-0.041
35.997,-0.775,0.658,-0.039
36.007,-0.771,0.666,-0.037
36.017,-0.771,0.668,-0.033
36.027,-0.768,0.660,-0.033
36.037,-0.766,0.654,-0.035
36.047,-0.771,0.654,-0.033
36.057,-0.777,0.654,-0.037
36.067,-0.781,0.656,-0.039
36.077,-0.781,0.658,-0.039
36.087,-0.787,0.658,-0.033
36.097,-0.795,0.658,-0.035
36.107,-0.797,0.654,-0.039
36.116,-0.795,0.654,-0.035
36.126,-0.795,0.648,-0.037
36.136,-0.797,0.646,-0.035
36.146,-0.791,0.643,-0.037
36.156,-0.797,0.643,-0.033
36.166,-0.797,0.641,-0.037
36.176,-0.797,0.643,-0.035
36.186,-0.803,0.643,-0.037
36.196,-0.803,0.646,-0.037
36.206,-0.803,0.650,-0.035
36.216,-0.805,0.656,-0.039
36.226,-0.809,0.660,-0.039
36.236,-0.805,0.666,-0.045
36.246,-0.805,0.666,-0.047
36.255,-0.805,0.666,-0.047
36.265,-0.801,0.670,-0.049
36.275,-0.793,0.670,-0.049
36.285,-0.791,0.670,-0.049
36.295,-0.789,0.668,-0.047
36.305,-0.787,0.666,-0.049
36.315,-0.789,0.670,-0.049
36.325,-0.777,0.670,-0.047
36.335,-0.781,0.672,-0.045
36.345,-0.779,0.672,-0.045
36.355,-0.777,0.674,-0.045
36.365,-0.777,0.670,-0.047
36.375,-0.777,0.670,-0.047
36.385,-0.781,0.670,-0.047
36.394,-0.783,0.670,-0.045
36.404,-0.783,0.666,-0.043
36.414,-0.785,0.660,-0.049
36.424,-0.789,0.660,-0.045
36.434,-0.787,0.658,-0.043
36.444,-0.789,0.652,-0.045
36.454,-0.793,0.652,-0.043
36.464,-0.799,0.648,-0.043
36.474,-0.801,0.648,-0.041
36.484,-0.803,0.645,-0.041
36.494,-0.801,0.645,-0.045
36.504,-0.805,0.639,-0.045
36.514,-0.803,0.639,-0.045
36.524,-0.805,0.641,-0.043
36.533,-0.809,0.641,-0.047
36.543,-0.811,0.641,-0.043
36.553,-0.812,0.641,-0.045
36.563,-0.811,0.650,-0.043
36.573,-0.809,0.648,-0.041
36.583,-0.805,0.648,-0.041
36.593,-0.805,0.654,-0.041
36.603,-0.799,0.658,-0.045
36.613,-0.797,0.658,-0.043
36.623,-0.795,0.660,-0.041
36.633,-0.791,0.660,-0.039
36.643,-0.791,0.660,-0.039
36.653,-0.791,0.664,-0.041
36.663,-0.787,0.662,-0.039
36.672,-0.785,0.666,-0.039
36.682,-0.787,0.668,-0.037
36.692,-0.785,0.664,-0.041
36.702,-0.787,0.656,-0.035
36.712,-0.791,0.666,-0.035
36.722,-0.791,0.666,-0.029
36.732,-0.785,0.658,-0.037
36.742,-0.781,0.662,-0.027
36.752,-0.783,0.656,-0.031
36.762,-0.785,0.660,-0.029
36.772,-0.789,0.662,-0.029
36.782,-0.785,0.662,-0.029
36.792,-0.791,0.664,-0.029
36.802,-0.795,0.662,-0.029
36.811,-0.797,0.656,-0.021
36.821,-0.795,0.652,-0.025
36.831,-0.797,0.648,-0.025
36.841,-0.799,0.648,-0.025
36.851,-0.803,0.648,-0.025
36.861,-0.801,0.646,-0.025
36.871,-0.803,0.645,-0.025
36.881,-0.805,0.645,-0.033
36.891,-0.807,0.641,-0.031
36.901,-0.811,0.641,-0.029
36.911,-0.812,0.641,-0.031
36.921,-0.809,0.646,-0.035
36.931,-0.809,0.641,-0.037
36.941,-0.807,0.645,-0.039
36.950,-0.803,0.643,-0.039
36.960,-0.801,0.646,-0.039
36.970,-0.799,0.650,-0.041
36.980,-0.797,0.654,-0.043
36.990,-0.795,0.652,-0.045
37.000,-0.797,0.654,-0.043
37.010,-0.795,0.660,-0.045
37.020,-0.795,0.658,-0.041
37.030,-0.795,0.666,-0.039
37.040,-0.793,0.664,-0.037
37.050,-0.791,0.660,-0.037
37.060,-0.789,0.662,-0.037
37.070,-0.791,0.664,-0.039
37.080,-0.789,0.662,-0.039
37.089,-0.789,0.660,-0.035
37.099,-0.787,0.658,-0.035
37.109,-0.793,0.656,-0.033
37.119,-0.789,0.654,-0.033
37.129,-0.793,0.650,-0.033
37.139,-0.797,0.648,-0.039
37.149,-0.797,0.646,-0.035
37.159,-0.801,0.643,-0.031
37.169,-0.803,0.641,-0.035
37.179,-0.807,0.643,-0.033
37.189,-0.809,0.645,-0.035
37.199,-0.809,0.650,-0.033
37.209,-0.811,0.650,-0.035
37.219,-0.811,0.652,-0.041
37.228,-0.814,0.652,-0.035
37.238,-0.814,0.654,-0.037
37.248,-0.814,0.654,-0.041
37.258,-0.812,0.658,-0.033
37.268,-0.809,0.658,-0.039
37.278,-0.805,0.654,-0.039
37.288,-0.807,0.652,-0.033
37.298,-0.801,0.650,-0.033
37.308,-0.793,0.648,-0.035
37.318,-0.793,0.654,-0.033
37.328,-0.789,0.652,-0.033
37.338,-0.789,0.658,-0.031
37.348,-0.781,0.658,-0.029
37.358,-0.779,0.660,-0.031
37.367,-0.777,0.660,-0.029
37.377,-0.781,0.660,-0.025
37.387,-0.777,0.664,-0.025
37.397,-0.779,0.660,-0.023
37.407,-0.783,0.662,-0.025
37.417,-0.785,0.652,-0.025
37.427,-0.789,0.652,-0.023
37.437,-0.795,0.656,-0.020
37.447,-0.795,0.648,-0.025
37.457,-0.795,0.639,-0.025
37.467,-0.799,0.641,-0.027
37.477,-0.805,0.635,-0.025
37.487,-0.811,0.635,-0.029
37.496,-0.816,0.635,-0.031
37.506,-0.820,0.635,-0.031
37.516,-0.822,0.635,-0.031
37.526,-0.826,0.633,-0.033
37.536,-0.822,0.637,-0.035
37.546,-0.824,0.639,-0.035
37.556,-0.822,0.645,-0.037
37.566,-0.822,0.646,-0.039
37.576,-0.822,0.650,-0.037
37.586,-0.816,0.650,-0.037
37.596,-0.812,0.650,-0.035
37.606,-0.809,0.650,-0.035
37.616,-0.805,0.650,-0.037
37.626,-0.803,0.650,-0.035
37.635,-0.801,0.648,-0.033
37.645,-0.797,0.650,-0.033
37.655,-0.795,0.652,-0.035
37.665,-0.789,0.650,-0.037
37.675,-0.785,0.656,-0.033
37.685,-0.783,0.654,-0.031
37.695,-0.785,0.658,-0.031
37.705,-0.783,0.658,-0.031
37.715,-0.785,0.656,-0.033
37.725,-0.783,0.658,-0.031
37.735,-0.789,0.656,-0.031
37.745,-0.793,0.652,-0.033
37.755,-0.795,0.650,-0.031
37.765,-0.799,0.650,-0.033
37.774,-0.803,0.648,-0.035
37.784,-0.805,0.645,-0.033
37.794,-0.811,0.641,-0.039
37.804,-0.811,0.637,-0.037
37.814,-0.816,0.635,-0.039
37.824,-0.822,0.631,-0.039
37.834,-0.826,0.627,-0.041
37.844,-0.828,0.627,-0.041
37.854,-0.830,0.625,-0.047
37.864,-0.828,0.629,-0.045
37.874,-0.830,0.629,-0.043
37.884,-0.826,0.631,-0.041
37.894,-0.824,0.633,-0.043
37.904,-0.824,0.637,-0.041
37.913,-0.822,0.643,-0.039
37.923,-0.814,0.646,-0.037
37.933,-0.814,0.643,-0.035
37.943,-0.814,0.643,-0.035
37.953,-0.811,0.648,-0.037
37.963,-0.805,0.646,-0.037
37.973,-0.801,0.646,-0.037
37.983,-0.801,0.648,-0.035
37.993,-0.797,0.658,-0.035
38.003,-0.795,0.660,-0.037
38.013,-0.793,0.660,-0.035
38.023,-0.799,0.656,-0.039
38.033,-0.797,0.660,-0.039
38.043,-0.797,0.662,-0.041
38.052,-0.797,0.666,-0.039
38.062,-0.795,0.670,-0.033
38.072,-0.795,0.672,-0.039
38.082,-0.799,0.672,-0.035
38.092,-0.785,0.668,-0.033
38.102,-0.781,0.672,-0.031
38.112,-0.781,0.674,-0.031
38.122,-0.779,0.678,-0.033
38.132,-0.775,0.676,-0.031
38.142,-0.768,0.678,-0.033
38.152,-0.775,0.676,-0.031
38.162,-0.773,0.680,-0.025
38.172,-0.777,0.676,-0.031
38.182,-0.775,0.680,-0.031
38.191,-0.773,0.680,-0.027
38.201,-0.770,0.680,-0.035
38.211,-0.773,0.676,-0.033
38.221,-0.771,0.672,-0.031
38.231,-0.773,0.680,-0.029
38.241,-0.779,0.682,-0.027
38.251,-0.766,0.693,-0.029
38.261,-0.760,0.691,-0.021
38.271,-0.760,0.689,-0.033
38.281,-0.764,0.697,-0.027
38.291,-0.762,0.703,-0.031
38.301,-0.760,0.707,-0.031
38.311,-0.758,0.707,-0.033
38.321,-0.750,0.715,-0.037
38.330,-0.750,0.719,-0.033
38.340,-0.742,0.719,-0.035
38.350,-0.742,0.719,-0.033
38.360,-0.732,0.725,-0.031
38.370,-0.727,0.729,-0.029
38.380,-0.719,0.729,-0.033
38.390,-0.715,0.730,-0.029
38.400,-0.711,0.736,-0.033
38.410,-0.709,0.736,-0.025
38.420,-0.707,0.742,-0.029
38.430,-0.707,0.744,-0.027
38.440,-0.703,0.744,-0.025
38.450,-0.703,0.746,-0.025
38.460,-0.703,0.750,-0.025
38.469,-0.705,0.750,-0.023
38.479,-0.703,0.744,-0.020
38.489,-0.701,0.746,-0.020
38.499,-0.703,0.752,-0.020
38.509,-0.695,0.752,-0.016
38.519,-0.689,0.752,-0.014
38.529,-0.689,0.754,-0.010
38.539,-0.684,0.754,-0.008
38.549,-0.682,0.756,-0.010
38.559,-0.678,0.756,-0.006
38.569,-0.676,0.758,-0.002
38.579,-0.676,0.758,-0.006
38.589,-0.670,0.764,-0.002
38.599,-0.670,0.768,-0.004
38.608,-0.668,0.773,0.004
38.618,-0.666,0.777,0.002
38.628,-0.666,0.781,0.002
38.638,-0.674,0.781,0.002
38.648,-0.672,0.783,0.002
38.658,-0.672,0.783,-0.002
38.668,-0.666,0.789,0.004
38.678,-0.660,0.785,-0.002
38.688,-0.658,0.781,0.002
38.698,-0.656,0.775,-0.006
38.708,-0.660,0.779,-0.002
38.718,-0.658,0.781,-0.002
38.728,-0.652,0.781,-0.004
38.738,-0.650,0.779,-0.004
38.747,-0.654,0.777,-0.006
38.757,-0.652,0.779,-0.008
38.767,-0.648,0.779,-0.002
38.777,-0.652,0.773,-0.004
38.787,-0.652,0.773,0.000
38.797,-0.652,0.770,-0.002
38.807,-0.656,0.768,-0.002
38.817,-0.658,0.766,0.000
38.827,-0.662,0.762,-0.002
38.837,-0.670,0.766,-0.004
38.847,-0.674,0.768,-0.002
38.857,-0.680,0.766,-0.008
38.867,-0.684,0.768,-0.012
38.877,-0.684,0.768,-0.018
38.886,-0.688,0.768,-0.020
38.896,-0.695,0.766,-0.023
38.906,-0.701,0.762,-0.025
38.916,-0.709,0.760,-0.031
38.926,-0.715,0.752,-0.035
38.936,-0.715,0.742,-0.037
38.946,-0.717,0.748,-0.037
38.956,-0.727,0.752,-0.037
38.966,-0.725,0.748,-0.043
38.976,-0.729,0.740,-0.049
38.986,-0.734,0.738,-0.049
38.996,-0.740,0.740,-0.053
39.006,-0.746,0.736,-0.055
39.016,-0.744,0.736,-0.053
39.025,-0.744,0.734,-0.051
39.035,-0.742,0.730,-0.051
39.045,-0.742,0.719,-0.049
39.055,-0.738,0.719,-0.049
39.065,-0.732,0.721,-0.043
39.075,-0.725,0.725,-0.041
39.085,-0.719,0.727,-0.039
39.095,-0.713,0.730,-0.037
39.105,-0.707,0.738,-0.031
39.115,-0.705,0.742,-0.029
39.125,-0.697,0.744,-0.027
39.135,-0.693,0.750,-0.031
39.145,-0.689,0.756,-0.029
39.155,-0.689,0.756,-0.023
39.164,-0.691,0.756,-0.027
39.174,-0.691,0.752,-0.023
39.184,-0.697,0.750,-0.025
39.194,-0.701,0.752,-0.025
39.204,-0.709,0.742,-0.025
39.214,-0.719,0.742,-0.025
39.224,-0.723,0.740,-0.029
39.234,-0.725,0.736,-0.023
39.244,-0.729,0.736,-0.027
39.254,-0.729,0.732,-0.029
39.264,-0.729,0.727,-0.027
39.274,-0.730,0.721,-0.027
39.284,-0.729,0.721,-0.025
39.294,-0.729,0.719,-0.025
39.303,-0.727,0.721,-0.025
39.313,-0.723,0.723,-0.021
39.323,-0.725,0.730,-0.023
39.333,-0.725,0.738,-0.021
39.343,-0.721,0.748,-0.020
39.353,-0.719,0.746,-0.027
39.363,-0.717,0.746,-0.027
39.373,-0.711,0.748,-0.027
39.383,-0.711,0.756,-0.025
39.393,-0.707,0.750,-0.027
39.403,-0.705,0.746,-0.029
39.413,-0.705,0.746,-0.031
39.423,-0.703,0.752,-0.029
39.432,-0.697,0.748,-0.029
39.442,-0.695,0.750,-0.029
39.452,-0.699,0.752,-0.031
39.462,-0.697,0.754,-0.027
39.472,-0.697,0.756,-0.027
39.482,-0.695,0.750,-0.029
39.492,-0.693,0.750,-0.029
39.502,-0.697,0.756,-0.027
39.512,-0.699,0.750,-0.025
39.522,-0.703,0.746,-0.025
39.532,-0.705,0.750,-0.023
39.542,-0.707,0.750,-0.021
39.552,-0.707,0.746,-0.023
39.562,-0.707,0.744,-0.018
39.571,-0.711,0.740,-0.016
39.581,-0.715,0.738,-0.018
39.591,-0.717,0.734,-0.016
39.601,-0.721,0.730,-0.020
39.611,-0.723,0.727,-0.018
39.621,-0.727,0.723,-0.016
39.631,-0.723,0.723,-0.014
39.641,-0.729,0.721,-0.016
39.651,-0.727,0.723,-0.020
39.661,-0.727,0.725,-0.020
39.671,-0.730,0.729,-0.020
39.681,-0.730,0.730,-0.023
39.691,-0.730,0.729,-0.020
39.701,-0.729,0.729,-0.021
39.710,-0.729,0.738,-0.021
39.720,-0.727,0.740,-0.025
39.730,-0.717,0.734,-0.023
39.740,-0.711,0.732,-0.023
39.750,-0.713,0.736,-0.027
39.760,-0.715,0.740,-0.029
39.770,-0.715,0.746,-0.031
39.780,-0.715,0.744,-0.031
39.790,-0.715,0.748,-0.033
39.800,-0.717,0.748,-0.033
39.810,-0.713,0.748,-0.033
39.820,-0.715,0.748,-0.031
39.830,-0.715,0.744,-0.029
39.840,-0.707,0.744,-0.029
39.849,-0.707,0.744,-0.027
39.859,-0.703,0.746,-0.023
39.869,-0.705,0.746,-0.021
39.879,-0.705,0.742,-0.021
39.889,-0.705,0.744,-0.018
39.899,-0.707,0.746,-0.021
39.909,-0.705,0.740,-0.023
39.919,-0.715,0.736,-0.020
39.929,-0.717,0.734,-0.016
39.939,-0.715,0.734,-0.012
39.949,-0.717,0.732,-0.016
39.959,-0.719,0.730,-0.016
39.969,-0.721,0.732,-0.014
39.979,-0.719,0.729,-0.018
39.988,-0.721,0.723,-0.016
39.998,-0.725,0.723,-0.020
40.008,-0.727,0.721,-0.018
40.018,-0.729,0.723,-0.020
40.028,-0.729,0.725,-0.023
40.038,-0.729,0.725,-0.020
40.048,-0.729,0.729,-0.023
40.058,-0.730,0.730,-0.025
40.068,-0.734,0.730,-0.027
40.078,-0.732,0.738,-0.025
40.088,-0.734,0.738,-0.027
40.098,-0.730,0.740,-0.031
40.108,-0.729,0.740,-0.027
40.118,-0.727,0.740,-0.031
40.127,-0.723,0.740,-0.027
40.137,-0.723,0.738,-0.027
40.147,-0.717,0.740,-0.027
40.157,-0.715,0.738,-0.027
40.167,-0.715,0.738,-0.025
40.177,-0.711,0.740,-0.023
40.187,-0.709,0.742,-0.023
40.197,-0.705,0.744,-0.025
40.207,-0.703,0.740,-0.023
40.217,-0.705,0.742,-0.020
40.227,-0.701,0.746,-0.016
40.237,-0.701,0.744,-0.018
40.247,-0.703,0.742,-0.014
40.257,-0.707,0.742,-0.010
40.266,-0.709,0.742,-0.014
40.276,-0.703,0.742,-0.014
40.286,-0.707,0.734,-0.010
40.296,-0.713,0.730,-0.014
40.306,-0.719,0.729,-0.014
40.316,-0.727,0.730,-0.014
40.326,-0.725,0.729,-0.018
40.336,-0.729,0.727,-0.018
40.346,-0.732,0.725,-0.016
40.356,-0.734,0.721,-0.018
40.366,-0.736,0.719,-0.020
40.376,-0.730,0.721,-0.021
40.386,-0.732,0.721,-0.021
40.396,-0.730,0.721,-0.023
40.405,-0.734,0.727,-0.023
40.415,-0.732,0.725,-0.023
40.425,-0.736,0.732,-0.027
40.435,-0.732,0.736,-0.027
40.445,-0.730,0.736,-0.027
40.455,-0.729,0.740,-0.027
40.465,-0.729,0.740,-0.025
40.475,-0.727,0.742,-0.025
40.485,-0.727,0.744,-0.021
40.495,-0.725,0.742,-0.027
40.505,-0.719,0.736,-0.023
40.515,-0.715,0.738,-0.023
40.525,-0.715,0.746,-0.018
40.535,-0.707,0.740,-0.020
40.544,-0.701,0.736,-0.020
40.554,-0.705,0.738,-0.018
40.564,-0.707,0.740,-0.018
40.574,-0.705,0.744,-0.018
40.584,-0.707,0.746,-0.014
40.594,-0.709,0.744,-0.014
40.604,-0.713,0.744,-0.014
40.614,-0.713,0.740,-0.014
40.624,-0.717,0.736,-0.012
40.634,-0.715,0.734,-0.012
40.644,-0.717,0.730,-0.012
40.654,-0.719,0.729,-0.014
40.664,-0.721,0.727,-0.016
40.674,-0.723,0.721,-0.012
40.683,-0.725,0.725,-0.016
40.693,-0.727,0.723,-0.020
40.703,-0.729,0.723,-0.016
40.713,-0.730,0.721,-0.018
40.723,-0.732,0.723,-0.020
40.733,-0.736,0.725,-0.020
40.743,-0.738,0.725,-0.020
40.753,-0.732,0.727,-0.020
40.763,-0.734,0.727,-0.023
40.773,-0.730,0.727,-0.021
40.783,-0.732,0.730,-0.020
40.793,-0.730,0.730,-0.021
40.803,-0.725,0.730,-0.023
40.813,-0.725,0.732,-0.025
40.822,-0.725,0.736,-0.025
40.832,-0.727,0.738,-0.027
40.842,-0.725,0.736,-0.027
40.852,-0.721,0.736,-0.027
40.862,-0.723,0.738,-0.029
40.872,-0.721,0.740,-0.023
40.882,-0.721,0.738,-0.023
40.892,-0.721,0.742,-0.025
40.902,-0.721,0.744,-0.023
40.912,-0.721,0.746,-0.023
40.922,-0.715,0.744,-0.020
40.932,-0.719,0.742,-0.021
40.942,-0.715,0.744,-0.018
40.952,-0.715,0.742,-0.018
40.961,-0.713,0.742,-0.012
40.971,-0.711,0.740,-0.016
40.981,-0.713,0.736,-0.010
40.991,-0.709,0.732,-0.018
41.001,-0.711,0.732,-0.012
41.011,-0.711,0.729,-0.014
41.021,-0.711,0.732,-0.010
41.031,-0.711,0.730,-0.012
41.041,-0.711,0.730,-0.012
41.051,-0.707,0.727,-0.014
41.061,-0.711,0.730,-0.014
41.071,-0.717,0.729,-0.014
41.081,-0.721,0.730,-0.018
41.091,-0.719,0.723,-0.016
41.100,-0.725,0.725,-0.018
41.110,-0.725,0.725,-0.020
41.120,-0.732,0.730,-0.021
41.130,-0.730,0.732,-0.023
41.140,-0.734,0.727,-0.025
41.150,-0.740,0.730,-0.027
41.160,-0.740,0.729,-0.027
41.170,-0.744,0.729,-0.025
41.180,-0.744,0.730,-0.027
41.190,-0.740,0.727,-0.029
41.200,-0.738,0.730,-0.023
41.210,-0.734,0.727,-0.025
41.220,-0.732,0.730,-0.023
41.230,-0.729,0.729,-0.021
41.239,-0.725,0.729,-0.021
41.249,-0.725,0.732,-0.023
41.259,-0.725,0.732,-0.020
41.269,-0.725,0.734,-0.020
41.279,-0.723,0.738,-0.018
41.289,-0.723,0.736,-0.016
41.299,-0.719,0.736,-0.018
41.309,-0.715,0.738,-0.014
41.319,-0.719,0.736,-0.014
41.329,-0.715,0.732,-0.012
41.339,-0.715,0.732,-0.016
41.349,-0.715,0.729,-0.014
41.359,-0.709,0.730,-0.010
41.368,-0.713,0.740,-0.008
41.378,-0.713,0.732,-0.006
41.388,-0.707,0.730,-0.014
41.398,-0.707,0.729,-0.010
41.408,-0.711,0.734,-0.012
41.418,-0.715,0.736,-0.014
41.428,-0.719,0.736,-0.010
41.438,-0.721,0.734,-0.012
41.448,-0.721,0.738,-0.012
41.458,-0.725,0.734,-0.018
41.468,-0.727,0.732,-0.014
41.478,-0.725,0.730,-0.018
41.488,-0.721,0.732,-0.018
41.498,-0.727,0.729,-0.016
41.507,-0.723,0.725,-0.016
41.517,-0.727,0.725,-0.018
41.527,-0.729,0.725,-0.020
41.537,-0.729,0.727,-0.020
41.547,-0.730,0.729,-0.018
41.557,-0.732,0.730,-0.021
41.567,-0.734,0.729,-0.023
41.577,-0.736,0.734,-0.025
41.587,-0.736,0.734,-0.027
41.597,-0.732,0.732,-0.025
41.607,-0.732,0.732,-0.025
41.617,-0.730,0.732,-0.025
41.627,-0.729,0.732,-0.023
41.637,-0.729,0.740,-0.027
41.646,-0.727,0.740,-0.023
41.656,-0.727,0.742,-0.020
41.666,-0.723,0.740,-0.023
41.676,-0.721,0.740,-0.021
41.686,-0.723,0.742,-0.016
41.696,-0.719,0.740,-0.020
41.706,-0.719,0.738,-0.018
41.716,-0.715,0.742,-0.014
41.726,-0.715,0.742,-0.018
41.736,-0.711,0.736,-0.014
41.746,-0.713,0.738,-0.014
41.756,-0.707,0.736,-0.014
41.766,-0.709,0.738,-0.012
41.776,-0.707,0.734,-0.014
41.785,-0.709,0.738,-0.010
41.795,-0.707,0.736,-0.010
41.805,-0.707,0.734,-0.008
41.815,-0.709,0.738,-0.010
41.825,-0.711,0.736,-0.010
41.835,-0.713,0.732,-0.014
41.845,-0.715,0.732,-0.012
41.855,-0.719,0.732,-0.014
41.865,-0.721,0.732,-0.012
41.875,-0.725,0.730,-0.016
41.885,-0.725,0.727,-0.016
41.895,-0.730,0.727,-0.021
41.905,-0.732,0.727,-0.020
41.915,-0.734,0.725,-0.016
41.924,-0.730,0.725,-0.020
41.934,-0.736,0.725,-0.021
41.944,-0.736,0.725,-0.027
41.954,-0.738,0.730,-0.021
41.964,-0.736,0.732,-0.023
41.974,-0.738,0.732,-0.021
41.984,-0.736,0.730,-0.021
41.994,-0.736,0.730,-0.021
42.004,-0.732,0.732,-0.020
42.014,-0.729,0.734,-0.020
42.024,-0.729,0.736,-0.020
42.034,-0.725,0.738,-0.020
42.044,-0.725,0.738,-0.016
42.054,-0.725,0.742,-0.016
42.063,-0.721,0.742,-0.014
42.073,-0.717,0.740,-0.012
42.083,-0.713,0.736,-0.014
42.093,-0.713,0.742,-0.014
42.103,-0.709,0.738,-0.014
42.113,-0.709,0.740,-0.010
42.123,-0.709,0.740,-0.010
42.133,-0.707,0.734,-0.012
42.143,-0.703,0.738,-0.010
42.153,-0.711,0.746,-0.004
42.163,-0.705,0.740,-0.006
42.173,-0.705,0.734,-0.008
42.183,-0.701,0.734,-0.006
42.193,-0.707,0.732,-0.008
42.202,-0.713,0.734,-0.008
42.212,-0.711,0.736,-0.010
42.222,-0.721,0.738,-0.010
42.232,-0.723,0.738,-0.014
42.242,-0.729,0.730,-0.014
42.252,-0.725,0.732,-0.016
42.262,-0.729,0.729,-0.016
42.272,-0.727,0.725,-0.016
42.282,-0.729,0.727,-0.014
42.292,-0.732,0.727,-0.018
42.302,-0.729,0.725,-0.021
42.312,-0.730,0.725,-0.020
42.322,-0.734,0.729,-0.023
42.332,-0.732,0.732,-0.021
42.341,-0.734,0.734,-0.023
42.351,-0.732,0.732,-0.021
42.361,-0.729,0.736,-0.023
42.371,-0.727,0.736,-0.021
42.381,-0.729,0.734,-0.020
42.391,-0.727,0.742,-0.023
42.401,-0.723,0.742,-0.020
42.411,-0.719,0.740,-0.020
42.421,-0.719,0.740,-0.018
42.431,-0.715,0.742,-0.020
42.441,-0.715,0.744,-0.018
42.451,-0.713,0.738,-0.016
42.461,-0.711,0.742,-0.016
42.471,-0.713,0.742,-0.016
42.480,-0.711,0.738,-0.014
42.490,-0.713,0.736,-0.016
42.500,-0.709,0.738,-0.012
42.510,-0.709,0.738,-0.010
42.520,-0.707,0.738,-0.010
42.530,-0.707,0.736,-0.012
42.540,-0.709,0.738,-0.014
42.550,-0.711,0.734,-0.008
42.560,-0.711,0.736,-0.008
42.570,-0.713,0.734,-0.010
42.580,-0.715,0.734,-0.012
42.590,-0.717,0.734,-0.008
42.600,-0.719,0.732,-0.012
42.610,-0.721,0.730,-0.010
42.619,-0.725,0.730,-0.010
42.629,-0.729,0.729,-0.014
42.639,-0.729,0.729,-0.016
42.649,-0.729,0.729,-0.016
42.659,-0.730,0.727,-0.018
42.669,-0.730,0.727,-0.020
42.679,-0.729,0.727,-0.020
42.689,-0.730,0.730,-0.023
42.699,-0.732,0.736,-0.021
42.709,-0.730,0.736,-0.021
42.719,-0.727,0.736,-0.025
42.729,-0.727,0.740,-0.025
42.739,-0.727,0.740,-0.023
42.749,-0.721,0.740,-0.021
42.758,-0.721,0.742,-0.023
42.768,-0.721,0.744,-0.023
42.778,-0.721,0.742,-0.018
42.788,-0.719,0.740,-0.018
42.798,-0.715,0.738,-0.018
42.808,-0.715,0.738,-0.016
42.818,-0.717,0.742,-0.018
42.828,-0.717,0.744,-0.016
42.838,-0.717,0.740,-0.012
42.848,-0.715,0.738,-0.012
42.858,-0.715,0.740,-0.012
42.868,-0.713,0.736,-0.008
42.878,-0.711,0.736,-0.010
42.888,-0.715,0.738,-0.006
42.897,-0.711,0.734,-0.008
42.907,-0.713,0.734,-0.006
42.917,-0.715,0.732,-0.006
42.927,-0.715,0.732,-0.008
42.937,-0.717,0.729,-0.004
42.947,-0.719,0.730,-0.008
42.957,-0.721,0.729,-0.012
42.967,-0.725,0.730,-0.010
42.977,-0.727,0.727,-0.010
42.987,-0.729,0.729,-0.012
42.997,-0.730,0.729,-0.012
43.007,-0.730,0.732,-0.016
43.017,-0.736,0.729,-0.018
43.027,-0.730,0.729,-0.018
43.036,-0.734,0.732,-0.016
43.046,-0.730,0.734,-0.016
43.056,-0.725,0.730,-0.016
43.066,-0.721,0.729,-0.016
43.076,-0.725,0.730,-0.018
43.086,-0.727,0.734,-0.021
43.096,-0.727,0.736,-0.018
43.106,-0.729,0.744,-0.018
43.116,-0.723,0.746,-0.020
43.126,-0.723,0.744,-0.014
43.136,-0.723,0.742,-0.018
43.146,-0.717,0.740,-0.016
43.156,-0.715,0.738,-0.014
43.165,-0.713,0.736,-0.010
43.175,-0.711,0.738,-0.014
43.185,-0.709,0.738,-0.010
43.195,-0.707,0.736,-0.008
43.205,-0.709,0.736,-0.008
43.215,-0.711,0.738,-0.008
43.225,-0.715,0.734,-0.010
43.235,-0.717,0.734,-0.012
43.245,-0.717,0.732,-0.010
43.255,-0.717,0.734,-0.014
43.265,-0.719,0.730,-0.012
43.275,-0.721,0.732,-0.014
43.285,-0.721,0.729,-0.016
43.295,-0.725,0.732,-0.018
43.304,-0.725,0.730,-0.014
43.314,-0.725,0.732,-0.016
43.324,-0.727,0.732,-0.016
43.334,-0.727,0.730,-0.016
43.344,-0.725,0.730,-0.020
43.354,-0.725,0.734,-0.020
43.364,-0.729,0.732,-0.018
43.374,-0.723,0.732,-0.018
43.384,-0.729,0.734,-0.020
43.394,-0.727,0.736,-0.021
43.404,-0.725,0.734,-0.020
43.414,-0.725,0.734,-0.018
43.424,-0.727,0.734,-0.021
43.434,-0.723,0.734,-0.018
43.443,-0.721,0.734,-0.016
43.453,-0.721,0.736,-0.018
43.463,-0.719,0.738,-0.018
43.473,-0.723,0.738,-0.016
43.483,-0.717,0.736,-0.012
43.493,-0.721,0.736,-0.010
43.503,-0.717,0.738,-0.012
43.513,-0.717,0.734,-0.012
43.523,-0.719,0.732,-0.012
43.533,-0.715,0.738,-0.008
43.543,-0.719,0.734,-0.008
43.553,-0.719,0.734,-0.008
43.563,-0.717,0.736,-0.006
43.573,-0.717,0.732,-0.008
43.582,-0.717,0.730,-0.006
43.592,-0.719,0.736,-0.010
43.602,-0.723,0.736,-0.008
43.612,-0.721,0.730,-0.012
43.622,-0.721,0.732,-0.010
43.632,-0.727,0.732,-0.010
43.642,-0.723,0.732,-0.014
43.652,-0.725,0.732,-0.012
43.662,-0.725,0.732,-0.012
43.672,-0.727,0.732,-0.014
43.682,-0.727,0.734,-0.014
43.692,-0.723,0.734,-0.014
43.702,-0.727,0.734,-0.020
43.712,-0.727,0.732,-0.016
43.721,-0.730,0.734,-0.018
43.731,-0.730,0.736,-0.016
43.741,-0.729,0.738,-0.016
43.751,-0.729,0.738,-0.016
43.761,-0.727,0.736,-0.016
43.771,-0.727,0.736,-0.014
43.781,-0.723,0.734,-0.018
43.791,-0.723,0.732,-0.016
43.801,-0.717,0.730,-0.014
43.811,-0.717,0.732,-0.012
43.821,-0.717,0.730,-0.012
43.831,-0.721,0.730,-0.010
43.841,-0.719,0.732,-0.014
43.851,-0.719,0.730,-0.014
43.860,-0.723,0.736,-0.012
43.870,-0.721,0.732,-0.014
43.880,-0.721,0.730,-0.016
43.890,-0.719,0.732,-0.012
43.900,-0.721,0.734,-0.014
43.910,-0.727,0.736,-0.014
43.920,-0.727,0.730,-0.014
43.930,-0.725,0.732,-0.012
43.940,-0.727,0.738,-0.012
43.950,-0.723,0.734,-0.012
43.960,-0.721,0.727,-0.014
43.970,-0.719,0.729,-0.016
43.980,-0.723,0.734,-0.014
43.990,-0.725,0.736,-0.014
43.999,-0.727,0.736,-0.016
44.009,-0.727,0.736,-0.014
44.019,-0.729,0.740,-0.012
44.029,-0.729,0.738,-0.016
44.039,-0.727,0.736,-0.018
44.049,-0.725,0.734,-0.016
44.059,-0.723,0.732,-0.014
44.069,-0.723,0.730,-0.012
44.079,-0.719,0.729,-0.014
44.089,-0.717,0.730,-0.012
44.099,-0.721,0.732,-0.016
44.109,-0.717,0.734,-0.012
44.119,-0.721,0.730,-0.012
44.129,-0.721,0.734,-0.012
44.138,-0.721,0.732,-0.012
44.148,-0.723,0.734,-0.012
44.158,-0.723,0.736,-0.012
44.168,-0.721,0.736,-0.014
44.178,-0.723,0.734,-0.014
44.188,-0.727,0.734,-0.012
44.198,-0.727,0.730,-0.016
44.208,-0.723,0.734,-0.018
44.218,-0.727,0.734,-0.014
44.228,-0.723,0.732,-0.012
44.238,-0.725,0.732,-0.014
44.248,-0.727,0.732,-0.012
44.258,-0.727,0.732,-0.010
44.268,-0.727,0.732,-0.010
44.277,-0.729,0.730,-0.014
44.287,-0.727,0.732,-0.012
44.297,-0.729,0.732,-0.012
44.307,-0.725,0.730,-0.014
44.317,-0.727,0.730,-0.014
44.327,-0.725,0.730,-0.014
44.337,-0.725,0.734,-0.014
44.347,-0.721,0.730,-0.010
44.357,-0.723,0.732,-0.014
44.367,-0.725,0.730,-0.008
44.377,-0.725,0.734,-0.010
44.387,-0.725,0.732,-0.010
44.397,-0.723,0.732,-0.010
44.407,-0.725,0.730,-0.012
44.416,-0.727,0.732,-0.010
44.426,-0.725,0.730,-0.012
44.436,-0.725,0.732,-0.010
44.446,-0.727,0.730,-0.012
44.456,-0.725,0.729,-0.012
44.466,-0.723,0.729,-0.012
44.476,-0.725,0.732,-0.014
44.486,-0.721,0.734,-0.010
44.496,-0.723,0.729,-0.014
44.506,-0.723,0.727,-0.012
44.516,-0.723,0.736,-0.010
44.526,-0.725,0.730,-0.014
44.536,-0.725,0.729,-0.014
44.546,-0.725,0.732,-0.014
44.555,-0.723,0.730,-0.012
44.565,-0.725,0.732,-0.014
44.575,-0.725,0.736,-0.014
44.585,-0.725,0.730,-0.016
44.595,-0.730,0.730,-0.016
44.605,-0.730,0.729,-0.016
44.615,-0.734,0.730,-0.014
44.625,-0.732,0.732,-0.012
44.635,-0.727,0.732,-0.016
44.645,-0.730,0.734,-0.010
44.655,-0.727,0.730,-0.010
44.665,-0.725,0.729,-0.012
44.675,-0.725,0.729,-0.012
44.685,-0.723,0.729,-0.012
44.694,-0.723,0.730,-0.010
44.704,-0.721,0.732,-0.012
44.714,-0.723,0.729,-0.012
44.724,-0.723,0.730,-0.010
44.734,-0.723,0.730,-0.014
44.744,-0.723,0.732,-0.010
44.754,-0.725,0.736,-0.010
44.764,-0.725,0.734,-0.012
44.774,-0.725,0.734,-0.012
44.784,-0.727,0.732,-0.012
44.794,-0.723,0.738,-0.012
44.804,-0.725,0.729,-0.014
44.814,-0.729,0.736,-0.010
44.824,-0.732,0.738,-0.010
44.833,-0.727,0.736,-0.010
44.843,-0.723,0.730,-0.008
44.853,-0.721,0.727,-0.012
44.863,-0.723,0.729,-0.014
44.873,-0.727,0.732,-0.012
44.883,-0.732,0.732,-0.014
44.893,-0.730,0.734,-0.012
44.903,-0.729,0.732,-0.016
44.913,-0.729,0.732,-0.016
44.923,-0.727,0.730,-0.010
44.933,-0.729,0.730,-0.012
44.943,-0.721,0.732,-0.012
44.953,-0.721,0.732,-0.012
44.963,-0.719,0.730,-0.014
44.972,-0.721,0.732,-0.012
44.982,-0.717,0.732,-0.012
44.992,-0.719,0.734,-0.012
45.002,-0.719,0.734,-0.012
45.012,-0.719,0.734,-0.014
45.022,-0.721,0.734,-0.012
45.032,-0.723,0.738,-0.016
45.042,-0.723,0.736,-0.014
45.052,-0.723,0.738,-0.014
45.062,-0.725,0.732,-0.016
45.072,-0.727,0.732,-0.018
45.082,-0.725,0.732,-0.016
45.092,-0.725,0.734,-0.018
45.101,-0.725,0.732,-0.016
45.111,-0.729,0.732,-0.018
45.121,-0.727,0.734,-0.018
45.131,-0.725,0.732,-0.014
45.141,-0.725,0.730,-0.016
45.151,-0.723,0.732,-0.014
45.161,-0.727,0.732,-0.014
45.171,-0.727,0.732,-0.014
45.181,-0.725,0.732,-0.010
45.191,-0.723,0.732,-0.012
45.201,-0.723,0.732,-0.010
45.211,-0.721,0.732,-0.012
45.221,-0.725,0.730,-0.012
45.231,-0.725,0.734,-0.012
45.240,-0.725,0.732,-0.010
45.250,-0.723,0.730,-0.014
45.260,-0.725,0.732,-0.014
45.270,-0.725,0.730,-0.014
45.280,-0.723,0.732,-0.014
45.290,-0.723,0.729,-0.012
45.300,-0.719,0.729,-0.016
45.310,-0.719,0.730,-0.010
45.320,-0.725,0.736,-0.014
45.330,-0.727,0.732,-0.018
45.340,-0.725,0.732,-0.014
45.350,-0.725,0.734,-0.016
45.360,-0.723,0.736,-0.010
45.370,-0.723,0.732,-0.016
45.379,-0.723,0.732,-0.014
45.389,-0.725,0.732,-0.014
45.399,-0.723,0.734,-0.014
45.409,-0.721,0.732,-0.018
45.419,-0.723,0.734,-0.016
45.429,-0.725,0.732,-0.014
45.439,-0.725,0.732,-0.016
45.449,-0.730,0.732,-0.016
45.459,-0.732,0.732,-0.014
45.469,-0.730,0.736,-0.016
45.479,-0.730,0.732,-0.012
45.489,-0.727,0.734,-0.014
45.499,-0.725,0.730,-0.012
45.509,-0.723,0.730,-0.008
45.518,-0.721,0.730,-0.014
45.528,-0.719,0.730,-0.008
45.538,-0.719,0.730,-0.008
45.548,-0.723,0.732,-0.008
45.558,-0.721,0.730,-0.012
45.568,-0.721,0.734,-0.012
45.578,-0.721,0.730,-0.012
45.588,-0.721,0.730,-0.014
45.598,-0.717,0.732,-0.012
45.608,-0.721,0.734,-0.012
45.618,-0.723,0.736,-0.012
45.628,-0.725,0.738,-0.014
45.638,-0.721,0.734,-0.012
45.648,-0.725,0.730,-0.012
45.657,-0.727,0.738,-0.010
45.667,-0.725,0.740,-0.010
45.677,-0.719,0.730,-0.014
45.687,-0.721,0.725,-0.010
45.697,-0.721,0.729,-0.010
45.707,-0.727,0.730,-0.016
45.717,-0.725,0.730,-0.014
45.727,-0.730,0.734,-0.014
45.737,-0.730,0.738,-0.012
45.747,-0.730,0.734,-0.014
45.757,-0.729,0.732,-0.018
45.767,-0.727,0.732,-0.016
45.777,-0.727,0.734,-0.018
45.787,-0.725,0.736,-0.016
45.796,-0.723,0.732,-0.016
45.806,-0.723,0.734,-0.020
45.816,-0.723,0.732,-0.014
45.826,-0.721,0.732,-0.014
45.836,-0.723,0.732,-0.012
45.846,-0.723,0.734,-0.014
45.856,-0.723,0.734,-0.012
45.866,-0.719,0.734,-0.014
45.876,-0.723,0.734,-0.014
45.886,-0.725,0.734,-0.014
45.896,-0.723,0.734,-0.014
45.906,-0.725,0.732,-0.012
45.916,-0.723,0.730,-0.010
45.926,-0.725,0.736,-0.014
45.935,-0.725,0.732,-0.012
45.945,-0.723,0.734,-0.012
45.955,-0.725,0.734,-0.016
45.965,-0.725,0.734,-0.016
45.975,-0.725,0.734,-0.012
45.985,-0.723,0.734,-0.014
45.995,-0.725,0.730,-0.012
46.005,-0.729,0.732,-0.012
46.015,-0.727,0.734,-0.014
46.025,-0.725,0.730,-0.012
46.035,-0.727,0.730,-0.014
46.045,-0.725,0.730,-0.012
46.055,-0.727,0.730,-0.010
46.065,-0.725,0.730,-0.014
46.074,-0.725,0.732,-0.012
46.084,-0.725,0.734,-0.012
46.094,-0.725,0.736,-0.010
46.104,-0.727,0.732,-0.014
46.114,-0.725,0.734,-0.012
46.124,-0.725,0.736,-0.010
46.134,-0.721,0.732,-0.014
46.144,-0.725,0.732,-0.012
46.154,-0.725,0.730,-0.012
46.164,-0.723,0.732,-0.012
46.174,-0.723,0.734,-0.014
46.184,-0.721,0.732,-0.012
46.194,-0.725,0.736,-0.014
46.204,-0.723,0.732,-0.014
46.213,-0.723,0.732,-0.012
46.223,-0.721,0.734,-0.014
46.233,-0.721,0.736,-0.012
46.243,-0.721,0.730,-0.014
46.253,-0.719,0.732,-0.014
46.263,-0.719,0.734,-0.010
46.273,-0.721,0.734,-0.014
46.283,-0.723,0.730,-0.010
46.293,-0.725,0.734,-0.010
46.303,-0.725,0.736,-0.012
46.313,-0.723,0.734,-0.012
46.323,-0.719,0.734,-0.010
46.333,-0.723,0.730,-0.012
46.343,-0.727,0.730,-0.014
46.352,-0.730,0.732,-0.014
46.362,-0.730,0.734,-0.018
46.372,-0.729,0.736,-0.014
46.382,-0.729,0.734,-0.014
46.392,-0.730,0.732,-0.014
46.402,-0.727,0.730,-0.014
46.412,-0.723,0.734,-0.012
46.422,-0.725,0.732,-0.014
46.432,-0.719,0.729,-0.012
46.442,-0.721,0.732,-0.012
46.452,-0.719,0.732,-0.016
46.462,-0.723,0.730,-0.012
46.472,-0.721,0.734,-0.010
46.482,-0.723,0.732,-0.012
46.491,-0.721,0.730,-0.012
46.501,-0.723,0.734,-0.014
46.511,-0.723,0.730,-0.010
46.521,-0.721,0.734,-0.012
46.531,-0.723,0.732,-0.008
46.541,-0.729,0.736,-0.014
46.551,-0.729,0.729,-0.016
46.561,-0.725,0.732,-0.012
46.571,-0.729,0.738,-0.010
46.581,-0.730,0.734,-0.008
46.591,-0.725,0.727,-0.014
46.601,-0.721,0.729,-0.014
46.611,-0.730,0.727,-0.010
46.621,-0.730,0.729,-0.012
46.630,-0.729,0.729,-0.014
46.640,-0.730,0.734,-0.012
46.650,-0.729,0.730,-0.010
46.660,-0.732,0.732,-0.014
46.670,-0.730,0.730,-0.010
46.680,-0.729,0.730,-0.010
46.690,-0.727,0.732,-0.008
46.700,-0.725,0.730,-0.014
46.710,-0.725,0.730,-0.008
46.720,-0.723,0.729,-0.012
46.730,-0.723,0.730,-0.010
46.740,-0.725,0.734,-0.012
46.750,-0.721,0.732,-0.012
46.760,-0.721,0.732,-0.008
46.769,-0.723,0.732,-0.012
46.779,-0.725,0.734,-0.010
46.789,-0.725,0.734,-0.012
46.799,-0.723,0.732,-0.014
46.809,-0.725,0.734,-0.014
46.819,-0.723,0.734,-0.012
46.829,-0.727,0.734,-0.016
46.839,-0.723,0.732,-0.018
46.849,-0.725,0.734,-0.014
46.859,-0.729,0.736,-0.012
46.869,-0.727,0.732,-0.014
46.879,-0.729,0.734,-0.014
46.889,-0.729,0.729,-0.018
46.899,-0.729,0.730,-0.012
46.908,-0.730,0.729,-0.014
46.918,-0.730,0.729,-0.012
46.928,-0.729,0.729,-0.014
46.938,-0.729,0.729,-0.012
46.948,-0.730,0.727,-0.010
46.958,-0.727,0.729,-0.014
46.968,-0.727,0.730,-0.010
46.978,-0.730,0.732,-0.014
46.988,-0.727,0.727,-0.010
46.998,-0.729,0.732,-0.012
47.008,-0.727,0.730,-0.010
47.018,-0.727,0.729,-0.012
47.028,-0.729,0.727,-0.010
47.037,-0.723,0.732,-0.010
47.047,-0.725,0.730,-0.010
47.057,-0.730,0.730,-0.012
47.067,-0.727,0.730,-0.012
47.077,-0.727,0.734,-0.012
47.087,-0.727,0.730,-0.014
47.097,-0.727,0.732,-0.014
47.107,-0.727,0.730,-0.012
47.117,-0.725,0.732,-0.012
47.127,-0.727,0.736,-0.014
47.137,-0.725,0.730,-0.016
47.147,-0.725,0.732,-0.014
47.157,-0.727,0.732,-0.008
47.167,-0.723,0.734,-0.012
47.176,-0.723,0.730,-0.014
47.186,-0.725,0.727,-0.012
47.196,-0.727,0.729,-0.014
47.206,-0.725,0.730,-0.014
47.216,-0.727,0.727,-0.012
47.226,-0.729,0.729,-0.012
47.236,-0.734,0.727,-0.016
47.246,-0.734,0.729,-0.014
47.256,-0.736,0.730,-0.012
47.266,-0.736,0.729,-0.014
47.276,-0.736,0.725,-0.010
47.286,-0.734,0.727,-0.014
47.296,-0.730,0.727,-0.012
47.306,-0.729,0.721,-0.010
47.315,-0.730,0.725,-0.010
47.325,-0.729,0.723,-0.012
47.335,-0.727,0.727,-0.010
47.345,-0.727,0.725,-0.008
47.355,-0.725,0.725,-0.012
47.365,-0.730,0.729,-0.012
47.375,-0.727,0.730,-0.010
47.385,-0.723,0.730,-0.014
47.395,-0.727,0.734,-0.014
47.405,-0.725,0.730,-0.014
47.415,-0.729,0.732,-0.016
47.425,-0.729,0.732,-0.016
47.435,-0.729,0.734,-0.012
47.445,-0.727,0.729,-0.012
47.454,-0.730,0.729,-0.014
47.464,-0.732,0.736,-0.010
47.474,-0.727,0.734,-0.012
47.484,-0.725,0.727,-0.012
47.494,-0.723,0.725,-0.010
47.504,-0.727,0.730,-0.012
47.514,-0.729,0.732,-0.010
47.524,-0.730,0.730,-0.012
47.534,-0.730,0.734,-0.014
47.544,-0.729,0.732,-0.014
47.554,-0.727,0.732,-0.016
47.564,-0.729,0.727,-0.012
47.574,-0.729,0.732,-0.014
47.584,-0.723,0.729,-0.010
47.593,-0.723,0.730,-0.014
47.603,-0.719,0.729,-0.012
47.613,-0.723,0.730,-0.010
47.623,-0.723,0.730,-0.014
47.633,-0.723,0.729,-0.014
47.643,-0.725,0.734,-0.014
47.653,-0.725,0.732,-0.014
47.663,-0.727,0.730,-0.012
47.673,-0.729,0.730,-0.012
47.683,-0.730,0.732,-0.014
47.693,-0.727,0.729,-0.016
47.703,-0.729,0.729,-0.014
47.713,-0.730,0.730,-0.014
47.723,-0.729,0.729,-0.014
47.732,-0.727,0.727,-0.018
47.742,-0.729,0.730,-0.016
47.752,-0.727,0.732,-0.016
47.762,-0.727,0.730,-0.016
47.772,-0.729,0.730,-0.016
47.782,-0.727,0.729,-0.016
47.792,-0.730,0.729,-0.016
47.802,-0.730,0.732,-0.014
47.812,-0.732,0.732,-0.016
47.822,-0.730,0.730,-0.014
47.832,-0.729,0.727,-0.014
47.842,-0.729,0.729,-0.012
47.852,-0.729,0.730,-0.014
47.862,-0.727,0.729,-0.014
47.871,-0.730,0.729,-0.016
47.881,-0.729,0.729,-0.014
47.891,-0.729,0.730,-0.012
47.901,-0.725,0.729,-0.012
47.911,-0.727,0.729,-0.010
47.921,-0.723,0.732,-0.010
47.931,-0.725,0.734,-0.008
47.941,-0.727,0.734,-0.014
47.951,-0.723,0.732,-0.012
47.961,-0.723,0.736,-0.010
47.971,-0.725,0.736,-0.008
47.981,-0.727,0.732,-0.010
47.991,-0.725,0.729,-0.010
48.001,-0.725,0.729,-0.014
48.010,-0.723,0.730,-0.010
48.020,-0.727,0.732,-0.010
48.030,-0.727,0.730,-0.008
48.040,-0.727,0.730,-0.012
48.050,-0.732,0.729,-0.012
48.060,-0.732,0.730,-0.012
48.070,-0.730,0.732,-0.014
48.080,-0.734,0.732,-0.014
48.090,-0.736,0.732,-0.012
48.100,-0.732,0.729,-0.010
48.110,-0.734,0.725,-0.014
48.120,-0.730,0.727,-0.012
48.130,-0.729,0.727,-0.010
48.140,-0.727,0.727,-0.012
48.149,-0.729,0.727,-0.010
48.159,-0.727,0.729,-0.012
48.169,-0.727,0.727,-0.012
48.179,-0.727,0.725,-0.012
48.189,-0.727,0.727,-0.010
48.199,-0.727,0.729,-0.014
48.209,-0.727,0.730,-0.018
48.219,-0.729,0.729,-0.010
48.229,-0.727,0.729,-0.016
48.239,-0.729,0.730,-0.016
48.249,-0.730,0.725,-0.012
48.259,-0.727,0.725,-0.016
48.269,-0.730,0.732,-0.012
48.279,-0.730,0.732,-0.012
48.288,-0.723,0.727,-0.012
48.298,-0.727,0.723,-0.014
48.308,-0.727,0.725,-0.014
48.318,-0.730,0.723,-0.016
48.328,-0.732,0.732,-0.016
48.338,-0.730,0.732,-0.012
48.348,-0.732,0.730,-0.012
48.358,-0.734,0.730,-0.010
48.368,-0.732,0.729,-0.012
48.378,-0.730,0.729,-0.012
48.388,-0.729,0.727,-0.012
48.398,-0.725,0.725,-0.016
48.408,-0.730,0.727,-0.010
48.418,-0.727,0.727,-0.012
48.427,-0.727,0.727,-0.012
48.437,-0.729,0.727,-0.012
48.447,-0.725,0.729,-0.012
48.457,-0.730,0.730,-0.010
48.467,-0.730,0.727,-0.012
48.477,-0.730,0.727,-0.012
48.487,-0.729,0.729,-0.010
48.497,-0.730,0.725,-0.012
48.507,-0.730,0.729,-0.014
48.517,-0.729,0.727,-0.012
48.527,-0.729,0.730,-0.014
48.537,-0.730,0.729,-0.012
48.547,-0.729,0.729,-0.012
48.557,-0.729,0.730,-0.012
48.566,-0.729,0.730,-0.014
48.576,-0.729,0.730,-0.012
48.586,-0.729,0.729,-0.014
48.596,-0.730,0.730,-0.012
48.606,-0.727,0.727,-0.010
48.616,-0.730,0.729,-0.012
48.626,-0.730,0.729,-0.012
48.636,-0.727,0.729,-0.010
48.646,-0.730,0.729,-0.012
48.656,-0.732,0.730,-0.008
48.666,-0.730,0.729,-0.010
48.676,-0.730,0.729,-0.010
48.686,-0.729,0.727,-0.012
48.696,-0.730,0.727,-0.010
48.705,-0.732,0.729,-0.010
48.715,-0.732,0.729,-0.010
48.725,-0.730,0.729,-0.012
48.735,-0.730,0.725,-0.012
48.745,-0.732,0.725,-0.012
48.755,-0.732,0.727,-0.010
48.765,-0.732,0.727,-0.008
48.775,-0.732,0.730,-0.010
48.785,-0.734,0.727,-0.012
48.795,-0.730,0.727,-0.012
48.805,-0.734,0.727,-0.010
48.815,-0.730,0.725,-0.010
48.825,-0.732,0.725,-0.010
48.834,-0.732,0.721,-0.008
48.844,-0.734,0.727,-0.008
48.854,-0.734,0.729,-0.006
48.864,-0.730,0.727,-0.010
48.874,-0.727,0.727,-0.010
48.884,-0.734,0.725,-0.012
48.894,-0.732,0.729,-0.012
48.904,-0.738,0.727,-0.012
48.914,-0.740,0.727,-0.014
48.924,-0.738,0.727,-0.012
48.934,-0.740,0.729,-0.014
48.944,-0.732,0.725,-0.010
48.954,-0.732,0.725,-0.010
48.964,-0.730,0.727,-0.008
48.973,-0.730,0.725,-0.012
48.983,-0.730,0.727,-0.008
48.993,-0.732,0.727,-0.012
49.003,-0.729,0.729,-0.008
49.013,-0.729,0.729,-0.010
49.023,-0.729,0.729,-0.010
49.033,-0.729,0.729,-0.010
49.043,-0.730,0.729,-0.008
49.053,-0.730,0.729,-0.008
49.063,-0.730,0.725,-0.008
49.073,-0.734,0.729,-0.010
49.083,-0.736,0.727,-0.010
49.093,-0.734,0.723,-0.008
49.103,-0.732,0.725,-0.006
49.112,-0.734,0.734,-0.008
49.122,-0.730,0.727,-0.004
49.132,-0.725,0.721,-0.008
49.142,-0.723,0.721,-0.006
49.152,-0.729,0.727,-0.006
49.162,-0.730,0.729,-0.004
49.172,-0.730,0.729,-0.006
49.182,-0.730,0.732,-0.008
49.192,-0.729,0.727,-0.010
