df_hash,22ZHK4.LDJS1X
device,HZ2X61
project_hash,29R7
project_name,istanbul_aydin_university
person_hash,29R7.K7SC
person_label,V9
date_time_start,2025-05-22_11-15-08.285000_+03
date_time_start_unix,1747901708.285
date_time_end,2025-05-22_11-23-57.022000_+03
length_difference_noticed,no

time,acc_x,acc_y,acc_z
4.530,-0.395,0.900,0.031
4.540,-0.395,0.898,0.031
4.550,-0.396,0.898,0.033
4.560,-0.398,0.900,0.033
4.570,-0.396,0.902,0.035
4.580,-0.395,0.900,0.033
4.590,-0.393,0.900,0.035
4.600,-0.396,0.904,0.037
4.610,-0.396,0.906,0.035
4.620,-0.400,0.906,0.033
4.629,-0.398,0.902,0.037
4.639,-0.396,0.900,0.033
4.649,-0.396,0.900,0.033
4.659,-0.400,0.900,0.035
4.669,-0.400,0.904,0.033
4.679,-0.402,0.902,0.035
4.689,-0.402,0.900,0.035
4.699,-0.402,0.902,0.033
4.709,-0.402,0.904,0.033
4.719,-0.404,0.902,0.031
4.729,-0.402,0.906,0.031
4.739,-0.402,0.902,0.033
4.749,-0.406,0.902,0.033
4.758,-0.402,0.902,0.029
4.768,-0.400,0.898,0.031
4.778,-0.402,0.902,0.033
4.788,-0.400,0.896,0.031
4.798,-0.400,0.898,0.029
4.808,-0.398,0.896,0.029
4.818,-0.398,0.896,0.029
4.828,-0.400,0.898,0.031
4.838,-0.398,0.898,0.027
4.848,-0.402,0.896,0.029
4.858,-0.402,0.900,0.023
4.868,-0.404,0.896,0.025
4.878,-0.406,0.902,0.031
4.887,-0.408,0.906,0.029
4.897,-0.406,0.908,0.029
4.907,-0.400,0.908,0.031
4.917,-0.398,0.908,0.029
4.927,-0.393,0.908,0.029
4.937,-0.395,0.906,0.029
4.947,-0.395,0.896,0.027
4.957,-0.391,0.900,0.027
4.967,-0.393,0.900,0.023
4.977,-0.393,0.904,0.029
4.987,-0.393,0.906,0.027
4.997,-0.393,0.908,0.027
5.007,-0.395,0.908,0.025
5.016,-0.393,0.906,0.027
5.026,-0.396,0.904,0.023
5.036,-0.396,0.904,0.025
5.046,-0.398,0.906,0.023
5.056,-0.396,0.908,0.025
5.066,-0.400,0.904,0.023
5.076,-0.398,0.906,0.025
5.086,-0.400,0.902,0.025
5.096,-0.398,0.904,0.021
5.106,-0.400,0.906,0.023
5.116,-0.395,0.904,0.027
5.126,-0.396,0.904,0.027
5.136,-0.395,0.906,0.025
5.145,-0.393,0.902,0.027
5.155,-0.393,0.906,0.027
5.165,-0.395,0.906,0.029
5.175,-0.395,0.900,0.033
5.185,-0.391,0.902,0.031
5.195,-0.391,0.908,0.027
5.205,-0.393,0.904,0.029
5.215,-0.391,0.904,0.031
5.225,-0.387,0.908,0.031
5.235,-0.387,0.906,0.031
5.245,-0.391,0.910,0.031
5.255,-0.391,0.910,0.031
5.265,-0.387,0.906,0.031
5.274,-0.391,0.908,0.037
5.284,-0.389,0.908,0.035
5.294,-0.391,0.910,0.031
5.304,-0.387,0.908,0.033
5.314,-0.391,0.908,0.033
5.324,-0.389,0.912,0.033
5.334,-0.387,0.908,0.033
5.344,-0.383,0.906,0.031
5.354,-0.385,0.906,0.035
5.364,-0.385,0.906,0.033
5.374,-0.385,0.906,0.033
5.384,-0.387,0.908,0.033
5.394,-0.387,0.908,0.033
5.403,-0.383,0.906,0.033
5.413,-0.387,0.904,0.035
5.423,-0.389,0.904,0.033
5.433,-0.389,0.902,0.033
5.443,-0.389,0.906,0.033
5.453,-0.389,0.902,0.033
5.463,-0.387,0.902,0.033
5.473,-0.387,0.906,0.033
5.483,-0.391,0.904,0.033
5.493,-0.393,0.904,0.033
5.503,-0.393,0.902,0.031
5.513,-0.398,0.904,0.031
5.523,-0.396,0.900,0.029
5.532,-0.395,0.902,0.033
5.542,-0.396,0.906,0.033
5.552,-0.396,0.906,0.031
5.562,-0.395,0.908,0.029
5.572,-0.393,0.906,0.031
5.582,-0.393,0.908,0.029
5.592,-0.391,0.906,0.033
5.602,-0.391,0.906,0.029
5.612,-0.393,0.904,0.029
5.622,-0.396,0.906,0.029
5.632,-0.400,0.910,0.027
5.642,-0.398,0.908,0.029
5.652,-0.400,0.910,0.027
5.661,-0.398,0.906,0.029
5.671,-0.398,0.908,0.027
5.681,-0.396,0.908,0.031
5.691,-0.395,0.906,0.033
5.701,-0.393,0.906,0.033
5.711,-0.391,0.904,0.033
5.721,-0.389,0.904,0.035
5.731,-0.385,0.898,0.035
5.741,-0.387,0.900,0.031
5.751,-0.387,0.898,0.037
5.761,-0.389,0.906,0.035
5.771,-0.387,0.910,0.035
5.781,-0.391,0.904,0.039
5.790,-0.391,0.908,0.035
5.800,-0.391,0.906,0.039
5.810,-0.393,0.906,0.041
5.820,-0.391,0.906,0.039
5.830,-0.391,0.908,0.037
5.840,-0.387,0.908,0.037
5.850,-0.393,0.906,0.035
5.860,-0.395,0.908,0.041
5.870,-0.393,0.902,0.033
5.880,-0.398,0.904,0.039
5.890,-0.395,0.902,0.035
5.900,-0.396,0.902,0.035
5.910,-0.396,0.902,0.035
5.919,-0.395,0.902,0.037
5.929,-0.395,0.906,0.037
5.939,-0.395,0.900,0.039
5.949,-0.393,0.904,0.039
5.959,-0.395,0.904,0.037
5.969,-0.396,0.906,0.039
5.979,-0.395,0.906,0.037
5.989,-0.398,0.904,0.041
5.999,-0.396,0.902,0.037
6.009,-0.395,0.902,0.039
6.019,-0.398,0.912,0.041
6.029,-0.396,0.906,0.035
6.039,-0.398,0.900,0.041
6.049,-0.396,0.902,0.037
6.058,-0.396,0.906,0.037
6.068,-0.398,0.904,0.037
6.078,-0.396,0.904,0.039
6.088,-0.398,0.904,0.039
6.098,-0.398,0.904,0.041
6.108,-0.398,0.904,0.037
6.118,-0.396,0.902,0.037
6.128,-0.396,0.906,0.035
6.138,-0.396,0.902,0.037
6.148,-0.396,0.904,0.037
6.158,-0.395,0.902,0.039
6.168,-0.395,0.904,0.037
6.178,-0.391,0.904,0.037
6.187,-0.393,0.906,0.039
6.197,-0.395,0.904,0.039
6.207,-0.396,0.904,0.041
6.217,-0.395,0.904,0.041
6.227,-0.398,0.900,0.043
6.237,-0.396,0.900,0.039
6.247,-0.398,0.898,0.039
6.257,-0.396,0.902,0.039
6.267,-0.398,0.898,0.041
6.277,-0.395,0.902,0.037
6.287,-0.396,0.902,0.039
6.297,-0.398,0.900,0.041
6.307,-0.396,0.902,0.039
6.316,-0.396,0.902,0.039
6.326,-0.398,0.906,0.041
6.336,-0.402,0.900,0.035
6.346,-0.396,0.904,0.039
6.356,-0.398,0.902,0.035
6.366,-0.400,0.902,0.037
6.376,-0.400,0.908,0.039
6.386,-0.400,0.904,0.039
6.396,-0.396,0.904,0.035
6.406,-0.395,0.902,0.035
6.416,-0.395,0.900,0.039
6.426,-0.395,0.898,0.037
6.436,-0.396,0.902,0.035
6.445,-0.398,0.904,0.037
6.455,-0.400,0.902,0.037
6.465,-0.398,0.902,0.035
6.475,-0.398,0.902,0.033
6.485,-0.398,0.904,0.033
6.495,-0.398,0.904,0.033
6.505,-0.400,0.906,0.035
6.515,-0.396,0.904,0.031
6.525,-0.398,0.904,0.033
6.535,-0.395,0.904,0.035
6.545,-0.389,0.902,0.033
6.555,-0.393,0.908,0.033
6.565,-0.391,0.904,0.031
6.574,-0.387,0.912,0.035
6.584,-0.389,0.910,0.033
6.594,-0.387,0.910,0.037
6.604,-0.385,0.910,0.035
6.614,-0.385,0.904,0.039
6.624,-0.387,0.910,0.035
6.634,-0.387,0.912,0.037
6.644,-0.387,0.914,0.035
6.654,-0.385,0.916,0.035
6.664,-0.385,0.912,0.037
6.674,-0.387,0.912,0.039
6.684,-0.383,0.908,0.037
6.694,-0.387,0.908,0.033
6.703,-0.387,0.910,0.037
6.713,-0.389,0.908,0.037
6.723,-0.395,0.908,0.037
6.733,-0.389,0.908,0.037
6.743,-0.391,0.906,0.037
6.753,-0.393,0.904,0.035
6.763,-0.393,0.908,0.037
6.773,-0.393,0.908,0.037
6.783,-0.389,0.908,0.039
6.793,-0.385,0.912,0.041
6.803,-0.381,0.906,0.037
6.813,-0.379,0.910,0.039
6.823,-0.373,0.916,0.045
6.832,-0.367,0.918,0.043
6.842,-0.363,0.914,0.047
6.852,-0.355,0.926,0.047
6.862,-0.348,0.928,0.049
6.872,-0.334,0.926,0.053
6.882,-0.324,0.936,0.049
6.892,-0.320,0.934,0.049
6.902,-0.311,0.934,0.045
6.912,-0.305,0.932,0.043
6.922,-0.312,0.922,0.043
6.932,-0.312,0.924,0.039
6.942,-0.314,0.920,0.039
6.952,-0.318,0.926,0.039
6.961,-0.332,0.922,0.035
6.971,-0.344,0.920,0.035
6.981,-0.355,0.918,0.027
6.991,-0.371,0.912,0.029
7.001,-0.377,0.908,0.023
7.011,-0.383,0.912,0.020
7.021,-0.393,0.912,0.027
7.031,-0.400,0.912,0.021
7.041,-0.414,0.908,0.023
7.051,-0.426,0.908,0.020
7.061,-0.430,0.900,0.018
7.071,-0.436,0.898,0.023
7.081,-0.439,0.900,0.027
7.090,-0.438,0.896,0.021
7.100,-0.439,0.898,0.021
7.110,-0.445,0.900,0.021
7.120,-0.445,0.893,0.021
7.130,-0.443,0.887,0.023
7.140,-0.438,0.885,0.025
7.150,-0.422,0.885,0.029
7.160,-0.410,0.871,0.029
7.170,-0.412,0.867,0.031
7.180,-0.406,0.863,0.039
7.190,-0.398,0.873,0.043
7.200,-0.379,0.883,0.051
7.210,-0.375,0.889,0.057
7.219,-0.385,0.896,0.062
7.229,-0.393,0.910,0.062
7.239,-0.395,0.912,0.064
7.249,-0.400,0.914,0.059
7.259,-0.400,0.912,0.051
7.269,-0.400,0.908,0.047
7.279,-0.404,0.912,0.043
7.289,-0.408,0.912,0.035
7.299,-0.408,0.916,0.035
7.309,-0.410,0.916,0.033
7.319,-0.410,0.918,0.031
7.329,-0.410,0.920,0.031
7.339,-0.406,0.926,0.035
7.348,-0.402,0.934,0.031
7.358,-0.398,0.926,0.037
7.368,-0.391,0.928,0.037
7.378,-0.389,0.926,0.039
7.388,-0.385,0.916,0.039
7.398,-0.381,0.922,0.041
7.408,-0.377,0.922,0.041
7.418,-0.377,0.920,0.047
7.428,-0.377,0.920,0.045
7.438,-0.381,0.914,0.051
7.448,-0.383,0.906,0.051
7.458,-0.383,0.902,0.049
7.468,-0.387,0.900,0.053
7.477,-0.393,0.896,0.057
7.487,-0.393,0.896,0.053
7.497,-0.398,0.895,0.059
7.507,-0.406,0.889,0.055
7.517,-0.400,0.895,0.059
7.527,-0.389,0.895,0.061
7.537,-0.373,0.891,0.070
7.547,-0.352,0.898,0.076
7.557,-0.342,0.906,0.082
7.567,-0.326,0.912,0.080
7.577,-0.316,0.912,0.084
7.587,-0.314,0.918,0.084
7.597,-0.314,0.920,0.082
7.606,-0.312,0.926,0.080
7.616,-0.312,0.930,0.080
7.626,-0.312,0.934,0.078
7.636,-0.314,0.934,0.074
7.646,-0.307,0.936,0.074
7.656,-0.307,0.939,0.070
7.666,-0.314,0.939,0.074
7.676,-0.314,0.936,0.072
7.686,-0.318,0.938,0.074
7.696,-0.328,0.945,0.072
7.706,-0.330,0.943,0.068
7.716,-0.334,0.936,0.066
7.726,-0.326,0.936,0.064
7.735,-0.322,0.934,0.068
7.745,-0.318,0.932,0.068
7.755,-0.322,0.930,0.068
7.765,-0.324,0.930,0.064
7.775,-0.328,0.930,0.070
7.785,-0.332,0.928,0.068
7.795,-0.334,0.926,0.070
7.805,-0.336,0.926,0.068
7.815,-0.342,0.926,0.070
7.825,-0.346,0.924,0.068
7.835,-0.350,0.922,0.070
7.845,-0.352,0.920,0.068
7.855,-0.350,0.922,0.068
7.864,-0.350,0.920,0.072
7.874,-0.348,0.922,0.070
7.884,-0.350,0.926,0.074
7.894,-0.350,0.926,0.074
7.904,-0.354,0.922,0.072
7.914,-0.354,0.918,0.074
7.924,-0.355,0.918,0.076
7.934,-0.352,0.916,0.072
7.944,-0.348,0.918,0.074
7.954,-0.350,0.920,0.072
7.964,-0.350,0.922,0.076
7.974,-0.352,0.918,0.078
7.984,-0.352,0.914,0.082
7.993,-0.354,0.920,0.076
8.003,-0.350,0.918,0.078
8.013,-0.348,0.916,0.078
8.023,-0.344,0.916,0.078
8.033,-0.344,0.922,0.080
8.043,-0.344,0.922,0.080
8.053,-0.340,0.922,0.082
8.063,-0.338,0.924,0.084
8.073,-0.326,0.934,0.088
8.083,-0.318,0.936,0.090
8.093,-0.314,0.930,0.088
8.103,-0.318,0.922,0.082
8.113,-0.324,0.914,0.082
8.122,-0.334,0.918,0.084
8.132,-0.340,0.926,0.080
8.142,-0.352,0.926,0.080
8.152,-0.350,0.928,0.082
8.162,-0.352,0.928,0.076
8.172,-0.350,0.926,0.080
8.182,-0.354,0.924,0.072
8.192,-0.359,0.922,0.074
8.202,-0.363,0.918,0.074
8.212,-0.365,0.910,0.072
8.222,-0.367,0.910,0.072
8.232,-0.361,0.918,0.078
8.242,-0.361,0.910,0.076
8.251,-0.363,0.912,0.078
8.261,-0.365,0.910,0.078
8.271,-0.371,0.918,0.082
8.281,-0.373,0.928,0.080
8.291,-0.373,0.922,0.080
8.301,-0.371,0.920,0.078
8.311,-0.377,0.914,0.080
8.321,-0.381,0.914,0.076
8.331,-0.387,0.910,0.074
8.341,-0.387,0.908,0.074
8.351,-0.387,0.908,0.074
8.361,-0.395,0.904,0.074
8.371,-0.395,0.904,0.074
8.380,-0.398,0.904,0.076
8.390,-0.402,0.898,0.074
8.400,-0.402,0.902,0.074
8.410,-0.412,0.902,0.072
8.420,-0.416,0.902,0.070
8.430,-0.418,0.900,0.070
8.440,-0.418,0.904,0.072
8.450,-0.420,0.910,0.070
8.460,-0.426,0.912,0.064
8.470,-0.428,0.908,0.064
8.480,-0.424,0.910,0.062
8.490,-0.416,0.908,0.066
8.500,-0.406,0.906,0.062
8.509,-0.396,0.914,0.066
8.519,-0.406,0.934,0.070
8.529,-0.387,0.893,0.043
8.539,-0.373,0.898,0.074
8.549,-0.377,0.906,0.064
8.559,-0.369,0.898,0.072
8.569,-0.361,0.895,0.066
8.579,-0.363,0.893,0.064
8.589,-0.379,0.883,0.064
8.599,-0.391,0.885,0.062
8.609,-0.393,0.891,0.064
8.619,-0.381,0.898,0.066
8.629,-0.377,0.904,0.074
8.638,-0.377,0.902,0.074
8.648,-0.389,0.893,0.062
8.658,-0.396,0.887,0.055
8.668,-0.426,0.906,0.070
8.678,-0.439,0.871,0.029
8.688,-0.412,0.893,0.053
8.698,-0.396,0.918,0.064
8.708,-0.389,0.934,0.062
8.718,-0.393,0.951,0.070
8.728,-0.389,0.973,0.072
8.738,-0.381,0.971,0.076
8.748,-0.373,0.988,0.068
8.758,-0.352,0.961,0.064
8.768,-0.318,0.943,0.066
8.777,-0.287,0.943,0.068
8.787,-0.258,0.936,0.066
8.797,-0.240,0.924,0.074
8.807,-0.225,0.922,0.080
8.817,-0.207,0.920,0.086
8.827,-0.205,0.920,0.086
8.837,-0.219,0.924,0.092
8.847,-0.229,0.928,0.094
8.857,-0.244,0.928,0.096
8.867,-0.262,0.922,0.098
8.877,-0.283,0.930,0.088
8.887,-0.307,0.920,0.084
8.897,-0.318,0.918,0.078
8.906,-0.330,0.920,0.072
8.916,-0.342,0.916,0.068
8.926,-0.348,0.918,0.066
8.936,-0.355,0.920,0.057
8.946,-0.367,0.914,0.053
8.956,-0.377,0.912,0.045
8.966,-0.391,0.912,0.043
8.976,-0.396,0.914,0.041
8.986,-0.402,0.920,0.039
8.996,-0.408,0.922,0.039
9.006,-0.406,0.918,0.037
9.016,-0.408,0.912,0.033
9.026,-0.406,0.914,0.035
9.035,-0.406,0.916,0.031
9.045,-0.400,0.908,0.029
9.055,-0.396,0.910,0.023
9.065,-0.393,0.908,0.029
9.075,-0.393,0.908,0.023
9.085,-0.395,0.902,0.020
9.095,-0.395,0.896,0.020
9.105,-0.400,0.900,0.020
9.115,-0.408,0.908,0.016
9.125,-0.412,0.908,0.016
9.135,-0.416,0.908,0.014
9.145,-0.416,0.908,0.018
9.155,-0.420,0.914,0.020
9.164,-0.418,0.918,0.014
9.174,-0.420,0.910,0.014
9.184,-0.422,0.912,0.010
9.194,-0.420,0.902,0.008
9.204,-0.420,0.893,0.010
9.214,-0.418,0.893,0.008
9.224,-0.418,0.893,0.010
9.234,-0.420,0.895,0.010
9.244,-0.418,0.898,0.010
9.254,-0.422,0.896,0.012
9.264,-0.420,0.898,0.012
9.274,-0.426,0.895,0.010
9.284,-0.426,0.896,0.014
9.293,-0.428,0.896,0.016
9.303,-0.428,0.902,0.016
9.313,-0.428,0.900,0.012
9.323,-0.428,0.896,0.016
9.333,-0.426,0.895,0.012
9.343,-0.426,0.891,0.012
9.353,-0.418,0.885,0.016
9.363,-0.416,0.889,0.016
9.373,-0.412,0.887,0.018
9.383,-0.408,0.887,0.016
9.393,-0.410,0.885,0.016
9.403,-0.416,0.889,0.018
9.413,-0.414,0.887,0.018
9.422,-0.418,0.891,0.018
9.432,-0.420,0.895,0.018
9.442,-0.424,0.898,0.020
9.452,-0.428,0.898,0.020
9.462,-0.426,0.900,0.018
9.472,-0.428,0.898,0.020
9.482,-0.422,0.898,0.018
9.492,-0.426,0.895,0.018
9.502,-0.430,0.895,0.016
9.512,-0.434,0.895,0.020
9.522,-0.436,0.898,0.020
9.532,-0.434,0.895,0.018
9.542,-0.430,0.902,0.025
9.551,-0.426,0.898,0.023
9.561,-0.424,0.896,0.023
9.571,-0.420,0.898,0.021
9.581,-0.420,0.891,0.021
9.591,-0.420,0.885,0.021
9.601,-0.420,0.891,0.021
9.611,-0.416,0.885,0.023
9.621,-0.418,0.891,0.025
9.631,-0.424,0.893,0.025
9.641,-0.426,0.893,0.023
9.651,-0.426,0.898,0.023
9.661,-0.428,0.893,0.021
9.671,-0.428,0.895,0.023
9.680,-0.426,0.895,0.025
9.690,-0.426,0.893,0.021
9.700,-0.430,0.891,0.025
9.710,-0.424,0.898,0.025
9.720,-0.424,0.893,0.023
9.730,-0.422,0.898,0.023
9.740,-0.422,0.893,0.027
9.750,-0.424,0.893,0.025
9.760,-0.422,0.891,0.023
9.770,-0.426,0.891,0.023
9.780,-0.428,0.889,0.027
9.790,-0.432,0.889,0.027
9.800,-0.434,0.893,0.029
9.809,-0.436,0.891,0.029
9.819,-0.434,0.893,0.029
9.829,-0.430,0.895,0.029
9.839,-0.432,0.893,0.031
9.849,-0.436,0.895,0.035
9.859,-0.439,0.902,0.031
9.869,-0.438,0.900,0.033
9.879,-0.441,0.896,0.033
9.889,-0.439,0.896,0.029
9.899,-0.436,0.889,0.027
9.909,-0.432,0.883,0.023
9.919,-0.430,0.881,0.023
9.929,-0.432,0.889,0.027
9.938,-0.434,0.900,0.031
9.948,-0.434,0.900,0.029
9.958,-0.438,0.904,0.031
9.968,-0.426,0.902,0.031
9.978,-0.424,0.893,0.035
9.988,-0.418,0.898,0.039
9.998,-0.418,0.891,0.037
10.008,-0.422,0.887,0.037
10.018,-0.424,0.891,0.037
10.028,-0.424,0.885,0.037
10.038,-0.424,0.881,0.037
10.048,-0.422,0.885,0.041
10.058,-0.424,0.887,0.039
10.067,-0.428,0.883,0.043
10.077,-0.436,0.889,0.045
10.087,-0.434,0.891,0.045
10.097,-0.432,0.891,0.047
10.107,-0.434,0.889,0.043
10.117,-0.439,0.883,0.037
10.127,-0.447,0.879,0.037
10.137,-0.459,0.881,0.043
10.147,-0.469,0.877,0.035
10.157,-0.477,0.881,0.039
10.167,-0.477,0.885,0.041
10.177,-0.482,0.881,0.037
10.187,-0.484,0.881,0.039
10.196,-0.498,0.875,0.039
10.206,-0.508,0.875,0.029
10.216,-0.504,0.871,0.029
10.226,-0.494,0.865,0.027
10.236,-0.490,0.869,0.029
10.246,-0.473,0.873,0.035
10.256,-0.451,0.887,0.033
10.266,-0.434,0.883,0.025
10.276,-0.426,0.854,0.035
10.286,-0.406,0.867,0.033
10.296,-0.395,0.879,0.047
10.306,-0.398,0.875,0.051
10.316,-0.385,0.893,0.061
10.325,-0.373,0.893,0.061
10.335,-0.375,0.861,0.057
10.345,-0.344,0.887,0.049
10.355,-0.352,0.873,0.061
10.365,-0.342,0.900,0.066
10.375,-0.334,0.928,0.072
10.385,-0.328,0.934,0.076
10.395,-0.322,0.941,0.074
10.405,-0.328,0.926,0.066
10.415,-0.336,0.906,0.062
10.425,-0.350,0.896,0.051
10.435,-0.357,0.891,0.047
10.445,-0.350,0.906,0.047
10.454,-0.373,0.904,0.047
10.464,-0.373,0.900,0.035
10.474,-0.391,0.859,0.029
10.484,-0.383,0.869,0.021
10.494,-0.393,0.889,0.029
10.504,-0.375,0.926,0.037
10.514,-0.359,0.955,0.047
10.524,-0.363,0.979,0.053
10.534,-0.377,0.939,0.031
10.544,-0.375,0.881,0.035
10.554,-0.361,0.891,0.039
10.564,-0.385,0.893,0.057
10.574,-0.367,0.930,0.055
10.583,-0.344,0.957,0.057
10.593,-0.328,0.967,0.057
10.603,-0.324,0.955,0.053
10.613,-0.336,0.934,0.051
10.623,-0.348,0.902,0.045
10.633,-0.324,0.932,0.049
10.643,-0.342,0.924,0.049
10.653,-0.336,0.941,0.049
10.663,-0.332,0.949,0.045
10.673,-0.330,0.928,0.043
10.683,-0.336,0.910,0.043
10.693,-0.357,0.887,0.041
10.703,-0.348,0.904,0.035
10.712,-0.365,0.895,0.035
10.722,-0.359,0.916,0.041
10.732,-0.357,0.938,0.037
10.742,-0.375,0.941,0.031
10.752,-0.379,0.908,0.020
10.762,-0.396,0.873,0.016
10.772,-0.393,0.936,0.016
10.782,-0.410,0.904,0.016
10.792,-0.398,0.938,0.018
10.802,-0.389,0.955,0.014
10.812,-0.373,0.941,0.012
10.822,-0.402,0.898,0.021
10.832,-0.377,0.934,0.023
10.841,-0.359,0.920,0.018
10.851,-0.344,0.943,0.018
10.861,-0.344,0.939,0.008
10.871,-0.330,0.943,0.014
10.881,-0.330,0.934,0.012
10.891,-0.328,0.922,0.004
10.901,-0.324,0.914,0.008
10.911,-0.328,0.926,0.016
10.921,-0.324,0.943,0.010
10.931,-0.318,0.941,0.014
10.941,-0.322,0.945,0.010
10.951,-0.322,0.928,0.002
10.961,-0.318,0.898,0.002
10.970,-0.314,0.885,0.006
10.980,-0.307,0.910,0.014
10.990,-0.311,0.930,0.020
11.000,-0.307,0.957,0.025
11.010,-0.320,0.965,0.016
11.020,-0.312,0.959,0.014
11.030,-0.316,0.939,0.006
11.040,-0.309,0.916,-0.002
11.050,-0.303,0.910,-0.004
11.060,-0.305,0.930,-0.004
11.070,-0.303,0.945,-0.002
11.080,-0.303,0.959,-0.002
11.090,-0.303,0.961,-0.002
11.099,-0.293,0.955,-0.010
11.109,-0.295,0.939,-0.008
11.119,-0.297,0.916,-0.006
11.129,-0.301,0.920,-0.002
11.139,-0.295,0.930,0.004
11.149,-0.295,0.938,0.008
11.159,-0.289,0.947,0.010
11.169,-0.289,0.949,0.006
11.179,-0.295,0.938,0.008
11.189,-0.289,0.936,0.008
11.199,-0.289,0.938,0.010
11.209,-0.283,0.943,0.008
11.219,-0.279,0.947,0.012
11.228,-0.271,0.953,0.014
11.238,-0.271,0.961,0.008
11.248,-0.271,0.961,0.006
11.258,-0.281,0.949,0.010
11.268,-0.275,0.949,0.000
11.278,-0.277,0.936,0.002
11.288,-0.279,0.941,0.006
11.298,-0.281,0.953,0.010
11.308,-0.281,0.963,0.010
11.318,-0.277,0.977,0.014
11.328,-0.275,0.980,0.014
11.338,-0.266,0.965,0.012
11.348,-0.266,0.953,0.010
11.358,-0.268,0.939,0.014
11.367,-0.262,0.951,0.016
11.377,-0.264,0.951,0.018
11.387,-0.266,0.955,0.012
11.397,-0.252,0.963,0.018
11.407,-0.244,0.961,0.014
11.417,-0.234,0.957,0.021
11.427,-0.236,0.947,0.020
11.437,-0.229,0.953,0.023
11.447,-0.217,0.979,0.037
11.457,-0.225,1.016,0.039
11.467,-0.238,1.037,0.033
11.477,-0.250,1.027,0.021
11.487,-0.264,0.988,-0.010
11.496,-0.281,0.904,-0.020
11.506,-0.299,0.895,-0.018
11.516,-0.332,0.883,-0.006
11.526,-0.354,0.873,-0.002
11.536,-0.359,0.873,0.008
11.546,-0.357,0.875,0.016
11.556,-0.348,0.906,0.031
11.566,-0.354,0.934,0.033
11.576,-0.375,0.922,0.029
11.586,-0.395,0.893,0.012
11.596,-0.408,0.865,0.010
11.606,-0.428,0.877,0.014
11.616,-0.451,0.883,0.018
11.625,-0.465,0.904,0.029
11.635,-0.480,0.902,0.037
11.645,-0.490,0.902,0.033
11.655,-0.479,0.898,0.027
11.665,-0.461,0.883,0.027
11.675,-0.441,0.871,0.020
11.685,-0.422,0.861,0.020
11.695,-0.402,0.854,0.018
11.705,-0.379,0.854,0.023
11.715,-0.367,0.855,0.027
11.725,-0.355,0.863,0.037
11.735,-0.350,0.891,0.045
11.745,-0.355,0.889,0.047
11.754,-0.355,0.902,0.051
11.764,-0.359,0.914,0.051
11.774,-0.361,0.910,0.051
11.784,-0.357,0.938,0.039
11.794,-0.359,0.924,0.035
11.804,-0.361,0.926,0.035
11.814,-0.357,0.918,0.029
11.824,-0.355,0.904,0.031
11.834,-0.361,0.904,0.031
11.844,-0.365,0.912,0.033
11.854,-0.371,0.918,0.033
11.864,-0.385,0.914,0.031
11.874,-0.391,0.920,0.029
11.883,-0.404,0.914,0.023
11.893,-0.418,0.910,0.023
11.903,-0.426,0.898,0.018
11.913,-0.436,0.896,0.020
11.923,-0.451,0.889,0.010
11.933,-0.453,0.877,0.008
11.943,-0.457,0.875,0.016
11.953,-0.463,0.865,0.018
11.963,-0.463,0.865,0.020
11.973,-0.461,0.873,0.023
11.983,-0.457,0.881,0.027
11.993,-0.455,0.883,0.031
12.003,-0.447,0.889,0.033
12.012,-0.439,0.895,0.039
12.022,-0.439,0.900,0.037
12.032,-0.439,0.902,0.039
12.042,-0.436,0.908,0.043
12.052,-0.430,0.904,0.039
12.062,-0.424,0.900,0.041
12.072,-0.420,0.896,0.043
12.082,-0.416,0.904,0.039
12.092,-0.414,0.912,0.043
12.102,-0.412,0.910,0.041
12.112,-0.408,0.914,0.043
12.122,-0.410,0.910,0.043
12.132,-0.406,0.906,0.043
12.141,-0.402,0.902,0.043
12.151,-0.404,0.906,0.039
12.161,-0.400,0.908,0.043
12.171,-0.402,0.900,0.039
12.181,-0.396,0.906,0.037
12.191,-0.396,0.895,0.045
12.201,-0.402,0.891,0.045
12.211,-0.404,0.885,0.047
12.221,-0.400,0.895,0.045
12.231,-0.379,0.902,0.049
12.241,-0.369,0.893,0.051
12.251,-0.363,0.889,0.053
12.261,-0.371,0.896,0.057
12.270,-0.381,0.898,0.059
12.280,-0.393,0.898,0.059
12.290,-0.396,0.912,0.062
12.300,-0.408,0.910,0.061
12.310,-0.406,0.912,0.062
12.320,-0.412,0.910,0.061
12.330,-0.418,0.904,0.061
12.340,-0.418,0.906,0.059
12.350,-0.420,0.904,0.062
12.360,-0.424,0.900,0.059
12.370,-0.424,0.904,0.061
12.380,-0.428,0.902,0.061
12.390,-0.430,0.906,0.059
12.399,-0.430,0.902,0.055
12.409,-0.428,0.895,0.055
12.419,-0.426,0.896,0.055
12.429,-0.420,0.891,0.051
12.439,-0.416,0.889,0.055
12.449,-0.412,0.895,0.051
12.459,-0.402,0.891,0.051
12.469,-0.396,0.896,0.051
12.479,-0.389,0.910,0.055
12.489,-0.385,0.910,0.061
12.499,-0.387,0.916,0.062
12.509,-0.398,0.914,0.061
12.519,-0.398,0.896,0.062
12.528,-0.404,0.896,0.062
12.538,-0.410,0.896,0.059
12.548,-0.396,0.895,0.059
12.558,-0.396,0.891,0.059
12.568,-0.395,0.902,0.055
12.578,-0.393,0.898,0.059
12.588,-0.396,0.891,0.062
12.598,-0.404,0.893,0.062
12.608,-0.406,0.896,0.061
12.618,-0.410,0.891,0.062
12.628,-0.402,0.895,0.064
12.638,-0.406,0.914,0.064
12.648,-0.402,0.900,0.066
12.657,-0.391,0.908,0.061
12.667,-0.393,0.910,0.062
12.677,-0.393,0.910,0.066
12.687,-0.391,0.908,0.066
12.697,-0.391,0.904,0.062
12.707,-0.381,0.902,0.059
12.717,-0.367,0.904,0.057
12.727,-0.371,0.896,0.062
12.737,-0.379,0.896,0.061
12.747,-0.385,0.904,0.062
12.757,-0.395,0.908,0.061
12.767,-0.396,0.908,0.059
12.777,-0.400,0.912,0.062
12.786,-0.402,0.914,0.057
12.796,-0.402,0.914,0.053
12.806,-0.408,0.904,0.053
12.816,-0.404,0.906,0.051
12.826,-0.408,0.896,0.047
12.836,-0.410,0.895,0.049
12.846,-0.410,0.896,0.049
12.856,-0.412,0.895,0.047
12.866,-0.406,0.908,0.051
12.876,-0.404,0.920,0.055
12.886,-0.410,0.912,0.053
12.896,-0.406,0.904,0.051
12.906,-0.410,0.898,0.051
12.915,-0.414,0.891,0.047
12.925,-0.416,0.887,0.045
12.935,-0.416,0.885,0.047
12.945,-0.410,0.895,0.047
12.955,-0.406,0.895,0.045
12.965,-0.402,0.893,0.047
12.975,-0.396,0.898,0.049
12.985,-0.398,0.896,0.047
12.995,-0.404,0.900,0.051
13.005,-0.406,0.902,0.049
13.015,-0.412,0.898,0.045
13.025,-0.410,0.902,0.047
13.035,-0.412,0.906,0.045
13.044,-0.414,0.904,0.047
13.054,-0.414,0.908,0.045
13.064,-0.414,0.908,0.047
13.074,-0.414,0.908,0.047
13.084,-0.416,0.906,0.045
13.094,-0.416,0.902,0.041
13.104,-0.416,0.898,0.039
13.114,-0.416,0.900,0.041
13.124,-0.412,0.904,0.041
13.134,-0.414,0.900,0.043
13.144,-0.418,0.902,0.043
13.154,-0.412,0.902,0.041
13.164,-0.412,0.902,0.045
13.173,-0.412,0.900,0.047
13.183,-0.408,0.902,0.043
13.193,-0.408,0.896,0.051
13.203,-0.408,0.900,0.045
13.213,-0.410,0.891,0.049
13.223,-0.410,0.895,0.049
13.233,-0.414,0.898,0.047
13.243,-0.412,0.893,0.049
13.253,-0.414,0.898,0.049
13.263,-0.412,0.900,0.049
13.273,-0.412,0.900,0.049
13.283,-0.410,0.902,0.051
13.293,-0.414,0.902,0.053
13.302,-0.412,0.902,0.049
13.312,-0.410,0.898,0.049
13.322,-0.408,0.902,0.053
13.332,-0.412,0.900,0.053
13.342,-0.412,0.900,0.053
13.352,-0.412,0.900,0.053
13.362,-0.412,0.900,0.057
13.372,-0.414,0.900,0.053
13.382,-0.414,0.895,0.055
13.392,-0.416,0.898,0.057
13.402,-0.418,0.898,0.057
13.412,-0.418,0.898,0.059
13.422,-0.414,0.895,0.057
13.431,-0.410,0.896,0.059
13.441,-0.408,0.895,0.057
13.451,-0.412,0.891,0.059
13.461,-0.408,0.896,0.059
13.471,-0.406,0.898,0.064
13.481,-0.406,0.895,0.062
13.491,-0.406,0.898,0.064
13.501,-0.406,0.900,0.062
13.511,-0.402,0.898,0.068
13.521,-0.406,0.898,0.064
13.531,-0.406,0.900,0.066
13.541,-0.404,0.900,0.068
13.551,-0.400,0.898,0.068
13.560,-0.402,0.900,0.064
13.570,-0.400,0.896,0.068
13.580,-0.398,0.895,0.068
13.590,-0.404,0.895,0.066
13.600,-0.406,0.895,0.066
13.610,-0.408,0.896,0.061
13.620,-0.408,0.895,0.064
13.630,-0.410,0.895,0.064
13.640,-0.410,0.900,0.062
13.650,-0.412,0.900,0.061
13.660,-0.410,0.900,0.064
13.670,-0.412,0.898,0.061
13.680,-0.412,0.900,0.057
13.689,-0.408,0.900,0.061
13.699,-0.408,0.900,0.057
13.709,-0.410,0.896,0.057
13.719,-0.410,0.902,0.059
13.729,-0.412,0.902,0.059
13.739,-0.414,0.904,0.057
13.749,-0.408,0.904,0.055
13.759,-0.412,0.904,0.059
13.769,-0.410,0.900,0.055
13.779,-0.410,0.902,0.059
13.789,-0.410,0.902,0.053
13.799,-0.408,0.904,0.055
13.809,-0.408,0.900,0.051
13.818,-0.408,0.900,0.057
13.828,-0.406,0.902,0.057
13.838,-0.408,0.898,0.057
13.848,-0.406,0.896,0.055
13.858,-0.412,0.898,0.053
13.868,-0.410,0.898,0.053
13.878,-0.412,0.902,0.053
13.888,-0.416,0.902,0.053
13.898,-0.410,0.898,0.047
13.908,-0.416,0.895,0.051
13.918,-0.410,0.898,0.053
13.928,-0.412,0.900,0.051
13.938,-0.414,0.902,0.051
13.947,-0.418,0.898,0.051
13.957,-0.414,0.900,0.053
13.967,-0.412,0.895,0.051
13.977,-0.414,0.896,0.053
13.987,-0.414,0.898,0.049
13.997,-0.414,0.902,0.049
14.007,-0.420,0.898,0.047
14.017,-0.418,0.900,0.051
14.027,-0.414,0.900,0.047
14.037,-0.418,0.900,0.047
14.047,-0.418,0.902,0.049
14.057,-0.416,0.900,0.047
14.067,-0.418,0.900,0.053
14.077,-0.420,0.902,0.047
14.086,-0.420,0.898,0.049
14.096,-0.416,0.896,0.047
14.106,-0.422,0.896,0.043
14.116,-0.422,0.896,0.047
14.126,-0.420,0.895,0.047
14.136,-0.418,0.896,0.051
14.146,-0.420,0.900,0.051
14.156,-0.416,0.896,0.049
14.166,-0.420,0.895,0.051
14.176,-0.414,0.895,0.051
14.186,-0.418,0.896,0.049
14.196,-0.418,0.898,0.049
14.206,-0.420,0.898,0.049
14.215,-0.416,0.898,0.055
14.225,-0.418,0.898,0.051
14.235,-0.418,0.896,0.051
14.245,-0.420,0.898,0.053
14.255,-0.418,0.896,0.053
14.265,-0.420,0.896,0.051
14.275,-0.422,0.900,0.049
14.285,-0.420,0.896,0.055
14.295,-0.418,0.895,0.051
14.305,-0.418,0.895,0.049
14.315,-0.420,0.898,0.053
14.325,-0.420,0.895,0.051
14.335,-0.418,0.895,0.053
14.344,-0.418,0.895,0.051
14.354,-0.416,0.893,0.049
14.364,-0.420,0.893,0.049
14.374,-0.420,0.893,0.051
14.384,-0.420,0.895,0.051
14.394,-0.420,0.893,0.051
14.404,-0.420,0.893,0.051
14.414,-0.422,0.895,0.047
14.424,-0.422,0.898,0.049
14.434,-0.422,0.898,0.049
14.444,-0.418,0.896,0.053
14.454,-0.420,0.895,0.049
14.464,-0.420,0.896,0.053
14.473,-0.420,0.896,0.049
14.483,-0.420,0.896,0.049
14.493,-0.420,0.900,0.051
14.503,-0.420,0.898,0.047
14.513,-0.422,0.896,0.051
14.523,-0.420,0.898,0.049
14.533,-0.422,0.896,0.051
14.543,-0.422,0.902,0.053
14.553,-0.422,0.896,0.051
14.563,-0.424,0.898,0.053
14.573,-0.424,0.896,0.053
14.583,-0.424,0.898,0.053
14.593,-0.420,0.895,0.053
14.602,-0.420,0.893,0.057
14.612,-0.418,0.896,0.053
14.622,-0.418,0.885,0.053
14.632,-0.418,0.891,0.053
14.642,-0.416,0.889,0.053
14.652,-0.416,0.895,0.053
14.662,-0.420,0.895,0.053
14.672,-0.422,0.896,0.053
14.682,-0.422,0.898,0.055
14.692,-0.426,0.896,0.053
14.702,-0.424,0.898,0.057
14.712,-0.426,0.896,0.055
14.722,-0.424,0.896,0.057
14.731,-0.420,0.896,0.051
14.741,-0.422,0.895,0.051
14.751,-0.422,0.895,0.055
14.761,-0.420,0.893,0.059
14.771,-0.418,0.893,0.053
14.781,-0.418,0.893,0.053
14.791,-0.418,0.891,0.051
14.801,-0.420,0.889,0.057
14.811,-0.420,0.893,0.055
14.821,-0.418,0.895,0.055
14.831,-0.420,0.896,0.053
14.841,-0.418,0.896,0.051
14.851,-0.416,0.896,0.053
14.860,-0.416,0.895,0.053
14.870,-0.418,0.896,0.053
14.880,-0.418,0.896,0.053
14.890,-0.420,0.895,0.051
14.900,-0.418,0.895,0.051
14.910,-0.420,0.902,0.053
14.920,-0.416,0.902,0.051
14.930,-0.418,0.895,0.053
14.940,-0.414,0.893,0.049
14.950,-0.414,0.895,0.051
14.960,-0.420,0.896,0.053
14.970,-0.418,0.898,0.049
14.980,-0.420,0.900,0.053
14.989,-0.416,0.900,0.053
14.999,-0.418,0.898,0.049
15.009,-0.414,0.896,0.053
15.019,-0.416,0.898,0.053
15.029,-0.420,0.898,0.051
15.039,-0.418,0.896,0.051
15.049,-0.420,0.896,0.049
15.059,-0.418,0.895,0.051
15.069,-0.420,0.896,0.051
15.079,-0.422,0.898,0.053
15.089,-0.416,0.896,0.051
15.099,-0.414,0.893,0.053
15.109,-0.418,0.895,0.051
15.118,-0.418,0.896,0.049
15.128,-0.418,0.895,0.049
15.138,-0.420,0.893,0.051
15.148,-0.420,0.895,0.051
15.158,-0.422,0.893,0.049
15.168,-0.422,0.898,0.051
15.178,-0.424,0.896,0.049
15.188,-0.418,0.896,0.051
15.198,-0.420,0.898,0.053
15.208,-0.422,0.898,0.051
15.218,-0.420,0.895,0.053
15.228,-0.422,0.895,0.047
15.238,-0.420,0.896,0.049
15.247,-0.422,0.895,0.051
15.257,-0.424,0.900,0.051
15.267,-0.422,0.900,0.053
15.277,-0.422,0.898,0.049
15.287,-0.420,0.898,0.053
15.297,-0.416,0.898,0.055
15.307,-0.418,0.898,0.053
15.317,-0.416,0.896,0.051
15.327,-0.418,0.898,0.051
15.337,-0.418,0.895,0.051
15.347,-0.420,0.896,0.049
15.357,-0.422,0.895,0.053
15.367,-0.418,0.895,0.051
15.376,-0.422,0.889,0.053
15.386,-0.420,0.889,0.053
15.396,-0.422,0.900,0.055
15.406,-0.428,0.900,0.051
15.416,-0.426,0.896,0.051
15.426,-0.428,0.893,0.047
15.436,-0.434,0.893,0.047
15.446,-0.438,0.893,0.049
15.456,-0.439,0.891,0.047
15.466,-0.439,0.889,0.047
15.476,-0.438,0.891,0.049
15.486,-0.434,0.893,0.053
15.496,-0.432,0.893,0.051
15.505,-0.430,0.893,0.051
15.515,-0.426,0.893,0.051
15.525,-0.426,0.887,0.049
15.535,-0.426,0.893,0.053
15.545,-0.426,0.893,0.051
15.555,-0.426,0.895,0.053
15.565,-0.430,0.895,0.053
15.575,-0.426,0.896,0.051
15.585,-0.434,0.895,0.049
15.595,-0.436,0.893,0.049
15.605,-0.445,0.889,0.045
15.615,-0.453,0.889,0.043
15.625,-0.459,0.885,0.043
15.634,-0.465,0.881,0.039
15.644,-0.471,0.875,0.041
15.654,-0.465,0.887,0.041
15.664,-0.453,0.895,0.045
15.674,-0.445,0.891,0.043
15.684,-0.439,0.891,0.047
15.694,-0.436,0.887,0.045
15.704,-0.432,0.887,0.043
15.714,-0.436,0.879,0.041
15.724,-0.428,0.881,0.047
15.734,-0.418,0.889,0.051
15.744,-0.406,0.898,0.057
15.754,-0.393,0.904,0.057
15.763,-0.377,0.914,0.062
15.773,-0.363,0.918,0.066
15.783,-0.361,0.918,0.066
15.793,-0.359,0.930,0.070
15.803,-0.355,0.932,0.070
15.813,-0.361,0.920,0.070
15.823,-0.363,0.916,0.062
15.833,-0.365,0.906,0.061
15.843,-0.365,0.898,0.062
15.853,-0.361,0.904,0.066
15.863,-0.359,0.910,0.066
15.873,-0.354,0.910,0.070
15.883,-0.350,0.910,0.072
15.892,-0.348,0.918,0.076
15.902,-0.342,0.920,0.076
15.912,-0.342,0.916,0.074
15.922,-0.340,0.920,0.078
15.932,-0.338,0.924,0.080
15.942,-0.332,0.932,0.080
15.952,-0.336,0.930,0.076
15.962,-0.336,0.932,0.078
15.972,-0.338,0.924,0.074
15.982,-0.342,0.924,0.074
15.992,-0.350,0.920,0.064
16.002,-0.355,0.914,0.062
16.012,-0.355,0.916,0.064
16.021,-0.365,0.916,0.066
16.031,-0.367,0.920,0.064
16.041,-0.377,0.922,0.061
16.051,-0.381,0.920,0.057
16.061,-0.389,0.920,0.057
16.071,-0.393,0.916,0.053
16.081,-0.396,0.916,0.055
16.091,-0.396,0.914,0.051
16.101,-0.396,0.920,0.053
16.111,-0.398,0.916,0.055
16.121,-0.389,0.918,0.053
16.131,-0.385,0.918,0.053
16.141,-0.381,0.910,0.053
16.150,-0.381,0.916,0.055
16.160,-0.383,0.920,0.051
16.170,-0.389,0.914,0.047
16.180,-0.395,0.908,0.051
16.190,-0.398,0.910,0.051
16.200,-0.404,0.906,0.047
16.210,-0.404,0.900,0.053
16.220,-0.402,0.906,0.051
16.230,-0.404,0.906,0.053
16.240,-0.402,0.904,0.055
16.250,-0.404,0.900,0.053
16.260,-0.402,0.895,0.053
16.270,-0.404,0.891,0.053
16.279,-0.406,0.895,0.061
16.289,-0.404,0.895,0.057
16.299,-0.406,0.896,0.061
16.309,-0.404,0.898,0.061
16.319,-0.406,0.898,0.059
16.329,-0.406,0.896,0.057
16.339,-0.408,0.895,0.057
16.349,-0.410,0.895,0.055
16.359,-0.412,0.895,0.055
16.369,-0.414,0.896,0.059
16.379,-0.410,0.900,0.059
16.389,-0.412,0.904,0.057
16.399,-0.414,0.902,0.059
16.408,-0.412,0.904,0.059
16.418,-0.412,0.895,0.059
16.428,-0.408,0.895,0.059
16.438,-0.408,0.898,0.061
16.448,-0.404,0.900,0.061
16.458,-0.402,0.900,0.057
16.468,-0.402,0.906,0.061
16.478,-0.402,0.908,0.066
16.488,-0.398,0.902,0.061
16.498,-0.400,0.908,0.061
16.508,-0.398,0.906,0.064
16.518,-0.396,0.904,0.064
16.528,-0.391,0.902,0.064
16.537,-0.393,0.910,0.064
16.547,-0.387,0.910,0.064
16.557,-0.391,0.904,0.066
16.567,-0.387,0.904,0.064
16.577,-0.389,0.902,0.062
16.587,-0.389,0.904,0.061
16.597,-0.391,0.904,0.061
16.607,-0.391,0.902,0.061
16.617,-0.395,0.898,0.059
16.627,-0.396,0.898,0.057
16.637,-0.395,0.896,0.059
16.647,-0.396,0.896,0.057
16.657,-0.400,0.900,0.055
16.667,-0.406,0.900,0.051
16.676,-0.412,0.896,0.051
16.686,-0.416,0.895,0.053
16.696,-0.420,0.895,0.049
16.706,-0.422,0.898,0.051
16.716,-0.430,0.900,0.047
16.726,-0.432,0.898,0.049
16.736,-0.434,0.898,0.051
16.746,-0.434,0.895,0.045
16.756,-0.438,0.891,0.045
16.766,-0.441,0.895,0.047
16.776,-0.441,0.891,0.045
16.786,-0.445,0.891,0.043
16.796,-0.449,0.891,0.049
16.805,-0.449,0.887,0.047
16.815,-0.451,0.891,0.043
16.825,-0.453,0.889,0.049
16.835,-0.449,0.893,0.051
16.845,-0.457,0.896,0.049
16.855,-0.459,0.891,0.051
16.865,-0.469,0.902,0.051
16.875,-0.475,0.902,0.055
16.885,-0.471,0.900,0.057
16.895,-0.469,0.902,0.059
16.905,-0.461,0.895,0.057
16.915,-0.451,0.891,0.061
16.925,-0.438,0.881,0.059
16.934,-0.430,0.877,0.064
16.944,-0.424,0.877,0.062
16.954,-0.420,0.879,0.064
16.964,-0.416,0.881,0.062
16.974,-0.410,0.879,0.064
16.984,-0.412,0.881,0.068
16.994,-0.410,0.879,0.070
17.004,-0.408,0.881,0.068
17.014,-0.402,0.887,0.070
17.024,-0.406,0.893,0.068
17.034,-0.402,0.889,0.066
17.044,-0.398,0.893,0.068
17.054,-0.404,0.891,0.066
17.063,-0.404,0.891,0.066
17.073,-0.408,0.893,0.062
17.083,-0.410,0.895,0.062
17.093,-0.412,0.896,0.061
17.103,-0.410,0.898,0.062
17.113,-0.408,0.904,0.064
17.123,-0.408,0.904,0.061
17.133,-0.410,0.906,0.062
17.143,-0.410,0.900,0.064
17.153,-0.408,0.900,0.064
17.163,-0.408,0.902,0.064
17.173,-0.408,0.900,0.062
17.183,-0.410,0.900,0.061
17.192,-0.412,0.896,0.062
17.202,-0.408,0.895,0.062
17.212,-0.408,0.896,0.064
17.222,-0.408,0.904,0.062
17.232,-0.408,0.900,0.059
17.242,-0.406,0.902,0.062
17.252,-0.408,0.906,0.059
17.262,-0.412,0.902,0.057
17.272,-0.414,0.902,0.055
17.282,-0.416,0.900,0.055
17.292,-0.418,0.902,0.057
17.302,-0.416,0.900,0.057
17.312,-0.420,0.904,0.059
17.321,-0.420,0.904,0.057
17.331,-0.416,0.904,0.059
17.341,-0.424,0.900,0.062
17.351,-0.418,0.896,0.059
17.361,-0.418,0.898,0.061
17.371,-0.414,0.896,0.057
17.381,-0.416,0.896,0.057
17.391,-0.418,0.895,0.057
17.401,-0.418,0.893,0.051
17.411,-0.426,0.883,0.051
17.421,-0.428,0.879,0.051
17.431,-0.434,0.877,0.053
17.441,-0.439,0.873,0.049
17.450,-0.441,0.879,0.051
17.460,-0.443,0.885,0.057
17.470,-0.438,0.893,0.057
17.480,-0.438,0.898,0.059
17.490,-0.436,0.904,0.062
17.500,-0.432,0.904,0.061
17.510,-0.430,0.904,0.059
17.520,-0.426,0.902,0.059
17.530,-0.424,0.898,0.057
17.540,-0.424,0.895,0.055
17.550,-0.426,0.891,0.051
17.560,-0.424,0.893,0.053
17.570,-0.426,0.893,0.051
17.579,-0.426,0.895,0.055
17.589,-0.426,0.896,0.057
17.599,-0.426,0.900,0.057
17.609,-0.428,0.900,0.059
17.619,-0.426,0.898,0.057
17.629,-0.426,0.896,0.059
17.639,-0.428,0.895,0.059
17.649,-0.428,0.889,0.057
17.659,-0.430,0.891,0.059
17.669,-0.434,0.889,0.057
17.679,-0.434,0.883,0.057
17.689,-0.434,0.891,0.059
17.699,-0.434,0.887,0.057
17.708,-0.432,0.881,0.057
17.718,-0.432,0.881,0.057
17.728,-0.432,0.885,0.057
17.738,-0.432,0.891,0.059
17.748,-0.432,0.895,0.059
17.758,-0.432,0.891,0.057
17.768,-0.432,0.891,0.055
17.778,-0.432,0.893,0.059
17.788,-0.428,0.895,0.057
17.798,-0.430,0.895,0.057
17.808,-0.432,0.895,0.057
17.818,-0.434,0.891,0.057
17.828,-0.430,0.887,0.053
17.837,-0.432,0.885,0.057
17.847,-0.430,0.883,0.055
17.857,-0.430,0.883,0.055
17.867,-0.434,0.887,0.057
17.877,-0.432,0.887,0.057
17.887,-0.430,0.891,0.057
17.897,-0.426,0.891,0.061
17.907,-0.428,0.891,0.059
17.917,-0.428,0.893,0.061
17.927,-0.430,0.889,0.059
17.937,-0.432,0.891,0.059
17.947,-0.432,0.891,0.059
17.957,-0.434,0.896,0.061
17.966,-0.432,0.900,0.059
17.976,-0.426,0.898,0.057
17.986,-0.424,0.896,0.062
17.996,-0.420,0.906,0.061
18.006,-0.408,0.908,0.064
18.016,-0.410,0.908,0.061
18.026,-0.412,0.908,0.061
18.036,-0.412,0.900,0.061
18.046,-0.416,0.900,0.062
18.056,-0.412,0.908,0.064
18.066,-0.408,0.918,0.070
18.076,-0.395,0.932,0.074
18.086,-0.395,0.938,0.076
18.095,-0.398,0.945,0.078
18.105,-0.396,0.945,0.078
18.115,-0.404,0.943,0.072
18.125,-0.404,0.941,0.074
18.135,-0.404,0.922,0.066
18.145,-0.396,0.912,0.070
18.155,-0.387,0.914,0.068
18.165,-0.383,0.900,0.072
18.175,-0.375,0.893,0.076
18.185,-0.377,0.875,0.070
18.195,-0.387,0.865,0.074
18.205,-0.398,0.861,0.072
18.215,-0.408,0.861,0.078
18.224,-0.400,0.869,0.082
18.234,-0.408,0.865,0.088
18.244,-0.420,0.865,0.086
18.254,-0.428,0.869,0.086
18.264,-0.436,0.865,0.086
18.274,-0.432,0.867,0.082
18.284,-0.438,0.865,0.080
18.294,-0.445,0.869,0.080
18.304,-0.443,0.873,0.080
18.314,-0.455,0.865,0.074
18.324,-0.471,0.861,0.070
18.334,-0.482,0.869,0.068
18.344,-0.496,0.871,0.070
18.353,-0.506,0.877,0.068
18.363,-0.506,0.879,0.066
18.373,-0.514,0.877,0.066
18.383,-0.510,0.881,0.066
18.393,-0.512,0.873,0.068
18.403,-0.518,0.869,0.068
18.413,-0.516,0.873,0.070
18.423,-0.512,0.869,0.064
18.433,-0.504,0.861,0.070
18.443,-0.496,0.863,0.072
18.453,-0.494,0.863,0.078
18.463,-0.484,0.869,0.078
18.473,-0.475,0.865,0.080
18.482,-0.469,0.869,0.082
18.492,-0.467,0.873,0.084
18.502,-0.459,0.869,0.082
18.512,-0.457,0.865,0.084
18.522,-0.457,0.875,0.088
18.532,-0.451,0.879,0.086
18.542,-0.445,0.885,0.092
18.552,-0.432,0.893,0.094
18.562,-0.426,0.893,0.092
18.572,-0.416,0.893,0.094
18.582,-0.410,0.887,0.094
18.592,-0.408,0.891,0.092
18.602,-0.410,0.889,0.094
18.611,-0.414,0.885,0.092
18.621,-0.422,0.883,0.090
18.631,-0.432,0.883,0.084
18.641,-0.441,0.883,0.088
18.651,-0.439,0.891,0.090
18.661,-0.426,0.895,0.086
18.671,-0.430,0.891,0.086
18.681,-0.428,0.893,0.090
18.691,-0.426,0.893,0.090
18.701,-0.434,0.893,0.082
18.711,-0.443,0.891,0.082
18.721,-0.445,0.885,0.076
18.731,-0.453,0.885,0.076
18.740,-0.463,0.885,0.076
18.750,-0.465,0.891,0.076
18.760,-0.463,0.898,0.074
18.770,-0.451,0.895,0.078
18.780,-0.441,0.895,0.076
18.790,-0.436,0.895,0.074
18.800,-0.430,0.889,0.072
18.810,-0.432,0.887,0.072
18.820,-0.439,0.885,0.070
18.830,-0.441,0.881,0.074
18.840,-0.439,0.881,0.070
18.850,-0.439,0.887,0.072
18.860,-0.441,0.893,0.070
18.869,-0.438,0.898,0.076
18.879,-0.430,0.896,0.072
18.889,-0.426,0.891,0.072
18.899,-0.418,0.893,0.074
18.909,-0.428,0.885,0.068
18.919,-0.426,0.889,0.070
18.929,-0.430,0.891,0.070
18.939,-0.428,0.893,0.074
18.949,-0.428,0.895,0.074
18.959,-0.428,0.895,0.072
18.969,-0.430,0.896,0.072
18.979,-0.426,0.896,0.072
18.989,-0.426,0.896,0.070
18.998,-0.428,0.893,0.070
19.008,-0.426,0.887,0.070
19.018,-0.432,0.885,0.072
19.028,-0.434,0.885,0.068
19.038,-0.436,0.885,0.068
19.048,-0.436,0.891,0.072
19.058,-0.426,0.893,0.070
19.068,-0.426,0.889,0.070
19.078,-0.426,0.889,0.072
19.088,-0.430,0.895,0.072
19.098,-0.432,0.893,0.072
19.108,-0.438,0.895,0.074
19.118,-0.438,0.895,0.074
19.127,-0.441,0.893,0.068
19.137,-0.445,0.889,0.068
19.147,-0.445,0.887,0.068
19.157,-0.445,0.895,0.070
19.167,-0.434,0.896,0.074
19.177,-0.434,0.895,0.072
19.187,-0.428,0.895,0.076
19.197,-0.424,0.891,0.076
19.207,-0.424,0.893,0.078
19.217,-0.428,0.889,0.074
19.227,-0.432,0.887,0.074
19.237,-0.428,0.889,0.078
19.247,-0.432,0.885,0.076
19.256,-0.434,0.893,0.080
19.266,-0.439,0.895,0.076
19.276,-0.436,0.895,0.074
19.286,-0.439,0.889,0.076
19.296,-0.438,0.887,0.074
19.306,-0.439,0.887,0.074
19.316,-0.443,0.885,0.072
19.326,-0.439,0.889,0.076
19.336,-0.438,0.889,0.078
19.346,-0.436,0.885,0.076
19.356,-0.438,0.883,0.076
19.366,-0.432,0.885,0.076
19.376,-0.434,0.889,0.076
19.386,-0.434,0.889,0.078
19.395,-0.434,0.887,0.074
19.405,-0.432,0.891,0.078
19.415,-0.436,0.895,0.078
19.425,-0.434,0.891,0.078
19.435,-0.436,0.893,0.080
19.445,-0.434,0.893,0.076
19.455,-0.434,0.895,0.074
19.465,-0.430,0.893,0.076
19.475,-0.432,0.891,0.076
19.485,-0.434,0.895,0.078
19.495,-0.436,0.893,0.076
19.505,-0.434,0.891,0.078
19.515,-0.434,0.898,0.078
19.524,-0.438,0.896,0.078
19.534,-0.438,0.891,0.078
19.544,-0.434,0.885,0.078
19.554,-0.432,0.887,0.076
19.564,-0.436,0.885,0.076
19.574,-0.438,0.889,0.078
19.584,-0.438,0.889,0.078
19.594,-0.438,0.887,0.078
19.604,-0.438,0.887,0.076
19.614,-0.438,0.887,0.076
19.624,-0.436,0.891,0.078
19.634,-0.436,0.887,0.076
19.644,-0.434,0.889,0.074
19.653,-0.432,0.883,0.070
19.663,-0.430,0.889,0.076
19.673,-0.432,0.889,0.078
19.683,-0.436,0.891,0.076
19.693,-0.436,0.891,0.076
19.703,-0.430,0.893,0.076
19.713,-0.426,0.893,0.076
19.723,-0.424,0.891,0.076
19.733,-0.422,0.895,0.080
19.743,-0.424,0.893,0.078
19.753,-0.426,0.896,0.076
19.763,-0.430,0.891,0.078
19.773,-0.430,0.895,0.076
19.782,-0.430,0.891,0.076
19.792,-0.430,0.891,0.074
19.802,-0.436,0.895,0.074
19.812,-0.438,0.893,0.078
19.822,-0.438,0.896,0.076
19.832,-0.434,0.898,0.080
19.842,-0.430,0.896,0.076
19.852,-0.428,0.898,0.078
19.862,-0.426,0.898,0.076
19.872,-0.426,0.896,0.076
19.882,-0.426,0.896,0.078
19.892,-0.424,0.898,0.076
19.902,-0.422,0.896,0.074
19.911,-0.418,0.898,0.074
19.921,-0.414,0.906,0.078
19.931,-0.412,0.910,0.078
19.941,-0.396,0.920,0.080
19.951,-0.395,0.912,0.078
19.961,-0.400,0.908,0.078
19.971,-0.408,0.908,0.074
19.981,-0.414,0.904,0.078
19.991,-0.420,0.900,0.076
20.001,-0.426,0.898,0.076
20.011,-0.430,0.900,0.082
20.021,-0.434,0.904,0.080
20.031,-0.438,0.902,0.090
20.040,-0.438,0.906,0.090
20.050,-0.430,0.906,0.098
20.060,-0.418,0.898,0.096
20.070,-0.418,0.896,0.098
20.080,-0.418,0.895,0.100
20.090,-0.418,0.891,0.104
20.100,-0.420,0.885,0.105
20.110,-0.418,0.889,0.107
20.120,-0.416,0.889,0.115
20.130,-0.410,0.893,0.119
20.140,-0.406,0.889,0.119
20.150,-0.410,0.885,0.119
20.160,-0.412,0.875,0.121
20.169,-0.416,0.873,0.121
20.179,-0.426,0.867,0.131
20.189,-0.424,0.877,0.137
20.199,-0.418,0.883,0.143
20.209,-0.420,0.877,0.139
20.219,-0.428,0.875,0.143
20.229,-0.428,0.877,0.143
20.239,-0.434,0.875,0.143
20.249,-0.436,0.877,0.141
20.259,-0.443,0.877,0.139
20.269,-0.445,0.871,0.143
20.279,-0.445,0.873,0.133
20.289,-0.443,0.869,0.135
20.298,-0.449,0.875,0.135
20.308,-0.451,0.879,0.135
20.318,-0.451,0.885,0.139
20.328,-0.453,0.887,0.135
20.338,-0.445,0.889,0.133
20.348,-0.443,0.885,0.131
20.358,-0.439,0.893,0.131
20.368,-0.436,0.889,0.129
20.378,-0.432,0.887,0.127
20.388,-0.432,0.893,0.129
20.398,-0.432,0.887,0.127
20.408,-0.426,0.889,0.129
20.418,-0.424,0.893,0.131
20.427,-0.420,0.893,0.133
20.437,-0.418,0.896,0.129
20.447,-0.418,0.896,0.131
20.457,-0.420,0.889,0.129
20.467,-0.412,0.889,0.131
20.477,-0.410,0.889,0.131
20.487,-0.412,0.893,0.129
20.497,-0.410,0.889,0.135
20.507,-0.412,0.893,0.131
20.517,-0.416,0.889,0.131
20.527,-0.418,0.889,0.129
20.537,-0.422,0.889,0.125
20.547,-0.426,0.887,0.127
20.556,-0.428,0.893,0.125
20.566,-0.428,0.891,0.123
20.576,-0.424,0.889,0.121
20.586,-0.426,0.893,0.127
20.596,-0.426,0.887,0.119
20.606,-0.422,0.889,0.121
20.616,-0.420,0.893,0.119
20.626,-0.420,0.889,0.121
20.636,-0.422,0.891,0.117
20.646,-0.424,0.887,0.119
20.656,-0.430,0.893,0.119
20.666,-0.434,0.889,0.115
20.676,-0.439,0.891,0.117
20.685,-0.447,0.887,0.113
20.695,-0.449,0.885,0.113
20.705,-0.459,0.881,0.115
20.715,-0.461,0.879,0.107
20.725,-0.463,0.877,0.107
20.735,-0.465,0.877,0.105
20.745,-0.463,0.881,0.105
20.755,-0.461,0.881,0.105
20.765,-0.461,0.885,0.105
20.775,-0.455,0.887,0.104
20.785,-0.451,0.883,0.104
20.795,-0.451,0.887,0.105
20.805,-0.449,0.889,0.104
20.814,-0.455,0.887,0.100
20.824,-0.453,0.885,0.102
20.834,-0.447,0.891,0.102
20.844,-0.441,0.893,0.102
20.854,-0.441,0.891,0.104
20.864,-0.441,0.893,0.105
20.874,-0.439,0.889,0.104
20.884,-0.439,0.887,0.105
20.894,-0.441,0.891,0.107
20.904,-0.439,0.887,0.105
20.914,-0.441,0.887,0.111
20.924,-0.441,0.889,0.105
20.934,-0.443,0.881,0.107
20.943,-0.441,0.881,0.109
20.953,-0.443,0.879,0.104
20.963,-0.443,0.877,0.111
20.973,-0.441,0.881,0.109
20.983,-0.443,0.879,0.105
20.993,-0.441,0.881,0.109
21.003,-0.438,0.885,0.107
21.013,-0.438,0.887,0.111
21.023,-0.434,0.885,0.113
21.033,-0.436,0.891,0.113
21.043,-0.438,0.889,0.111
21.053,-0.434,0.889,0.109
21.063,-0.436,0.883,0.111
21.072,-0.439,0.885,0.109
21.082,-0.443,0.885,0.107
21.092,-0.439,0.885,0.107
21.102,-0.441,0.881,0.107
21.112,-0.443,0.891,0.107
21.122,-0.441,0.891,0.107
21.132,-0.439,0.887,0.107
21.142,-0.441,0.889,0.105
21.152,-0.439,0.891,0.107
21.162,-0.443,0.889,0.105
21.172,-0.441,0.887,0.105
21.182,-0.447,0.885,0.104
21.192,-0.445,0.883,0.105
21.201,-0.443,0.887,0.104
21.211,-0.441,0.887,0.107
21.221,-0.439,0.889,0.107
21.231,-0.439,0.887,0.109
21.241,-0.438,0.889,0.107
21.251,-0.436,0.885,0.111
21.261,-0.436,0.885,0.107
21.271,-0.434,0.887,0.104
21.281,-0.432,0.891,0.109
21.291,-0.434,0.887,0.105
21.301,-0.432,0.891,0.105
21.311,-0.436,0.883,0.102
21.321,-0.436,0.883,0.105
21.330,-0.436,0.885,0.104
21.340,-0.438,0.887,0.102
21.350,-0.439,0.891,0.105
21.360,-0.441,0.889,0.102
21.370,-0.439,0.891,0.104
21.380,-0.434,0.889,0.102
21.390,-0.434,0.889,0.100
21.400,-0.434,0.887,0.100
21.410,-0.432,0.889,0.102
21.420,-0.432,0.889,0.102
21.430,-0.430,0.895,0.102
21.440,-0.434,0.893,0.102
21.450,-0.436,0.891,0.100
21.459,-0.436,0.891,0.096
21.469,-0.438,0.891,0.100
21.479,-0.434,0.889,0.096
21.489,-0.438,0.893,0.100
21.499,-0.439,0.895,0.098
21.509,-0.441,0.893,0.094
21.519,-0.439,0.891,0.096
21.529,-0.438,0.889,0.092
21.539,-0.439,0.887,0.094
21.549,-0.441,0.887,0.100
21.559,-0.441,0.887,0.100
21.569,-0.443,0.889,0.100
21.579,-0.441,0.889,0.100
21.588,-0.447,0.881,0.096
21.598,-0.447,0.885,0.096
21.608,-0.457,0.879,0.098
21.618,-0.453,0.887,0.098
21.628,-0.461,0.879,0.098
21.638,-0.463,0.881,0.100
21.648,-0.463,0.883,0.098
21.658,-0.469,0.885,0.096
21.668,-0.473,0.883,0.098
21.678,-0.475,0.875,0.094
21.688,-0.482,0.871,0.092
21.698,-0.484,0.871,0.092
21.708,-0.490,0.867,0.092
21.717,-0.492,0.869,0.096
21.727,-0.484,0.873,0.096
21.737,-0.480,0.877,0.096
21.747,-0.469,0.877,0.100
21.757,-0.465,0.875,0.098
21.767,-0.463,0.877,0.100
21.777,-0.465,0.875,0.098
21.787,-0.471,0.877,0.096
21.797,-0.477,0.877,0.092
21.807,-0.479,0.881,0.094
21.817,-0.477,0.879,0.094
21.827,-0.475,0.879,0.094
21.837,-0.467,0.883,0.098
21.846,-0.455,0.887,0.098
21.856,-0.443,0.889,0.098
21.866,-0.436,0.891,0.098
21.876,-0.428,0.889,0.104
21.886,-0.416,0.885,0.102
21.896,-0.404,0.879,0.105
21.906,-0.393,0.893,0.109
21.916,-0.379,0.895,0.111
21.926,-0.377,0.889,0.117
21.936,-0.367,0.889,0.119
21.946,-0.367,0.891,0.119
21.956,-0.373,0.895,0.117
21.966,-0.383,0.895,0.115
21.975,-0.387,0.896,0.119
21.985,-0.387,0.902,0.117
21.995,-0.391,0.906,0.119
22.005,-0.398,0.906,0.115
22.015,-0.400,0.906,0.115
22.025,-0.402,0.904,0.109
22.035,-0.406,0.904,0.107
22.045,-0.412,0.904,0.104
22.055,-0.416,0.900,0.102
22.065,-0.420,0.904,0.100
22.075,-0.426,0.906,0.096
22.085,-0.430,0.900,0.094
22.095,-0.434,0.900,0.096
22.105,-0.434,0.900,0.092
22.114,-0.436,0.893,0.090
22.124,-0.438,0.891,0.090
22.134,-0.439,0.891,0.088
22.144,-0.447,0.891,0.084
22.154,-0.447,0.889,0.084
22.164,-0.447,0.885,0.080
22.174,-0.453,0.887,0.082
22.184,-0.447,0.887,0.080
22.194,-0.451,0.885,0.080
22.204,-0.453,0.885,0.080
22.214,-0.449,0.885,0.080
22.224,-0.449,0.885,0.080
22.234,-0.449,0.887,0.084
22.243,-0.449,0.891,0.082
22.253,-0.445,0.887,0.082
22.263,-0.447,0.889,0.082
22.273,-0.443,0.887,0.084
22.283,-0.447,0.883,0.076
22.293,-0.445,0.883,0.078
22.303,-0.449,0.879,0.080
22.313,-0.451,0.883,0.082
22.323,-0.447,0.883,0.082
22.333,-0.449,0.883,0.086
22.343,-0.455,0.887,0.078
22.353,-0.449,0.887,0.082
22.363,-0.451,0.891,0.082
22.372,-0.451,0.887,0.080
22.382,-0.451,0.887,0.082
22.392,-0.447,0.883,0.084
22.402,-0.447,0.887,0.084
22.412,-0.445,0.883,0.084
22.422,-0.445,0.887,0.088
22.432,-0.439,0.891,0.084
22.442,-0.434,0.889,0.084
22.452,-0.434,0.893,0.088
22.462,-0.438,0.893,0.086
22.472,-0.434,0.889,0.086
22.482,-0.439,0.891,0.086
22.492,-0.436,0.891,0.086
22.501,-0.434,0.887,0.084
22.511,-0.430,0.893,0.092
22.521,-0.422,0.896,0.092
22.531,-0.410,0.900,0.096
22.541,-0.389,0.906,0.100
22.551,-0.375,0.908,0.100
22.561,-0.375,0.904,0.096
22.571,-0.383,0.896,0.088
22.581,-0.393,0.891,0.084
22.591,-0.395,0.887,0.082
22.601,-0.404,0.887,0.076
22.611,-0.420,0.883,0.074
22.621,-0.430,0.883,0.076
22.630,-0.443,0.885,0.072
22.640,-0.463,0.883,0.072
22.650,-0.475,0.883,0.068
22.660,-0.479,0.887,0.072
22.670,-0.484,0.889,0.070
22.680,-0.496,0.889,0.070
22.690,-0.508,0.881,0.068
22.700,-0.510,0.865,0.064
22.710,-0.504,0.863,0.070
22.720,-0.500,0.863,0.072
22.730,-0.498,0.855,0.070
22.740,-0.500,0.852,0.072
22.750,-0.508,0.854,0.070
22.759,-0.514,0.848,0.070
22.769,-0.516,0.850,0.068
22.779,-0.520,0.846,0.068
22.789,-0.525,0.848,0.070
22.799,-0.525,0.850,0.072
22.809,-0.529,0.848,0.074
22.819,-0.531,0.855,0.078
22.829,-0.525,0.861,0.078
22.839,-0.520,0.859,0.080
22.849,-0.514,0.863,0.078
22.859,-0.516,0.861,0.078
22.869,-0.516,0.855,0.078
22.879,-0.510,0.850,0.076
22.888,-0.508,0.854,0.078
22.898,-0.506,0.854,0.076
22.908,-0.504,0.855,0.080
22.918,-0.500,0.859,0.080
22.928,-0.502,0.859,0.082
22.938,-0.496,0.861,0.082
22.948,-0.494,0.861,0.084
22.958,-0.496,0.865,0.088
22.968,-0.490,0.871,0.086
22.978,-0.482,0.867,0.088
22.988,-0.480,0.867,0.084
22.998,-0.479,0.865,0.088
23.008,-0.482,0.865,0.092
23.017,-0.482,0.867,0.092
23.027,-0.484,0.865,0.090
23.037,-0.490,0.863,0.094
23.047,-0.490,0.867,0.092
23.057,-0.486,0.863,0.096
23.067,-0.488,0.861,0.094
23.077,-0.490,0.863,0.094
23.087,-0.484,0.863,0.094
23.097,-0.484,0.861,0.096
23.107,-0.482,0.859,0.092
23.117,-0.488,0.857,0.094
23.127,-0.490,0.859,0.094
23.137,-0.496,0.854,0.090
23.146,-0.498,0.857,0.092
23.156,-0.500,0.857,0.090
23.166,-0.500,0.861,0.088
23.176,-0.498,0.857,0.090
23.186,-0.502,0.859,0.092
23.196,-0.504,0.863,0.084
23.206,-0.502,0.859,0.090
23.216,-0.502,0.863,0.092
23.226,-0.510,0.861,0.088
23.236,-0.506,0.861,0.090
23.246,-0.502,0.863,0.092
23.256,-0.500,0.865,0.090
23.266,-0.496,0.861,0.090
23.275,-0.492,0.863,0.088
23.285,-0.492,0.863,0.090
23.295,-0.490,0.861,0.088
23.305,-0.486,0.863,0.094
23.315,-0.488,0.863,0.096
23.325,-0.492,0.865,0.094
23.335,-0.494,0.865,0.092
23.345,-0.496,0.861,0.092
23.355,-0.492,0.857,0.094
23.365,-0.496,0.855,0.094
23.375,-0.498,0.855,0.096
23.385,-0.500,0.852,0.092
23.395,-0.498,0.855,0.092
23.404,-0.506,0.854,0.092
23.414,-0.500,0.852,0.092
23.424,-0.504,0.857,0.090
23.434,-0.502,0.859,0.090
23.444,-0.504,0.861,0.090
23.454,-0.504,0.859,0.092
23.464,-0.508,0.861,0.086
23.474,-0.508,0.861,0.088
23.484,-0.506,0.857,0.092
23.494,-0.504,0.859,0.090
23.504,-0.504,0.857,0.088
23.514,-0.502,0.859,0.086
23.524,-0.498,0.859,0.090
23.533,-0.500,0.859,0.096
23.543,-0.498,0.865,0.092
23.553,-0.496,0.861,0.094
23.563,-0.496,0.861,0.092
23.573,-0.494,0.861,0.096
23.583,-0.496,0.859,0.092
23.593,-0.500,0.859,0.096
23.603,-0.498,0.861,0.094
23.613,-0.500,0.861,0.094
23.623,-0.498,0.857,0.096
23.633,-0.502,0.859,0.090
23.643,-0.508,0.859,0.090
23.653,-0.504,0.857,0.092
23.662,-0.504,0.857,0.088
23.672,-0.500,0.859,0.092
23.682,-0.506,0.852,0.092
23.692,-0.512,0.859,0.094
23.702,-0.504,0.857,0.090
23.712,-0.506,0.855,0.092
23.722,-0.508,0.857,0.090
23.732,-0.508,0.861,0.092
23.742,-0.508,0.855,0.090
23.752,-0.504,0.855,0.094
23.762,-0.504,0.859,0.090
23.772,-0.506,0.859,0.092
23.782,-0.506,0.857,0.090
23.791,-0.502,0.857,0.094
23.801,-0.506,0.861,0.092
23.811,-0.504,0.863,0.094
23.821,-0.498,0.861,0.094
23.831,-0.500,0.861,0.094
23.841,-0.500,0.861,0.092
23.851,-0.496,0.861,0.094
23.861,-0.496,0.861,0.092
23.871,-0.496,0.861,0.094
23.881,-0.498,0.859,0.096
23.891,-0.498,0.859,0.092
23.901,-0.498,0.863,0.094
23.911,-0.500,0.859,0.094
23.920,-0.500,0.859,0.094
23.930,-0.496,0.857,0.094
23.940,-0.500,0.857,0.092
23.950,-0.500,0.855,0.092
23.960,-0.504,0.857,0.094
23.970,-0.500,0.855,0.092
23.980,-0.502,0.859,0.092
23.990,-0.500,0.857,0.096
24.000,-0.504,0.857,0.090
24.010,-0.504,0.855,0.092
24.020,-0.508,0.857,0.092
24.030,-0.508,0.857,0.094
24.040,-0.512,0.857,0.090
24.049,-0.510,0.855,0.092
24.059,-0.510,0.852,0.092
24.069,-0.510,0.857,0.090
24.079,-0.510,0.854,0.090
24.089,-0.504,0.852,0.088
24.099,-0.504,0.857,0.090
24.109,-0.506,0.859,0.088
24.119,-0.508,0.857,0.090
24.129,-0.508,0.859,0.094
24.139,-0.508,0.859,0.088
24.149,-0.512,0.857,0.094
24.159,-0.506,0.857,0.092
24.169,-0.506,0.857,0.092
24.178,-0.506,0.861,0.092
24.188,-0.504,0.859,0.092
24.198,-0.506,0.855,0.094
24.208,-0.504,0.855,0.090
24.218,-0.506,0.854,0.090
24.228,-0.506,0.854,0.092
24.238,-0.504,0.854,0.092
24.248,-0.506,0.852,0.090
24.258,-0.504,0.852,0.092
24.268,-0.510,0.855,0.092
24.278,-0.506,0.854,0.094
24.288,-0.510,0.855,0.092
24.298,-0.508,0.855,0.094
24.307,-0.512,0.855,0.092
24.317,-0.510,0.855,0.094
24.327,-0.508,0.854,0.094
24.337,-0.508,0.852,0.092
24.347,-0.508,0.855,0.092
24.357,-0.510,0.852,0.094
24.367,-0.504,0.854,0.096
24.377,-0.510,0.859,0.094
24.387,-0.506,0.855,0.090
24.397,-0.502,0.857,0.094
24.407,-0.504,0.854,0.090
24.417,-0.502,0.855,0.096
24.427,-0.506,0.855,0.092
24.436,-0.506,0.857,0.096
24.446,-0.508,0.861,0.096
24.456,-0.508,0.857,0.094
24.466,-0.508,0.857,0.094
24.476,-0.508,0.859,0.094
24.486,-0.508,0.857,0.090
24.496,-0.506,0.859,0.092
24.506,-0.506,0.857,0.094
24.516,-0.504,0.859,0.096
24.526,-0.506,0.859,0.092
24.536,-0.502,0.857,0.094
24.546,-0.502,0.861,0.094
24.556,-0.500,0.859,0.096
24.565,-0.504,0.859,0.094
24.575,-0.504,0.863,0.090
24.585,-0.506,0.859,0.090
24.595,-0.506,0.855,0.092
24.605,-0.504,0.857,0.096
24.615,-0.506,0.855,0.088
24.625,-0.500,0.857,0.092
24.635,-0.506,0.859,0.090
24.645,-0.502,0.859,0.092
24.655,-0.500,0.859,0.094
24.665,-0.500,0.859,0.096
24.675,-0.496,0.855,0.100
24.685,-0.498,0.859,0.092
24.695,-0.498,0.859,0.092
24.704,-0.494,0.859,0.092
24.714,-0.494,0.859,0.096
24.724,-0.494,0.857,0.096
24.734,-0.496,0.859,0.090
24.744,-0.500,0.857,0.094
24.754,-0.502,0.855,0.094
24.764,-0.500,0.857,0.092
24.774,-0.502,0.857,0.094
24.784,-0.508,0.859,0.094
24.794,-0.504,0.863,0.096
24.804,-0.506,0.857,0.092
24.814,-0.510,0.855,0.096
24.824,-0.510,0.855,0.092
24.833,-0.508,0.854,0.096
24.843,-0.510,0.854,0.092
24.853,-0.508,0.854,0.094
24.863,-0.508,0.846,0.094
24.873,-0.510,0.854,0.096
24.883,-0.506,0.855,0.096
24.893,-0.506,0.854,0.092
24.903,-0.504,0.852,0.088
24.913,-0.506,0.857,0.092
24.923,-0.506,0.861,0.094
24.933,-0.514,0.859,0.090
24.943,-0.510,0.855,0.094
24.953,-0.510,0.855,0.092
24.962,-0.510,0.855,0.094
24.972,-0.508,0.857,0.094
24.982,-0.510,0.855,0.094
24.992,-0.510,0.859,0.094
25.002,-0.512,0.861,0.090
25.012,-0.506,0.857,0.092
25.022,-0.500,0.852,0.090
25.032,-0.500,0.855,0.092
25.042,-0.498,0.855,0.090
25.052,-0.496,0.857,0.090
25.062,-0.496,0.859,0.090
25.072,-0.500,0.863,0.092
25.082,-0.500,0.861,0.092
25.091,-0.500,0.863,0.092
25.101,-0.498,0.861,0.092
25.111,-0.498,0.861,0.094
25.121,-0.502,0.861,0.094
25.131,-0.498,0.863,0.090
25.141,-0.498,0.859,0.090
25.151,-0.500,0.859,0.092
25.161,-0.500,0.859,0.094
25.171,-0.502,0.863,0.096
25.181,-0.502,0.865,0.094
25.191,-0.500,0.861,0.092
25.201,-0.498,0.857,0.094
25.211,-0.496,0.854,0.092
25.220,-0.496,0.855,0.090
25.230,-0.498,0.859,0.092
25.240,-0.500,0.859,0.094
25.250,-0.500,0.863,0.094
25.260,-0.498,0.863,0.094
25.270,-0.502,0.861,0.098
25.280,-0.502,0.859,0.094
25.290,-0.496,0.857,0.094
25.300,-0.500,0.855,0.092
25.310,-0.496,0.854,0.094
25.320,-0.500,0.855,0.092
25.330,-0.500,0.859,0.094
25.340,-0.500,0.859,0.094
25.349,-0.500,0.859,0.092
25.359,-0.498,0.857,0.092
25.369,-0.496,0.859,0.090
25.379,-0.500,0.863,0.092
25.389,-0.498,0.857,0.092
25.399,-0.502,0.859,0.088
25.409,-0.500,0.859,0.090
25.419,-0.500,0.859,0.088
25.429,-0.502,0.861,0.088
25.439,-0.502,0.861,0.088
25.449,-0.502,0.861,0.090
25.459,-0.504,0.861,0.092
25.469,-0.504,0.861,0.090
25.478,-0.504,0.861,0.092
25.488,-0.502,0.861,0.090
25.498,-0.500,0.861,0.090
25.508,-0.502,0.861,0.088
25.518,-0.502,0.859,0.086
25.528,-0.500,0.857,0.088
25.538,-0.500,0.857,0.088
25.548,-0.504,0.859,0.088
25.558,-0.502,0.859,0.086
25.568,-0.500,0.859,0.088
25.578,-0.502,0.857,0.090
25.588,-0.502,0.855,0.090
25.598,-0.506,0.859,0.092
25.607,-0.506,0.861,0.090
25.617,-0.504,0.861,0.094
25.627,-0.502,0.859,0.092
25.637,-0.506,0.861,0.096
25.647,-0.502,0.857,0.094
25.657,-0.498,0.861,0.098
25.667,-0.496,0.863,0.100
25.677,-0.496,0.861,0.098
25.687,-0.496,0.857,0.098
25.697,-0.496,0.863,0.096
25.707,-0.496,0.861,0.096
25.717,-0.494,0.861,0.096
25.727,-0.498,0.865,0.096
25.736,-0.494,0.861,0.100
25.746,-0.494,0.867,0.100
25.756,-0.494,0.863,0.098
25.766,-0.494,0.859,0.094
25.776,-0.496,0.857,0.100
25.786,-0.496,0.861,0.098
25.796,-0.498,0.861,0.098
25.806,-0.500,0.861,0.100
25.816,-0.500,0.861,0.100
25.826,-0.500,0.857,0.100
25.836,-0.500,0.855,0.100
25.846,-0.498,0.854,0.098
25.856,-0.500,0.854,0.100
25.865,-0.496,0.854,0.094
25.875,-0.502,0.854,0.098
25.885,-0.502,0.855,0.098
25.895,-0.502,0.855,0.094
25.905,-0.506,0.859,0.096
25.915,-0.504,0.857,0.096
25.925,-0.504,0.861,0.092
25.935,-0.504,0.855,0.094
25.945,-0.506,0.861,0.094
25.955,-0.506,0.865,0.094
25.965,-0.504,0.859,0.096
25.975,-0.506,0.859,0.098
25.985,-0.504,0.863,0.092
25.994,-0.502,0.859,0.098
26.004,-0.502,0.867,0.096
26.014,-0.502,0.867,0.096
26.024,-0.502,0.861,0.098
26.034,-0.498,0.859,0.094
26.044,-0.496,0.857,0.098
26.054,-0.500,0.857,0.096
26.064,-0.502,0.855,0.092
26.074,-0.502,0.861,0.094
26.084,-0.506,0.859,0.096
26.094,-0.506,0.859,0.096
26.104,-0.504,0.863,0.096
26.114,-0.502,0.857,0.094
26.123,-0.504,0.855,0.094
26.133,-0.508,0.857,0.094
26.143,-0.500,0.852,0.094
26.153,-0.500,0.855,0.096
26.163,-0.502,0.855,0.096
26.173,-0.502,0.859,0.094
26.183,-0.500,0.859,0.096
26.193,-0.500,0.859,0.096
26.203,-0.500,0.859,0.094
26.213,-0.498,0.857,0.098
26.223,-0.496,0.855,0.098
26.233,-0.502,0.855,0.094
26.243,-0.500,0.854,0.094
26.252,-0.504,0.857,0.092
26.262,-0.508,0.855,0.096
26.272,-0.512,0.854,0.098
26.282,-0.516,0.855,0.092
26.292,-0.521,0.855,0.090
26.302,-0.529,0.848,0.088
26.312,-0.539,0.852,0.088
26.322,-0.547,0.846,0.086
26.332,-0.551,0.846,0.082
26.342,-0.561,0.848,0.082
26.352,-0.562,0.844,0.082
26.362,-0.562,0.842,0.080
26.372,-0.561,0.848,0.084
26.381,-0.561,0.848,0.084
26.391,-0.564,0.844,0.084
26.401,-0.562,0.844,0.082
26.411,-0.557,0.846,0.084
26.421,-0.551,0.842,0.084
26.431,-0.545,0.842,0.092
26.441,-0.535,0.844,0.090
26.451,-0.531,0.846,0.092
26.461,-0.520,0.850,0.096
26.471,-0.512,0.852,0.098
26.481,-0.504,0.855,0.100
26.491,-0.500,0.857,0.096
26.501,-0.490,0.855,0.104
26.510,-0.484,0.861,0.104
26.520,-0.475,0.863,0.107
26.530,-0.473,0.859,0.109
26.540,-0.465,0.865,0.117
26.550,-0.461,0.869,0.119
26.560,-0.459,0.867,0.121
26.570,-0.451,0.873,0.121
26.580,-0.449,0.875,0.127
26.590,-0.451,0.879,0.129
26.600,-0.449,0.877,0.129
26.610,-0.445,0.877,0.127
26.620,-0.443,0.875,0.131
26.630,-0.445,0.873,0.131
26.639,-0.445,0.875,0.131
26.649,-0.445,0.873,0.129
26.659,-0.447,0.875,0.133
26.669,-0.443,0.875,0.137
26.679,-0.447,0.873,0.137
26.689,-0.445,0.875,0.141
26.699,-0.445,0.877,0.139
26.709,-0.445,0.873,0.139
26.719,-0.447,0.871,0.139
26.729,-0.449,0.873,0.139
26.739,-0.447,0.873,0.139
26.749,-0.449,0.873,0.135
26.759,-0.451,0.873,0.135
26.768,-0.453,0.875,0.133
26.778,-0.455,0.873,0.139
26.788,-0.461,0.873,0.133
26.798,-0.467,0.871,0.135
26.808,-0.467,0.875,0.131
26.818,-0.469,0.871,0.131
26.828,-0.471,0.873,0.127
26.838,-0.473,0.869,0.129
26.848,-0.473,0.867,0.127
26.858,-0.473,0.869,0.129
26.868,-0.479,0.871,0.125
26.878,-0.479,0.867,0.129
26.888,-0.479,0.865,0.125
26.897,-0.479,0.867,0.123
26.907,-0.479,0.867,0.121
26.917,-0.482,0.869,0.123
26.927,-0.480,0.865,0.121
26.937,-0.482,0.869,0.123
26.947,-0.484,0.867,0.125
26.957,-0.482,0.869,0.119
26.967,-0.482,0.869,0.121
26.977,-0.486,0.869,0.117
26.987,-0.486,0.867,0.117
26.997,-0.484,0.863,0.119
27.007,-0.484,0.863,0.119
27.017,-0.482,0.863,0.117
27.026,-0.480,0.863,0.117
27.036,-0.480,0.865,0.115
27.046,-0.479,0.869,0.115
27.056,-0.480,0.867,0.115
27.066,-0.480,0.867,0.111
27.076,-0.482,0.867,0.111
27.086,-0.482,0.867,0.111
27.096,-0.490,0.869,0.113
27.106,-0.488,0.865,0.111
27.116,-0.475,0.869,0.109
27.126,-0.480,0.867,0.109
27.136,-0.486,0.869,0.109
27.146,-0.484,0.869,0.109
27.155,-0.484,0.869,0.109
27.165,-0.484,0.869,0.109
27.175,-0.482,0.871,0.105
27.185,-0.486,0.869,0.107
27.195,-0.482,0.871,0.104
27.205,-0.482,0.873,0.104
27.215,-0.482,0.871,0.104
27.225,-0.480,0.875,0.104
27.235,-0.479,0.871,0.102
27.245,-0.480,0.875,0.105
27.255,-0.479,0.871,0.105
27.265,-0.477,0.869,0.104
27.275,-0.480,0.869,0.102
27.284,-0.480,0.871,0.100
27.294,-0.482,0.869,0.102
27.304,-0.480,0.871,0.102
27.314,-0.480,0.871,0.100
27.324,-0.482,0.873,0.104
27.334,-0.482,0.871,0.102
27.344,-0.482,0.867,0.102
27.354,-0.484,0.867,0.104
27.364,-0.484,0.873,0.102
27.374,-0.484,0.873,0.102
27.384,-0.486,0.871,0.102
27.394,-0.486,0.869,0.102
27.404,-0.482,0.869,0.102
27.414,-0.484,0.867,0.104
27.423,-0.484,0.861,0.105
27.433,-0.482,0.865,0.104
27.443,-0.482,0.865,0.104
27.453,-0.486,0.869,0.105
27.463,-0.486,0.869,0.104
27.473,-0.486,0.871,0.102
27.483,-0.490,0.867,0.104
27.493,-0.490,0.867,0.105
27.503,-0.490,0.865,0.102
27.513,-0.490,0.867,0.104
27.523,-0.488,0.865,0.104
27.533,-0.490,0.861,0.104
27.543,-0.490,0.861,0.104
27.552,-0.490,0.861,0.104
27.562,-0.492,0.861,0.104
27.572,-0.490,0.859,0.104
27.582,-0.490,0.861,0.102
27.592,-0.490,0.861,0.104
27.602,-0.492,0.863,0.104
27.612,-0.490,0.865,0.102
27.622,-0.490,0.865,0.105
27.632,-0.488,0.865,0.104
27.642,-0.488,0.863,0.104
27.652,-0.488,0.865,0.104
27.662,-0.490,0.865,0.100
27.672,-0.494,0.867,0.100
27.681,-0.490,0.865,0.104
27.691,-0.494,0.867,0.102
27.701,-0.490,0.863,0.102
27.711,-0.488,0.867,0.104
27.721,-0.490,0.873,0.104
27.731,-0.486,0.867,0.102
27.741,-0.486,0.867,0.100
27.751,-0.486,0.867,0.102
27.761,-0.486,0.867,0.102
27.771,-0.484,0.873,0.102
27.781,-0.480,0.873,0.104
27.791,-0.484,0.871,0.102
27.801,-0.475,0.875,0.105
27.810,-0.477,0.871,0.104
27.820,-0.471,0.875,0.104
27.830,-0.469,0.875,0.104
27.840,-0.467,0.875,0.105
27.850,-0.463,0.877,0.105
27.860,-0.459,0.875,0.102
27.870,-0.459,0.873,0.104
27.880,-0.455,0.879,0.105
27.890,-0.457,0.875,0.104
27.900,-0.457,0.875,0.102
27.910,-0.459,0.875,0.105
27.920,-0.469,0.879,0.105
27.930,-0.473,0.877,0.105
27.939,-0.479,0.873,0.100
27.949,-0.482,0.871,0.102
27.959,-0.492,0.865,0.098
27.969,-0.498,0.863,0.098
27.979,-0.500,0.861,0.098
27.989,-0.502,0.855,0.098
27.999,-0.508,0.854,0.100
28.009,-0.504,0.850,0.098
28.019,-0.508,0.848,0.098
28.029,-0.514,0.852,0.102
28.039,-0.520,0.852,0.098
28.049,-0.523,0.850,0.100
28.059,-0.527,0.854,0.102
28.068,-0.529,0.855,0.104
28.078,-0.531,0.854,0.102
28.088,-0.541,0.855,0.107
28.098,-0.545,0.855,0.104
28.108,-0.545,0.846,0.105
28.118,-0.545,0.846,0.109
28.128,-0.545,0.846,0.111
28.138,-0.547,0.840,0.115
28.148,-0.549,0.840,0.111
28.158,-0.547,0.834,0.111
28.168,-0.545,0.830,0.113
28.178,-0.547,0.824,0.111
28.188,-0.545,0.824,0.113
28.197,-0.543,0.822,0.109
28.207,-0.543,0.818,0.113
28.217,-0.541,0.822,0.113
28.227,-0.535,0.824,0.115
28.237,-0.533,0.824,0.115
28.247,-0.531,0.828,0.117
28.257,-0.529,0.826,0.119
28.267,-0.529,0.830,0.115
28.277,-0.535,0.838,0.117
28.287,-0.531,0.840,0.117
28.297,-0.529,0.834,0.117
28.307,-0.529,0.838,0.119
28.317,-0.529,0.842,0.121
28.326,-0.531,0.840,0.121
28.336,-0.531,0.842,0.117
28.346,-0.527,0.840,0.121
28.356,-0.521,0.848,0.125
28.366,-0.529,0.844,0.119
28.376,-0.523,0.848,0.115
28.386,-0.531,0.846,0.113
28.396,-0.531,0.840,0.109
28.406,-0.529,0.842,0.111
28.416,-0.531,0.842,0.111
28.426,-0.531,0.842,0.113
28.436,-0.529,0.840,0.111
28.446,-0.531,0.840,0.109
28.455,-0.531,0.834,0.109
28.465,-0.523,0.834,0.111
28.475,-0.520,0.836,0.111
28.485,-0.518,0.838,0.111
28.495,-0.525,0.838,0.107
28.505,-0.527,0.840,0.105
28.515,-0.525,0.832,0.104
28.525,-0.523,0.830,0.105
28.535,-0.523,0.840,0.105
28.545,-0.518,0.842,0.105
28.555,-0.518,0.842,0.102
28.565,-0.512,0.840,0.098
28.575,-0.506,0.842,0.096
28.584,-0.508,0.852,0.096
28.594,-0.506,0.848,0.096
28.604,-0.500,0.846,0.098
28.614,-0.498,0.861,0.100
28.624,-0.498,0.871,0.105
28.634,-0.506,0.877,0.100
28.644,-0.510,0.869,0.092
28.654,-0.512,0.846,0.084
28.664,-0.523,0.844,0.080
28.674,-0.529,0.836,0.074
28.684,-0.531,0.828,0.068
28.694,-0.535,0.830,0.061
28.704,-0.539,0.828,0.061
28.713,-0.539,0.822,0.055
28.723,-0.533,0.828,0.053
28.733,-0.529,0.834,0.051
28.743,-0.531,0.840,0.047
28.753,-0.533,0.838,0.041
28.763,-0.537,0.832,0.033
28.773,-0.533,0.834,0.035
28.783,-0.527,0.846,0.031
28.793,-0.529,0.850,0.029
28.803,-0.527,0.850,0.025
28.813,-0.537,0.855,0.016
28.823,-0.539,0.842,0.021
28.833,-0.535,0.846,0.021
28.842,-0.516,0.848,0.025
28.852,-0.500,0.865,0.029
28.862,-0.502,0.898,0.037
28.872,-0.525,0.910,0.035
28.882,-0.549,0.879,0.031
28.892,-0.564,0.859,0.027
28.902,-0.566,0.846,0.021
28.912,-0.578,0.836,0.012
28.922,-0.582,0.828,0.012
28.932,-0.582,0.816,0.006
28.942,-0.576,0.793,-0.002
28.952,-0.551,0.793,-0.002
28.962,-0.531,0.809,0.004
28.971,-0.510,0.830,0.006
28.981,-0.504,0.855,0.014
28.991,-0.502,0.869,0.016
29.001,-0.512,0.871,0.018
29.011,-0.521,0.861,0.016
29.021,-0.533,0.854,0.010
29.031,-0.535,0.846,0.008
29.041,-0.539,0.844,0.006
29.051,-0.545,0.842,0.000
29.061,-0.545,0.832,0.000
29.071,-0.543,0.838,0.000
29.081,-0.539,0.844,-0.004
29.091,-0.523,0.850,0.004
29.100,-0.518,0.857,0.010
29.110,-0.521,0.865,0.016
29.120,-0.518,0.873,0.016
29.130,-0.523,0.863,0.016
29.140,-0.521,0.859,0.014
29.150,-0.514,0.850,0.010
29.160,-0.512,0.844,0.006
29.170,-0.510,0.846,0.010
29.180,-0.510,0.846,0.008
29.190,-0.516,0.838,0.002
29.200,-0.521,0.834,0.000
29.210,-0.523,0.826,0.000
29.220,-0.520,0.834,-0.006
29.229,-0.521,0.834,-0.006
29.239,-0.520,0.842,-0.010
29.249,-0.521,0.850,-0.008
29.259,-0.521,0.848,-0.010
29.269,-0.518,0.842,-0.012
29.279,-0.512,0.844,-0.014
29.289,-0.512,0.850,-0.016
29.299,-0.510,0.854,-0.014
29.309,-0.516,0.857,-0.016
29.319,-0.520,0.855,-0.020
29.329,-0.520,0.857,-0.018
29.339,-0.521,0.855,-0.020
29.349,-0.512,0.852,-0.020
29.358,-0.510,0.852,-0.023
29.368,-0.510,0.854,-0.021
29.378,-0.512,0.855,-0.029
29.388,-0.518,0.855,-0.025
29.398,-0.516,0.850,-0.027
29.408,-0.506,0.850,-0.025
29.418,-0.502,0.859,-0.025
29.428,-0.498,0.859,-0.023
29.438,-0.500,0.861,-0.021
29.448,-0.506,0.863,-0.023
29.458,-0.506,0.859,-0.027
29.468,-0.510,0.848,-0.029
29.478,-0.504,0.834,-0.029
29.487,-0.498,0.840,-0.033
29.497,-0.498,0.844,-0.031
29.507,-0.500,0.848,-0.029
29.517,-0.506,0.852,-0.033
29.527,-0.508,0.852,-0.035
29.537,-0.514,0.854,-0.037
29.547,-0.516,0.850,-0.035
29.557,-0.512,0.852,-0.037
29.567,-0.514,0.854,-0.041
29.577,-0.518,0.852,-0.041
29.587,-0.518,0.846,-0.045
29.597,-0.521,0.850,-0.043
29.607,-0.520,0.848,-0.051
29.616,-0.518,0.846,-0.051
29.626,-0.520,0.848,-0.051
29.636,-0.518,0.848,-0.053
29.646,-0.516,0.850,-0.053
29.656,-0.516,0.852,-0.057
29.666,-0.514,0.852,-0.057
29.676,-0.510,0.854,-0.059
29.686,-0.510,0.850,-0.059
29.696,-0.510,0.852,-0.062
29.706,-0.512,0.848,-0.064
29.716,-0.512,0.852,-0.062
29.726,-0.512,0.848,-0.070
29.736,-0.512,0.846,-0.066
29.745,-0.510,0.844,-0.068
29.755,-0.512,0.836,-0.074
29.765,-0.510,0.836,-0.076
29.775,-0.510,0.834,-0.074
29.785,-0.506,0.824,-0.080
29.795,-0.508,0.832,-0.074
29.805,-0.510,0.840,-0.076
29.815,-0.510,0.840,-0.078
29.825,-0.516,0.844,-0.080
29.835,-0.512,0.840,-0.076
29.845,-0.510,0.842,-0.080
29.855,-0.510,0.848,-0.084
29.865,-0.508,0.840,-0.090
29.874,-0.508,0.838,-0.090
29.884,-0.510,0.840,-0.092
29.894,-0.512,0.844,-0.096
29.904,-0.512,0.842,-0.096
29.914,-0.512,0.842,-0.098
29.924,-0.510,0.842,-0.104
29.934,-0.508,0.840,-0.102
29.944,-0.512,0.846,-0.104
29.954,-0.510,0.840,-0.104
29.964,-0.508,0.846,-0.105
29.974,-0.514,0.848,-0.105
29.984,-0.514,0.846,-0.105
29.994,-0.510,0.848,-0.105
30.003,-0.516,0.844,-0.107
30.013,-0.510,0.842,-0.109
30.023,-0.510,0.848,-0.113
30.033,-0.508,0.842,-0.115
30.043,-0.508,0.842,-0.115
30.053,-0.506,0.842,-0.117
30.063,-0.506,0.846,-0.119
30.073,-0.508,0.848,-0.121
30.083,-0.506,0.848,-0.119
30.093,-0.508,0.848,-0.121
30.103,-0.508,0.848,-0.127
30.113,-0.506,0.844,-0.125
30.123,-0.506,0.848,-0.127
30.133,-0.500,0.844,-0.131
30.142,-0.504,0.844,-0.131
30.152,-0.498,0.846,-0.129
30.162,-0.498,0.852,-0.135
30.172,-0.496,0.844,-0.135
30.182,-0.494,0.842,-0.137
30.192,-0.490,0.844,-0.141
30.202,-0.494,0.848,-0.141
30.212,-0.500,0.854,-0.145
30.222,-0.498,0.855,-0.139
30.232,-0.496,0.857,-0.139
30.242,-0.498,0.855,-0.139
30.252,-0.496,0.855,-0.141
30.262,-0.496,0.850,-0.143
30.271,-0.494,0.846,-0.141
30.281,-0.494,0.844,-0.145
30.291,-0.490,0.844,-0.146
30.301,-0.490,0.842,-0.145
30.311,-0.486,0.846,-0.148
30.321,-0.486,0.844,-0.148
30.331,-0.484,0.850,-0.145
30.341,-0.486,0.854,-0.145
30.351,-0.490,0.846,-0.146
30.361,-0.488,0.840,-0.148
30.371,-0.486,0.840,-0.150
30.381,-0.488,0.836,-0.150
30.391,-0.490,0.836,-0.152
30.400,-0.484,0.836,-0.154
30.410,-0.488,0.842,-0.154
30.420,-0.486,0.844,-0.152
30.430,-0.488,0.846,-0.152
30.440,-0.484,0.844,-0.150
30.450,-0.480,0.844,-0.150
30.460,-0.477,0.848,-0.150
30.470,-0.479,0.857,-0.152
30.480,-0.480,0.859,-0.152
30.490,-0.482,0.857,-0.158
30.500,-0.488,0.850,-0.160
30.510,-0.488,0.840,-0.160
30.520,-0.488,0.836,-0.158
30.529,-0.484,0.840,-0.164
30.539,-0.480,0.850,-0.160
30.549,-0.486,0.854,-0.164
30.559,-0.490,0.859,-0.162
30.569,-0.494,0.859,-0.162
30.579,-0.486,0.850,-0.154
30.589,-0.475,0.850,-0.158
30.599,-0.473,0.873,-0.150
30.609,-0.479,0.891,-0.145
30.619,-0.494,0.898,-0.143
30.629,-0.512,0.891,-0.139
30.639,-0.521,0.875,-0.133
30.649,-0.525,0.865,-0.133
30.658,-0.527,0.836,-0.129
30.668,-0.525,0.834,-0.131
30.678,-0.521,0.832,-0.123
30.688,-0.514,0.830,-0.115
30.698,-0.510,0.846,-0.113
30.708,-0.514,0.846,-0.107
30.718,-0.521,0.850,-0.104
30.728,-0.527,0.848,-0.100
30.738,-0.537,0.838,-0.100
30.748,-0.533,0.838,-0.096
30.758,-0.537,0.822,-0.098
30.768,-0.539,0.814,-0.098
30.778,-0.543,0.812,-0.096
30.787,-0.543,0.807,-0.098
30.797,-0.541,0.805,-0.096
30.807,-0.549,0.805,-0.094
30.817,-0.551,0.809,-0.092
30.827,-0.561,0.820,-0.088
30.837,-0.559,0.820,-0.086
30.847,-0.557,0.828,-0.082
30.857,-0.555,0.834,-0.084
30.867,-0.555,0.826,-0.082
30.877,-0.555,0.822,-0.080
30.887,-0.555,0.822,-0.076
30.897,-0.551,0.814,-0.074
30.907,-0.551,0.824,-0.070
30.916,-0.553,0.830,-0.072
30.926,-0.559,0.828,-0.066
30.936,-0.564,0.818,-0.066
30.946,-0.559,0.814,-0.061
30.956,-0.561,0.811,-0.057
30.966,-0.566,0.812,-0.055
30.976,-0.574,0.814,-0.049
30.986,-0.578,0.814,-0.047
30.996,-0.584,0.812,-0.045
31.006,-0.588,0.812,-0.039
31.016,-0.594,0.816,-0.031
31.026,-0.600,0.807,-0.027
31.036,-0.600,0.803,-0.025
31.045,-0.605,0.795,-0.021
31.055,-0.605,0.789,-0.018
31.065,-0.613,0.787,-0.016
31.075,-0.621,0.781,-0.014
31.085,-0.623,0.773,-0.010
31.095,-0.619,0.768,-0.002
31.105,-0.621,0.773,0.000
31.115,-0.629,0.771,0.004
31.125,-0.635,0.770,0.006
31.135,-0.641,0.768,0.010
31.145,-0.645,0.768,0.014
31.155,-0.652,0.766,0.020
31.165,-0.648,0.754,0.023
31.174,-0.652,0.754,0.025
31.184,-0.656,0.750,0.031
31.194,-0.662,0.740,0.035
31.204,-0.664,0.740,0.039
31.214,-0.670,0.736,0.045
31.224,-0.676,0.734,0.043
31.234,-0.676,0.732,0.049
31.244,-0.676,0.727,0.051
31.254,-0.680,0.721,0.055
31.264,-0.678,0.723,0.062
31.274,-0.682,0.717,0.064
31.284,-0.682,0.715,0.066
31.294,-0.680,0.717,0.072
31.303,-0.686,0.709,0.072
31.313,-0.688,0.707,0.072
31.323,-0.693,0.701,0.074
31.333,-0.701,0.699,0.070
31.343,-0.703,0.693,0.070
31.353,-0.709,0.689,0.070
31.363,-0.713,0.691,0.066
31.373,-0.721,0.693,0.066
31.383,-0.725,0.691,0.066
31.393,-0.729,0.691,0.061
31.403,-0.729,0.689,0.059
31.413,-0.729,0.693,0.057
31.423,-0.729,0.695,0.051
31.432,-0.727,0.699,0.051
31.442,-0.727,0.699,0.049
31.452,-0.725,0.703,0.045
31.462,-0.725,0.711,0.045
31.472,-0.721,0.715,0.041
31.482,-0.717,0.719,0.043
31.492,-0.717,0.725,0.045
31.502,-0.715,0.727,0.041
31.512,-0.715,0.729,0.041
31.522,-0.713,0.730,0.043
31.532,-0.713,0.730,0.041
31.542,-0.713,0.723,0.041
31.552,-0.713,0.721,0.043
31.561,-0.711,0.727,0.043
31.571,-0.713,0.717,0.039
31.581,-0.717,0.721,0.043
31.591,-0.717,0.719,0.047
31.601,-0.713,0.719,0.049
31.611,-0.713,0.717,0.049
31.621,-0.715,0.713,0.049
31.631,-0.715,0.711,0.049
31.641,-0.717,0.711,0.051
31.651,-0.717,0.709,0.053
31.661,-0.717,0.705,0.053
31.671,-0.721,0.703,0.055
31.681,-0.717,0.699,0.053
31.690,-0.717,0.701,0.055
31.700,-0.717,0.701,0.051
31.710,-0.713,0.699,0.053
31.720,-0.723,0.699,0.055
31.730,-0.727,0.701,0.055
31.740,-0.729,0.703,0.057
31.750,-0.729,0.703,0.057
31.760,-0.729,0.707,0.055
31.770,-0.729,0.707,0.055
31.780,-0.725,0.711,0.053
31.790,-0.727,0.709,0.055
31.800,-0.725,0.709,0.053
31.810,-0.723,0.709,0.049
31.819,-0.721,0.709,0.053
31.829,-0.723,0.711,0.053
31.839,-0.723,0.713,0.051
31.849,-0.723,0.709,0.053
31.859,-0.721,0.713,0.055
31.869,-0.715,0.717,0.057
31.879,-0.713,0.721,0.055
31.889,-0.709,0.717,0.055
31.899,-0.705,0.719,0.053
31.909,-0.705,0.719,0.051
31.919,-0.707,0.719,0.053
31.929,-0.703,0.719,0.049
31.939,-0.703,0.717,0.051
31.948,-0.705,0.717,0.049
31.958,-0.705,0.717,0.049
31.968,-0.703,0.717,0.049
31.978,-0.707,0.715,0.049
31.988,-0.701,0.721,0.047
31.998,-0.701,0.721,0.047
32.008,-0.705,0.717,0.047
32.018,-0.703,0.721,0.045
32.028,-0.705,0.723,0.043
32.038,-0.705,0.725,0.043
32.048,-0.703,0.729,0.043
32.058,-0.699,0.727,0.041
32.068,-0.701,0.729,0.041
32.077,-0.697,0.725,0.043
32.087,-0.699,0.730,0.045
32.097,-0.705,0.730,0.039
32.107,-0.705,0.725,0.041
32.117,-0.703,0.725,0.039
32.127,-0.701,0.727,0.039
32.137,-0.701,0.729,0.041
32.147,-0.697,0.729,0.041
32.157,-0.697,0.730,0.041
32.167,-0.697,0.730,0.041
32.177,-0.695,0.729,0.041
32.187,-0.697,0.727,0.041
32.197,-0.699,0.725,0.039
32.206,-0.701,0.727,0.043
32.216,-0.699,0.725,0.043
32.226,-0.699,0.723,0.045
32.236,-0.703,0.727,0.043
32.246,-0.705,0.723,0.043
32.256,-0.703,0.727,0.041
32.266,-0.701,0.725,0.041
32.276,-0.703,0.721,0.045
32.286,-0.701,0.723,0.043
32.296,-0.707,0.719,0.039
32.306,-0.703,0.721,0.041
32.316,-0.707,0.719,0.041
32.326,-0.707,0.719,0.041
32.335,-0.707,0.723,0.041
32.345,-0.709,0.723,0.041
32.355,-0.709,0.725,0.037
32.365,-0.707,0.725,0.037
32.375,-0.703,0.727,0.037
32.385,-0.703,0.729,0.037
32.395,-0.699,0.723,0.037
32.405,-0.701,0.727,0.037
32.415,-0.697,0.730,0.035
32.425,-0.695,0.721,0.039
32.435,-0.689,0.727,0.039
32.445,-0.693,0.729,0.035
32.455,-0.693,0.734,0.039
32.464,-0.697,0.732,0.039
32.474,-0.695,0.730,0.037
32.484,-0.693,0.732,0.037
32.494,-0.695,0.727,0.035
32.504,-0.691,0.730,0.039
32.514,-0.693,0.729,0.035
32.524,-0.693,0.732,0.035
32.534,-0.691,0.730,0.035
32.544,-0.693,0.729,0.037
32.554,-0.697,0.729,0.037
32.564,-0.699,0.727,0.031
32.574,-0.697,0.727,0.035
32.584,-0.693,0.729,0.035
32.593,-0.697,0.727,0.033
32.603,-0.695,0.732,0.035
32.613,-0.695,0.734,0.035
32.623,-0.693,0.736,0.035
32.633,-0.693,0.736,0.037
32.643,-0.691,0.738,0.039
32.653,-0.688,0.740,0.037
32.663,-0.688,0.738,0.041
32.673,-0.689,0.740,0.039
32.683,-0.689,0.740,0.041
32.693,-0.689,0.740,0.041
32.703,-0.688,0.738,0.041
32.713,-0.684,0.742,0.043
32.723,-0.686,0.744,0.041
32.732,-0.686,0.738,0.043
32.742,-0.684,0.736,0.045
32.752,-0.686,0.734,0.045
32.762,-0.686,0.738,0.045
32.772,-0.691,0.738,0.045
32.782,-0.691,0.736,0.043
32.792,-0.693,0.736,0.043
32.802,-0.695,0.732,0.049
32.812,-0.693,0.730,0.047
32.822,-0.691,0.732,0.047
32.832,-0.689,0.732,0.051
32.842,-0.691,0.730,0.051
32.852,-0.693,0.730,0.053
32.861,-0.693,0.730,0.053
32.871,-0.699,0.730,0.051
32.881,-0.703,0.730,0.051
32.891,-0.699,0.725,0.051
32.901,-0.699,0.727,0.053
32.911,-0.701,0.725,0.049
32.921,-0.697,0.715,0.049
32.931,-0.691,0.719,0.053
32.941,-0.689,0.723,0.053
32.951,-0.693,0.723,0.051
32.961,-0.693,0.729,0.055
32.971,-0.691,0.730,0.055
32.981,-0.686,0.730,0.057
32.990,-0.686,0.732,0.053
33.000,-0.684,0.734,0.057
33.010,-0.684,0.732,0.051
33.020,-0.684,0.732,0.047
33.030,-0.684,0.734,0.049
33.040,-0.686,0.734,0.045
33.050,-0.682,0.740,0.043
33.060,-0.680,0.742,0.045
33.070,-0.670,0.746,0.045
33.080,-0.670,0.752,0.041
33.090,-0.670,0.758,0.039
33.100,-0.668,0.758,0.041
33.110,-0.668,0.758,0.039
33.119,-0.670,0.762,0.041
33.129,-0.668,0.760,0.039
33.139,-0.660,0.760,0.041
33.149,-0.658,0.760,0.041
33.159,-0.660,0.758,0.039
33.169,-0.664,0.760,0.039
33.179,-0.668,0.758,0.037
33.189,-0.668,0.750,0.039
33.199,-0.670,0.752,0.035
33.209,-0.668,0.750,0.035
33.219,-0.666,0.746,0.035
33.229,-0.664,0.744,0.031
33.239,-0.662,0.750,0.035
33.248,-0.662,0.754,0.035
33.258,-0.662,0.756,0.031
33.268,-0.660,0.754,0.035
33.278,-0.662,0.758,0.035
33.288,-0.658,0.758,0.035
33.298,-0.664,0.760,0.033
33.308,-0.666,0.762,0.035
33.318,-0.664,0.760,0.035
33.328,-0.666,0.756,0.033
33.338,-0.666,0.756,0.033
33.348,-0.668,0.754,0.033
33.358,-0.672,0.756,0.035
33.368,-0.674,0.748,0.033
33.377,-0.680,0.746,0.033
33.387,-0.676,0.740,0.031
33.397,-0.678,0.740,0.031
33.407,-0.682,0.740,0.035
33.417,-0.678,0.736,0.035
33.427,-0.676,0.742,0.033
33.437,-0.670,0.744,0.035
33.447,-0.672,0.748,0.033
33.457,-0.670,0.750,0.037
33.467,-0.674,0.750,0.033
33.477,-0.670,0.752,0.033
33.487,-0.678,0.746,0.031
33.497,-0.674,0.748,0.037
33.506,-0.678,0.750,0.033
33.516,-0.678,0.748,0.037
33.526,-0.674,0.744,0.031
33.536,-0.674,0.744,0.033
33.546,-0.674,0.746,0.033
33.556,-0.676,0.746,0.037
33.566,-0.678,0.748,0.035
33.576,-0.678,0.748,0.035
33.586,-0.678,0.752,0.033
33.596,-0.678,0.748,0.033
33.606,-0.674,0.750,0.039
33.616,-0.674,0.748,0.037
33.626,-0.672,0.746,0.031
33.635,-0.678,0.744,0.035
33.645,-0.676,0.744,0.037
33.655,-0.674,0.740,0.039
33.665,-0.676,0.746,0.037
33.675,-0.672,0.746,0.035
33.685,-0.674,0.748,0.035
33.695,-0.670,0.750,0.037
33.705,-0.668,0.750,0.041
33.715,-0.666,0.748,0.037
33.725,-0.668,0.748,0.031
33.735,-0.672,0.746,0.037
33.745,-0.672,0.746,0.033
33.755,-0.674,0.748,0.033
33.764,-0.678,0.748,0.035
33.774,-0.680,0.750,0.035
33.784,-0.678,0.752,0.039
33.794,-0.680,0.752,0.035
33.804,-0.680,0.750,0.037
33.814,-0.682,0.748,0.037
33.824,-0.682,0.744,0.039
33.834,-0.684,0.742,0.041
33.844,-0.682,0.742,0.041
33.854,-0.682,0.742,0.039
33.864,-0.684,0.738,0.043
33.874,-0.684,0.736,0.043
33.884,-0.680,0.738,0.043
33.893,-0.680,0.736,0.045
33.903,-0.682,0.736,0.043
33.913,-0.682,0.734,0.041
33.923,-0.680,0.734,0.041
33.933,-0.678,0.738,0.041
33.943,-0.674,0.742,0.041
33.953,-0.676,0.746,0.043
33.963,-0.676,0.744,0.045
33.973,-0.676,0.748,0.045
33.983,-0.680,0.744,0.047
33.993,-0.680,0.742,0.045
34.003,-0.682,0.746,0.043
34.013,-0.680,0.742,0.043
34.022,-0.684,0.748,0.041
34.032,-0.682,0.742,0.047
34.042,-0.682,0.740,0.045
34.052,-0.680,0.740,0.043
34.062,-0.686,0.742,0.043
34.072,-0.684,0.740,0.045
34.082,-0.684,0.740,0.047
34.092,-0.684,0.736,0.047
34.102,-0.682,0.738,0.047
34.112,-0.682,0.738,0.049
34.122,-0.680,0.740,0.045
34.132,-0.678,0.742,0.047
34.142,-0.680,0.744,0.053
34.151,-0.678,0.744,0.051
34.161,-0.680,0.742,0.047
34.171,-0.682,0.742,0.049
34.181,-0.688,0.742,0.047
34.191,-0.686,0.736,0.045
34.201,-0.686,0.736,0.047
34.211,-0.686,0.738,0.045
34.221,-0.680,0.740,0.045
34.231,-0.680,0.742,0.049
34.241,-0.678,0.744,0.049
34.251,-0.682,0.744,0.047
34.261,-0.682,0.742,0.045
34.271,-0.684,0.738,0.047
34.280,-0.682,0.742,0.049
34.290,-0.689,0.742,0.047
34.300,-0.688,0.738,0.047
34.310,-0.684,0.734,0.047
34.320,-0.682,0.736,0.043
34.330,-0.680,0.736,0.043
34.340,-0.684,0.738,0.043
34.350,-0.684,0.742,0.041
34.360,-0.684,0.742,0.045
34.370,-0.682,0.744,0.045
34.380,-0.684,0.742,0.041
34.390,-0.684,0.742,0.043
34.400,-0.682,0.746,0.043
34.409,-0.684,0.742,0.045
34.419,-0.680,0.740,0.043
34.429,-0.684,0.742,0.041
34.439,-0.680,0.744,0.041
34.449,-0.684,0.740,0.043
34.459,-0.682,0.742,0.041
34.469,-0.680,0.742,0.043
34.479,-0.680,0.740,0.047
34.489,-0.684,0.740,0.041
34.499,-0.684,0.738,0.047
34.509,-0.680,0.740,0.043
34.519,-0.684,0.740,0.043
34.529,-0.684,0.740,0.045
34.538,-0.684,0.742,0.045
34.548,-0.684,0.742,0.045
34.558,-0.684,0.744,0.045
34.568,-0.686,0.742,0.045
34.578,-0.680,0.746,0.045
34.588,-0.682,0.746,0.045
34.598,-0.680,0.746,0.043
34.608,-0.682,0.744,0.047
34.618,-0.682,0.740,0.045
34.628,-0.680,0.744,0.047
34.638,-0.684,0.744,0.047
34.648,-0.684,0.742,0.045
34.658,-0.684,0.742,0.045
34.667,-0.684,0.740,0.047
34.677,-0.682,0.738,0.047
34.687,-0.682,0.740,0.045
34.697,-0.686,0.742,0.049
34.707,-0.686,0.742,0.045
34.717,-0.682,0.742,0.045
34.727,-0.686,0.738,0.045
34.737,-0.688,0.734,0.043
34.747,-0.689,0.734,0.045
34.757,-0.688,0.736,0.047
34.767,-0.684,0.734,0.043
34.777,-0.682,0.740,0.047
34.787,-0.676,0.746,0.045
34.796,-0.684,0.746,0.051
34.806,-0.684,0.740,0.047
34.816,-0.684,0.736,0.049
34.826,-0.688,0.730,0.045
34.836,-0.686,0.732,0.047
34.846,-0.689,0.734,0.051
34.856,-0.689,0.734,0.049
34.866,-0.689,0.736,0.049
34.876,-0.686,0.738,0.051
34.886,-0.682,0.740,0.051
34.896,-0.686,0.738,0.055
34.906,-0.686,0.738,0.045
34.916,-0.686,0.732,0.049
34.925,-0.686,0.732,0.051
34.935,-0.684,0.729,0.049
34.945,-0.684,0.732,0.049
34.955,-0.684,0.736,0.047
34.965,-0.682,0.738,0.051
34.975,-0.682,0.742,0.049
34.985,-0.684,0.746,0.049
34.995,-0.680,0.744,0.051
35.005,-0.682,0.740,0.047
35.015,-0.684,0.742,0.047
35.025,-0.688,0.736,0.043
35.035,-0.689,0.736,0.043
35.045,-0.688,0.734,0.043
35.054,-0.684,0.734,0.043
35.064,-0.684,0.742,0.043
35.074,-0.684,0.742,0.043
35.084,-0.682,0.742,0.041
35.094,-0.678,0.740,0.045
35.104,-0.680,0.748,0.045
35.114,-0.676,0.746,0.043
35.124,-0.678,0.746,0.045
35.134,-0.678,0.748,0.043
35.144,-0.678,0.750,0.047
35.154,-0.680,0.746,0.047
35.164,-0.682,0.746,0.047
35.174,-0.682,0.744,0.047
35.183,-0.684,0.740,0.045
35.193,-0.682,0.732,0.043
35.203,-0.680,0.734,0.043
35.213,-0.680,0.734,0.047
35.223,-0.684,0.734,0.045
35.233,-0.684,0.734,0.045
35.243,-0.680,0.738,0.047
35.253,-0.680,0.736,0.043
35.263,-0.680,0.736,0.043
35.273,-0.678,0.742,0.043
35.283,-0.676,0.744,0.039
35.293,-0.674,0.744,0.041
35.303,-0.672,0.744,0.043
35.312,-0.674,0.750,0.037
35.322,-0.672,0.748,0.035
35.332,-0.674,0.750,0.039
35.342,-0.674,0.752,0.037
35.352,-0.674,0.752,0.039
35.362,-0.676,0.754,0.039
35.372,-0.678,0.752,0.041
35.382,-0.678,0.750,0.035
35.392,-0.682,0.750,0.041
35.402,-0.682,0.748,0.037
35.412,-0.686,0.744,0.039
35.422,-0.686,0.744,0.039
35.432,-0.686,0.742,0.039
35.442,-0.689,0.740,0.041
35.451,-0.688,0.738,0.043
35.461,-0.686,0.736,0.047
35.471,-0.688,0.738,0.045
35.481,-0.686,0.736,0.047
35.491,-0.689,0.730,0.047
35.501,-0.689,0.732,0.043
35.511,-0.691,0.730,0.045
35.521,-0.686,0.732,0.043
35.531,-0.684,0.740,0.043
35.541,-0.689,0.734,0.049
35.551,-0.682,0.738,0.049
35.561,-0.684,0.746,0.045
35.571,-0.678,0.742,0.045
35.580,-0.676,0.746,0.045
35.590,-0.674,0.748,0.045
35.600,-0.670,0.752,0.051
35.610,-0.676,0.754,0.043
35.620,-0.676,0.748,0.045
35.630,-0.678,0.744,0.047
35.640,-0.682,0.742,0.045
35.650,-0.686,0.742,0.043
35.660,-0.688,0.742,0.047
35.670,-0.688,0.740,0.045
35.680,-0.688,0.738,0.047
35.690,-0.691,0.734,0.043
35.700,-0.689,0.736,0.049
35.709,-0.691,0.729,0.051
35.719,-0.693,0.725,0.047
35.729,-0.695,0.730,0.053
35.739,-0.699,0.725,0.051
35.749,-0.695,0.723,0.051
35.759,-0.699,0.725,0.049
35.769,-0.699,0.723,0.051
35.779,-0.695,0.725,0.057
35.789,-0.699,0.730,0.053
35.799,-0.697,0.727,0.051
35.809,-0.693,0.729,0.055
35.819,-0.691,0.729,0.053
35.829,-0.693,0.729,0.053
35.838,-0.691,0.730,0.053
35.848,-0.693,0.730,0.051
35.858,-0.689,0.729,0.049
35.868,-0.691,0.734,0.053
35.878,-0.695,0.732,0.049
35.888,-0.691,0.727,0.047
35.898,-0.691,0.730,0.045
35.908,-0.688,0.727,0.045
35.918,-0.691,0.729,0.047
35.928,-0.693,0.736,0.045
35.938,-0.691,0.734,0.045
35.948,-0.693,0.732,0.045
35.958,-0.693,0.736,0.045
35.967,-0.701,0.736,0.047
35.977,-0.695,0.732,0.041
35.987,-0.695,0.732,0.039
35.997,-0.697,0.730,0.039
36.007,-0.693,0.732,0.037
36.017,-0.693,0.734,0.039
36.027,-0.693,0.732,0.043
36.037,-0.693,0.734,0.045
36.047,-0.691,0.730,0.039
36.057,-0.689,0.734,0.043
36.067,-0.689,0.734,0.045
36.077,-0.693,0.734,0.039
36.087,-0.691,0.736,0.045
36.096,-0.693,0.732,0.039
36.106,-0.693,0.732,0.039
36.116,-0.695,0.729,0.041
36.126,-0.697,0.736,0.039
36.136,-0.697,0.730,0.041
36.146,-0.697,0.729,0.039
36.156,-0.697,0.732,0.041
36.166,-0.701,0.727,0.043
36.176,-0.701,0.729,0.043
36.186,-0.703,0.725,0.043
36.196,-0.701,0.727,0.041
36.206,-0.703,0.725,0.041
36.216,-0.703,0.725,0.041
36.225,-0.701,0.723,0.041
36.235,-0.697,0.725,0.045
36.245,-0.699,0.727,0.049
36.255,-0.695,0.725,0.045
36.265,-0.699,0.727,0.045
36.275,-0.699,0.727,0.047
36.285,-0.697,0.725,0.047
36.295,-0.699,0.725,0.047
36.305,-0.695,0.727,0.045
36.315,-0.695,0.725,0.043
36.325,-0.695,0.729,0.045
36.335,-0.697,0.723,0.045
36.345,-0.695,0.723,0.043
36.354,-0.701,0.725,0.045
36.364,-0.701,0.729,0.043
36.374,-0.699,0.727,0.045
36.384,-0.699,0.727,0.043
36.394,-0.697,0.725,0.047
36.404,-0.703,0.729,0.045
36.414,-0.703,0.732,0.045
36.424,-0.701,0.729,0.045
36.434,-0.697,0.727,0.043
36.444,-0.691,0.730,0.047
36.454,-0.693,0.730,0.047
36.464,-0.695,0.736,0.051
36.474,-0.699,0.734,0.049
36.483,-0.699,0.734,0.051
36.493,-0.699,0.729,0.049
36.503,-0.701,0.721,0.049
36.513,-0.699,0.717,0.049
36.523,-0.699,0.719,0.047
36.533,-0.703,0.715,0.045
36.543,-0.701,0.717,0.047
36.553,-0.703,0.717,0.047
36.563,-0.705,0.717,0.051
36.573,-0.703,0.723,0.047
36.583,-0.701,0.721,0.047
36.593,-0.703,0.723,0.049
36.603,-0.699,0.719,0.047
36.612,-0.701,0.723,0.043
36.622,-0.701,0.725,0.041
36.632,-0.701,0.723,0.041
36.642,-0.703,0.723,0.043
36.652,-0.701,0.725,0.041
36.662,-0.705,0.730,0.041
36.672,-0.703,0.730,0.039
36.682,-0.703,0.727,0.039
36.692,-0.703,0.725,0.037
36.702,-0.699,0.727,0.037
36.712,-0.701,0.725,0.035
36.722,-0.699,0.727,0.035
36.732,-0.699,0.727,0.035
36.741,-0.697,0.730,0.035
36.751,-0.697,0.727,0.035
36.761,-0.695,0.727,0.033
36.771,-0.695,0.727,0.035
36.781,-0.695,0.727,0.035
36.791,-0.695,0.730,0.033
36.801,-0.691,0.727,0.033
36.811,-0.693,0.729,0.031
36.821,-0.691,0.729,0.035
36.831,-0.693,0.730,0.031
36.841,-0.691,0.730,0.029
36.851,-0.691,0.730,0.029
36.861,-0.693,0.732,0.033
36.870,-0.697,0.727,0.031
36.880,-0.697,0.727,0.029
36.890,-0.699,0.727,0.029
36.900,-0.703,0.727,0.027
36.910,-0.697,0.727,0.027
36.920,-0.699,0.727,0.029
36.930,-0.697,0.727,0.031
36.940,-0.695,0.729,0.029
36.950,-0.697,0.732,0.027
36.960,-0.695,0.729,0.029
36.970,-0.697,0.729,0.027
36.980,-0.695,0.732,0.027
36.990,-0.693,0.730,0.025
36.999,-0.697,0.729,0.031
37.009,-0.697,0.734,0.029
37.019,-0.695,0.732,0.029
37.029,-0.695,0.734,0.027
37.039,-0.695,0.732,0.027
37.049,-0.689,0.729,0.027
37.059,-0.693,0.729,0.029
37.069,-0.693,0.734,0.029
37.079,-0.689,0.734,0.031
37.089,-0.693,0.738,0.027
37.099,-0.691,0.736,0.023
37.109,-0.691,0.734,0.027
37.119,-0.691,0.736,0.025
37.128,-0.691,0.736,0.023
37.138,-0.689,0.730,0.023
37.148,-0.693,0.732,0.025
37.158,-0.689,0.732,0.025
37.168,-0.688,0.729,0.025
37.178,-0.693,0.729,0.025
37.188,-0.691,0.729,0.023
37.198,-0.691,0.732,0.023
37.208,-0.695,0.736,0.021
37.218,-0.695,0.730,0.023
37.228,-0.693,0.729,0.018
37.238,-0.697,0.729,0.023
37.248,-0.699,0.729,0.021
37.257,-0.693,0.734,0.020
37.267,-0.695,0.730,0.021
37.277,-0.693,0.732,0.020
37.287,-0.691,0.730,0.020
37.297,-0.691,0.730,0.021
37.307,-0.691,0.732,0.020
37.317,-0.689,0.732,0.020
37.327,-0.691,0.732,0.020
37.337,-0.689,0.736,0.016
37.347,-0.691,0.734,0.020
37.357,-0.688,0.734,0.018
37.367,-0.686,0.734,0.016
37.377,-0.688,0.734,0.018
37.386,-0.688,0.738,0.018
37.396,-0.684,0.736,0.020
37.406,-0.686,0.734,0.018
37.416,-0.686,0.738,0.018
37.426,-0.686,0.738,0.018
37.436,-0.689,0.738,0.014
37.446,-0.688,0.736,0.018
37.456,-0.688,0.740,0.018
37.466,-0.689,0.742,0.014
37.476,-0.688,0.744,0.010
37.486,-0.682,0.738,0.016
37.496,-0.680,0.738,0.008
37.506,-0.686,0.736,0.010
37.515,-0.686,0.738,0.012
37.525,-0.688,0.740,0.014
37.535,-0.686,0.736,0.012
37.545,-0.686,0.738,0.010
37.555,-0.680,0.740,0.012
37.565,-0.684,0.738,0.010
37.575,-0.682,0.738,0.010
37.585,-0.680,0.738,0.010
37.595,-0.682,0.736,0.010
37.605,-0.682,0.738,0.006
37.615,-0.680,0.736,0.012
37.625,-0.680,0.740,0.006
37.635,-0.680,0.738,0.004
37.644,-0.678,0.742,0.006
37.654,-0.682,0.740,0.004
37.664,-0.680,0.742,0.004
37.674,-0.684,0.742,0.004
37.684,-0.684,0.742,0.000
37.694,-0.684,0.738,0.006
37.704,-0.684,0.742,0.004
37.714,-0.688,0.744,0.002
37.724,-0.684,0.744,0.002
37.734,-0.684,0.744,0.002
37.744,-0.682,0.744,0.000
37.754,-0.682,0.742,0.000
37.764,-0.680,0.746,0.002
37.773,-0.678,0.746,0.002
37.783,-0.678,0.742,0.002
37.793,-0.674,0.748,0.002
37.803,-0.674,0.746,0.004
37.813,-0.674,0.748,0.002
37.823,-0.674,0.746,0.002
37.833,-0.676,0.748,0.004
37.843,-0.680,0.746,0.002
37.853,-0.670,0.744,0.004
37.863,-0.678,0.748,0.004
37.873,-0.674,0.746,0.004
37.883,-0.672,0.748,0.002
37.893,-0.676,0.746,0.002
37.902,-0.676,0.746,0.002
37.912,-0.678,0.742,0.002
37.922,-0.680,0.744,0.002
37.932,-0.676,0.744,0.000
37.942,-0.674,0.746,0.002
37.952,-0.676,0.744,0.002
37.962,-0.676,0.746,0.004
37.972,-0.674,0.746,0.002
37.982,-0.674,0.744,0.002
37.992,-0.672,0.746,0.006
38.002,-0.674,0.746,0.006
38.012,-0.670,0.744,0.000
38.022,-0.668,0.746,0.008
38.032,-0.666,0.746,0.006
38.041,-0.670,0.748,0.006
38.051,-0.670,0.752,0.004
38.061,-0.672,0.748,0.006
38.071,-0.668,0.750,0.006
38.081,-0.668,0.748,0.008
38.091,-0.670,0.752,0.004
38.101,-0.670,0.748,0.002
38.111,-0.672,0.750,0.002
38.121,-0.674,0.746,0.004
38.131,-0.670,0.748,0.002
38.141,-0.674,0.746,0.002
38.151,-0.676,0.744,0.002
38.161,-0.676,0.744,0.004
38.170,-0.674,0.748,0.000
38.180,-0.672,0.748,0.004
38.190,-0.674,0.748,0.000
38.200,-0.676,0.750,0.002
38.210,-0.676,0.746,0.000
38.220,-0.674,0.746,0.004
38.230,-0.672,0.746,0.006
38.240,-0.672,0.744,0.002
38.250,-0.674,0.746,-0.002
38.260,-0.672,0.748,0.004
38.270,-0.672,0.746,0.000
38.280,-0.674,0.748,0.004
38.290,-0.674,0.746,0.000
38.299,-0.676,0.746,0.000
38.309,-0.672,0.752,0.000
38.319,-0.674,0.752,0.000
38.329,-0.668,0.752,0.000
38.339,-0.672,0.746,0.000
38.349,-0.670,0.746,0.000
38.359,-0.670,0.748,0.002
38.369,-0.672,0.748,0.000
38.379,-0.670,0.750,0.002
38.389,-0.668,0.748,0.004
38.399,-0.668,0.750,0.004
38.409,-0.668,0.750,0.002
38.419,-0.670,0.750,0.002
38.428,-0.668,0.750,0.004
38.438,-0.670,0.748,-0.002
38.448,-0.670,0.750,0.000
38.458,-0.672,0.748,0.000
38.468,-0.668,0.750,0.004
38.478,-0.674,0.750,0.000
38.488,-0.670,0.752,0.000
38.498,-0.672,0.748,0.002
38.508,-0.672,0.750,0.000
38.518,-0.670,0.750,0.000
38.528,-0.670,0.750,0.000
38.538,-0.670,0.746,0.002
38.548,-0.668,0.748,0.002
38.557,-0.670,0.748,0.000
38.567,-0.670,0.750,0.000
38.577,-0.672,0.754,0.002
38.587,-0.670,0.750,0.000
38.597,-0.672,0.754,0.002
38.607,-0.668,0.754,0.000
38.617,-0.666,0.752,0.000
38.627,-0.668,0.754,0.000
38.637,-0.668,0.752,0.000
38.647,-0.666,0.752,0.006
38.657,-0.668,0.754,-0.002
38.667,-0.668,0.754,0.002
38.677,-0.664,0.752,0.000
38.686,-0.666,0.752,0.000
38.696,-0.668,0.754,0.002
38.706,-0.664,0.754,0.002
38.716,-0.666,0.752,0.000
38.726,-0.664,0.754,0.002
38.736,-0.664,0.754,0.002
38.746,-0.664,0.752,0.004
38.756,-0.662,0.756,0.000
38.766,-0.662,0.750,0.000
38.776,-0.664,0.752,0.002
38.786,-0.664,0.754,0.000
38.796,-0.664,0.754,0.000
38.806,-0.666,0.754,-0.002
38.815,-0.666,0.752,0.002
38.825,-0.668,0.758,0.004
38.835,-0.664,0.754,0.002
38.845,-0.664,0.754,0.000
38.855,-0.666,0.756,0.004
38.865,-0.668,0.754,0.000
38.875,-0.666,0.758,0.004
38.885,-0.666,0.754,0.000
38.895,-0.662,0.752,0.000
38.905,-0.658,0.756,0.002
38.915,-0.658,0.756,0.002
38.925,-0.660,0.756,0.004
38.935,-0.660,0.758,0.002
38.944,-0.658,0.754,0.004
38.954,-0.660,0.756,0.004
38.964,-0.662,0.756,0.002
38.974,-0.666,0.754,0.004
38.984,-0.662,0.756,0.000
38.994,-0.660,0.754,0.004
39.004,-0.660,0.754,0.004
39.014,-0.660,0.756,0.000
39.024,-0.664,0.754,0.004
39.034,-0.662,0.756,0.002
39.044,-0.660,0.752,0.002
39.054,-0.664,0.754,0.002
39.064,-0.664,0.754,0.004
39.073,-0.660,0.754,0.002
39.083,-0.660,0.754,0.006
39.093,-0.662,0.758,0.004
39.103,-0.660,0.760,0.002
39.113,-0.658,0.756,0.004
39.123,-0.656,0.756,0.004
39.133,-0.658,0.758,0.002
39.143,-0.656,0.758,0.002
39.153,-0.662,0.758,0.002
39.163,-0.662,0.756,-0.002
39.173,-0.664,0.754,0.004
39.183,-0.658,0.758,0.004
39.193,-0.660,0.764,0.000
39.202,-0.662,0.762,0.004
39.212,-0.654,0.754,0.006
39.222,-0.652,0.758,0.002
39.232,-0.658,0.758,0.002
39.242,-0.660,0.762,0.002
39.252,-0.658,0.758,0.000
39.262,-0.656,0.762,0.004
39.272,-0.658,0.758,0.002
39.282,-0.660,0.760,0.004
39.292,-0.656,0.760,0.000
39.302,-0.658,0.758,0.004
39.312,-0.658,0.758,0.004
39.322,-0.658,0.758,0.002
39.331,-0.658,0.758,0.004
39.341,-0.656,0.758,0.004
39.351,-0.658,0.760,0.004
39.361,-0.660,0.758,0.004
39.371,-0.660,0.758,0.008
39.381,-0.656,0.756,0.006
39.391,-0.656,0.758,0.006
39.401,-0.660,0.756,0.004
39.411,-0.660,0.756,0.004
39.421,-0.662,0.756,0.002
39.431,-0.660,0.758,0.004
39.441,-0.662,0.758,0.002
39.451,-0.656,0.758,0.004
39.460,-0.660,0.758,0.006
39.470,-0.660,0.756,0.002
39.480,-0.662,0.758,0.004
39.490,-0.660,0.762,0.002
39.500,-0.658,0.760,0.008
39.510,-0.658,0.756,0.008
39.520,-0.660,0.758,0.002
39.530,-0.658,0.760,0.002
39.540,-0.658,0.760,0.004
39.550,-0.656,0.760,0.002
39.560,-0.656,0.760,0.004
39.570,-0.658,0.758,0.008
39.580,-0.658,0.760,0.010
39.589,-0.660,0.760,0.008
39.599,-0.658,0.762,0.002
39.609,-0.658,0.760,0.004
39.619,-0.656,0.760,0.004
39.629,-0.660,0.758,0.004
39.639,-0.658,0.758,0.006
39.649,-0.658,0.760,0.006
39.659,-0.656,0.760,0.010
39.669,-0.662,0.760,0.008
39.679,-0.660,0.758,0.010
39.689,-0.658,0.760,0.012
39.699,-0.656,0.760,0.010
39.709,-0.656,0.760,0.008
39.718,-0.656,0.756,0.008
39.728,-0.658,0.760,0.008
39.738,-0.656,0.760,0.012
39.748,-0.654,0.760,0.010
39.758,-0.652,0.760,0.010
39.768,-0.652,0.762,0.008
39.778,-0.654,0.756,0.010
39.788,-0.652,0.762,0.008
39.798,-0.658,0.768,0.012
39.808,-0.656,0.766,0.014
39.818,-0.654,0.764,0.012
39.828,-0.654,0.764,0.010
39.838,-0.654,0.762,0.012
39.847,-0.650,0.764,0.014
39.857,-0.654,0.764,0.012
39.867,-0.656,0.764,0.016
39.877,-0.654,0.762,0.014
39.887,-0.652,0.762,0.014
39.897,-0.650,0.760,0.014
39.907,-0.650,0.756,0.014
39.917,-0.650,0.758,0.014
39.927,-0.652,0.760,0.014
39.937,-0.654,0.756,0.014
39.947,-0.658,0.762,0.014
39.957,-0.654,0.762,0.016
39.967,-0.654,0.760,0.016
39.976,-0.654,0.762,0.012
39.986,-0.654,0.758,0.018
39.996,-0.658,0.760,0.016
40.006,-0.656,0.758,0.014
40.016,-0.658,0.760,0.016
40.026,-0.658,0.760,0.012
40.036,-0.658,0.760,0.016
40.046,-0.658,0.762,0.018
40.056,-0.654,0.766,0.014
40.066,-0.656,0.760,0.014
40.076,-0.654,0.756,0.014
40.086,-0.652,0.756,0.014
40.096,-0.652,0.758,0.014
40.105,-0.654,0.764,0.016
40.115,-0.652,0.764,0.014
40.125,-0.654,0.768,0.016
40.135,-0.654,0.764,0.018
40.145,-0.652,0.766,0.016
40.155,-0.652,0.764,0.014
40.165,-0.652,0.764,0.014
40.175,-0.650,0.762,0.018
40.185,-0.650,0.760,0.016
40.195,-0.650,0.764,0.018
40.205,-0.652,0.766,0.018
40.215,-0.652,0.764,0.018
40.225,-0.650,0.766,0.016
40.234,-0.650,0.766,0.018
40.244,-0.650,0.764,0.014
40.254,-0.648,0.762,0.018
40.264,-0.650,0.760,0.018
40.274,-0.654,0.762,0.020
40.284,-0.652,0.760,0.016
40.294,-0.652,0.764,0.014
40.304,-0.650,0.762,0.014
40.314,-0.650,0.762,0.014
40.324,-0.652,0.764,0.014
40.334,-0.652,0.762,0.014
40.344,-0.650,0.764,0.012
40.354,-0.650,0.762,0.016
40.363,-0.652,0.764,0.014
40.373,-0.654,0.764,0.014
40.383,-0.654,0.766,0.016
40.393,-0.654,0.764,0.016
40.403,-0.654,0.766,0.016
40.413,-0.650,0.768,0.016
40.423,-0.656,0.762,0.012
40.433,-0.650,0.766,0.018
40.443,-0.650,0.768,0.018
40.453,-0.646,0.766,0.016
40.463,-0.648,0.770,0.018
40.473,-0.648,0.766,0.016
40.483,-0.652,0.760,0.018
40.492,-0.652,0.762,0.016
40.502,-0.652,0.766,0.016
40.512,-0.656,0.758,0.016
40.522,-0.654,0.766,0.018
40.532,-0.650,0.768,0.021
40.542,-0.652,0.762,0.021
40.552,-0.654,0.766,0.020
40.562,-0.650,0.762,0.021
40.572,-0.656,0.764,0.021
40.582,-0.652,0.764,0.020
40.592,-0.654,0.766,0.020
40.602,-0.652,0.768,0.020
40.612,-0.648,0.766,0.020
40.621,-0.648,0.766,0.021
40.631,-0.648,0.762,0.018
40.641,-0.648,0.766,0.020
40.651,-0.641,0.760,0.021
40.661,-0.650,0.766,0.018
40.671,-0.648,0.770,0.020
40.681,-0.650,0.768,0.021
40.691,-0.650,0.764,0.025
40.701,-0.652,0.766,0.021
40.711,-0.650,0.768,0.021
40.721,-0.652,0.766,0.021
40.731,-0.650,0.768,0.020
40.741,-0.652,0.766,0.021
40.751,-0.650,0.760,0.021
40.760,-0.654,0.764,0.025
40.770,-0.656,0.760,0.025
40.780,-0.650,0.762,0.021
40.790,-0.650,0.762,0.021
40.800,-0.654,0.762,0.023
40.810,-0.652,0.760,0.023
40.820,-0.652,0.764,0.023
40.830,-0.652,0.762,0.023
40.840,-0.652,0.764,0.025
40.850,-0.652,0.764,0.027
40.860,-0.652,0.764,0.023
40.870,-0.652,0.758,0.025
40.880,-0.654,0.766,0.023
40.889,-0.654,0.764,0.025
40.899,-0.654,0.766,0.025
40.909,-0.656,0.766,0.021
40.919,-0.652,0.764,0.023
40.929,-0.654,0.768,0.025
40.939,-0.654,0.766,0.023
40.949,-0.650,0.764,0.021
40.959,-0.650,0.760,0.023
40.969,-0.650,0.764,0.021
40.979,-0.650,0.766,0.021
40.989,-0.650,0.766,0.020
40.999,-0.650,0.766,0.023
41.009,-0.646,0.770,0.023
41.018,-0.648,0.766,0.023
41.028,-0.650,0.766,0.023
41.038,-0.648,0.768,0.025
41.048,-0.650,0.766,0.025
41.058,-0.648,0.762,0.020
41.068,-0.646,0.762,0.023
41.078,-0.646,0.766,0.021
41.088,-0.645,0.766,0.027
41.098,-0.652,0.764,0.021
41.108,-0.648,0.768,0.023
41.118,-0.650,0.766,0.023
41.128,-0.650,0.764,0.025
41.138,-0.650,0.764,0.021
41.147,-0.648,0.766,0.020
41.157,-0.648,0.766,0.021
41.167,-0.648,0.766,0.020
41.177,-0.646,0.766,0.020
41.187,-0.648,0.766,0.020
41.197,-0.648,0.768,0.020
41.207,-0.648,0.766,0.020
41.217,-0.646,0.766,0.023
41.227,-0.646,0.768,0.021
41.237,-0.648,0.768,0.020
41.247,-0.648,0.768,0.020
41.257,-0.645,0.766,0.021
41.267,-0.646,0.768,0.020
41.276,-0.646,0.766,0.020
41.286,-0.648,0.766,0.020
41.296,-0.650,0.766,0.018
41.306,-0.648,0.768,0.020
41.316,-0.646,0.770,0.021
41.326,-0.652,0.768,0.021
41.336,-0.648,0.766,0.023
41.346,-0.650,0.768,0.020
41.356,-0.650,0.764,0.020
41.366,-0.650,0.766,0.021
41.376,-0.650,0.766,0.023
41.386,-0.650,0.768,0.021
41.396,-0.648,0.764,0.023
41.405,-0.650,0.768,0.018
41.415,-0.650,0.764,0.023
41.425,-0.650,0.766,0.021
41.435,-0.650,0.768,0.023
41.445,-0.648,0.766,0.021
41.455,-0.648,0.768,0.020
41.465,-0.648,0.766,0.018
41.475,-0.650,0.766,0.018
41.485,-0.648,0.768,0.020
41.495,-0.650,0.764,0.021
41.505,-0.650,0.768,0.023
41.515,-0.650,0.770,0.023
41.525,-0.648,0.766,0.023
41.534,-0.645,0.766,0.020
41.544,-0.645,0.768,0.025
41.554,-0.641,0.770,0.021
41.564,-0.648,0.768,0.020
41.574,-0.646,0.766,0.020
41.584,-0.646,0.766,0.020
41.594,-0.648,0.770,0.021
41.604,-0.650,0.770,0.018
41.614,-0.648,0.771,0.021
41.624,-0.650,0.768,0.020
41.634,-0.648,0.768,0.023
41.644,-0.648,0.766,0.020
41.654,-0.648,0.764,0.020
41.663,-0.648,0.760,0.020
41.673,-0.646,0.764,0.021
41.683,-0.646,0.766,0.020
41.693,-0.646,0.766,0.023
41.703,-0.648,0.766,0.025
41.713,-0.645,0.766,0.021
41.723,-0.646,0.771,0.020
41.733,-0.648,0.770,0.020
41.743,-0.646,0.768,0.020
41.753,-0.646,0.766,0.020
41.763,-0.650,0.766,0.020
41.773,-0.646,0.768,0.021
41.783,-0.648,0.770,0.021
41.792,-0.648,0.768,0.021
41.802,-0.650,0.766,0.020
41.812,-0.648,0.766,0.023
41.822,-0.648,0.770,0.021
41.832,-0.646,0.771,0.021
41.842,-0.645,0.768,0.021
41.852,-0.641,0.764,0.020
41.862,-0.646,0.766,0.021
41.872,-0.645,0.766,0.021
41.882,-0.646,0.770,0.018
41.892,-0.645,0.771,0.021
41.902,-0.646,0.770,0.023
41.912,-0.648,0.770,0.020
41.921,-0.646,0.771,0.021
41.931,-0.646,0.770,0.021
41.941,-0.646,0.770,0.020
41.951,-0.646,0.768,0.021
41.961,-0.646,0.768,0.018
41.971,-0.648,0.766,0.021
41.981,-0.648,0.770,0.020
41.991,-0.650,0.766,0.023
42.001,-0.646,0.766,0.020
42.011,-0.648,0.766,0.021
42.021,-0.648,0.766,0.021
42.031,-0.646,0.766,0.020
42.041,-0.646,0.766,0.025
42.050,-0.645,0.768,0.018
42.060,-0.646,0.764,0.020
42.070,-0.646,0.768,0.021
42.080,-0.650,0.770,0.020
42.090,-0.648,0.770,0.021
42.100,-0.648,0.771,0.020
42.110,-0.646,0.770,0.021
42.120,-0.646,0.771,0.020
42.130,-0.646,0.768,0.021
42.140,-0.648,0.771,0.020
42.150,-0.645,0.770,0.018
42.160,-0.645,0.768,0.018
42.170,-0.645,0.771,0.020
42.179,-0.645,0.768,0.018
42.189,-0.645,0.771,0.020
42.199,-0.643,0.770,0.023
42.209,-0.646,0.771,0.023
42.219,-0.646,0.771,0.021
42.229,-0.646,0.771,0.021
42.239,-0.645,0.771,0.023
42.249,-0.650,0.770,0.025
42.259,-0.646,0.768,0.023
42.269,-0.645,0.770,0.021
42.279,-0.646,0.766,0.025
42.289,-0.643,0.768,0.021
42.299,-0.646,0.766,0.023
42.308,-0.645,0.768,0.023
42.318,-0.648,0.770,0.023
42.328,-0.648,0.770,0.021
42.338,-0.646,0.766,0.023
42.348,-0.650,0.766,0.025
42.358,-0.645,0.770,0.023
42.368,-0.645,0.768,0.020
42.378,-0.645,0.770,0.023
42.388,-0.645,0.768,0.027
42.398,-0.643,0.771,0.025
42.408,-0.643,0.766,0.025
42.418,-0.641,0.766,0.023
42.428,-0.639,0.768,0.025
42.437,-0.637,0.770,0.025
42.447,-0.643,0.771,0.023
42.457,-0.641,0.773,0.021
42.467,-0.643,0.770,0.025
42.477,-0.643,0.773,0.023
42.487,-0.646,0.775,0.027
42.497,-0.646,0.775,0.023
42.507,-0.646,0.771,0.023
42.517,-0.643,0.770,0.025
42.527,-0.645,0.770,0.025
42.537,-0.643,0.770,0.027
42.547,-0.643,0.771,0.025
42.557,-0.639,0.766,0.023
42.566,-0.646,0.768,0.023
42.576,-0.648,0.768,0.027
42.586,-0.643,0.764,0.027
42.596,-0.646,0.766,0.025
42.606,-0.646,0.766,0.027
42.616,-0.646,0.770,0.025
42.626,-0.646,0.770,0.023
42.636,-0.648,0.770,0.029
42.646,-0.648,0.768,0.025
42.656,-0.650,0.768,0.027
42.666,-0.652,0.768,0.025
42.676,-0.650,0.766,0.023
42.686,-0.650,0.768,0.023
42.695,-0.648,0.768,0.027
42.705,-0.648,0.768,0.027
42.715,-0.652,0.771,0.029
42.725,-0.650,0.770,0.027
42.735,-0.645,0.764,0.027
42.745,-0.646,0.764,0.023
42.755,-0.648,0.766,0.025
42.765,-0.648,0.768,0.029
42.775,-0.650,0.770,0.029
42.785,-0.650,0.768,0.027
42.795,-0.650,0.770,0.031
42.805,-0.646,0.766,0.029
42.815,-0.650,0.766,0.025
42.824,-0.646,0.768,0.029
42.834,-0.646,0.766,0.029
42.844,-0.648,0.766,0.027
42.854,-0.650,0.764,0.029
42.864,-0.650,0.762,0.031
42.874,-0.646,0.764,0.031
42.884,-0.650,0.766,0.029
42.894,-0.650,0.764,0.027
42.904,-0.650,0.764,0.029
42.914,-0.652,0.762,0.027
42.924,-0.650,0.764,0.029
42.934,-0.652,0.762,0.029
42.944,-0.650,0.762,0.029
42.953,-0.650,0.764,0.027
42.963,-0.654,0.766,0.027
42.973,-0.654,0.764,0.027
42.983,-0.650,0.766,0.027
42.993,-0.652,0.764,0.029
43.003,-0.650,0.764,0.027
43.013,-0.650,0.768,0.029
43.023,-0.654,0.768,0.029
43.033,-0.650,0.766,0.027
43.043,-0.652,0.766,0.027
43.053,-0.652,0.768,0.025
43.063,-0.652,0.768,0.027
43.073,-0.656,0.764,0.027
43.082,-0.652,0.764,0.027
43.092,-0.650,0.768,0.025
43.102,-0.652,0.766,0.027
43.112,-0.652,0.766,0.027
43.122,-0.646,0.768,0.027
43.132,-0.650,0.764,0.027
43.142,-0.652,0.764,0.025
43.152,-0.654,0.764,0.025
43.162,-0.650,0.762,0.029
43.172,-0.652,0.768,0.027
43.182,-0.656,0.764,0.031
43.192,-0.654,0.762,0.027
43.202,-0.656,0.766,0.027
43.211,-0.654,0.766,0.029
43.221,-0.650,0.764,0.025
43.231,-0.656,0.764,0.027
43.241,-0.652,0.762,0.025
43.251,-0.654,0.764,0.025
43.261,-0.650,0.766,0.029
43.271,-0.650,0.766,0.031
43.281,-0.648,0.766,0.025
43.291,-0.648,0.766,0.029
43.301,-0.650,0.770,0.027
43.311,-0.652,0.766,0.027
43.321,-0.654,0.766,0.029
43.331,-0.654,0.762,0.027
43.340,-0.654,0.764,0.027
43.350,-0.654,0.764,0.031
43.360,-0.652,0.766,0.029
43.370,-0.652,0.770,0.031
43.380,-0.648,0.766,0.027
43.390,-0.646,0.766,0.029
43.400,-0.648,0.764,0.031
43.410,-0.646,0.766,0.033
43.420,-0.648,0.762,0.029
43.430,-0.648,0.762,0.029
43.440,-0.648,0.762,0.029
43.450,-0.652,0.766,0.029
43.460,-0.652,0.766,0.027
43.470,-0.650,0.768,0.029
43.479,-0.650,0.766,0.029
43.489,-0.652,0.768,0.033
43.499,-0.650,0.766,0.027
43.509,-0.652,0.764,0.029
43.519,-0.652,0.764,0.027
43.529,-0.654,0.766,0.031
43.539,-0.652,0.766,0.027
43.549,-0.654,0.766,0.027
43.559,-0.650,0.768,0.029
43.569,-0.650,0.771,0.029
43.579,-0.650,0.770,0.029
43.589,-0.646,0.764,0.029
43.599,-0.646,0.762,0.029
43.608,-0.645,0.766,0.029
43.618,-0.648,0.764,0.027
43.628,-0.648,0.764,0.029
43.638,-0.652,0.771,0.029
43.648,-0.650,0.770,0.029
43.658,-0.652,0.771,0.029
43.668,-0.650,0.766,0.029
43.678,-0.652,0.766,0.029
43.688,-0.648,0.766,0.025
43.698,-0.646,0.762,0.031
43.708,-0.650,0.766,0.027
43.718,-0.650,0.764,0.027
43.728,-0.654,0.766,0.031
43.737,-0.652,0.766,0.029
43.747,-0.654,0.764,0.027
43.757,-0.652,0.766,0.029
43.767,-0.646,0.762,0.027
43.777,-0.652,0.764,0.025
43.787,-0.652,0.762,0.031
43.797,-0.652,0.768,0.027
43.807,-0.654,0.764,0.025
43.817,-0.656,0.762,0.027
43.827,-0.654,0.764,0.027
43.837,-0.654,0.764,0.029
43.847,-0.650,0.766,0.027
43.857,-0.654,0.766,0.027
43.866,-0.654,0.764,0.029
43.876,-0.652,0.764,0.027
43.886,-0.656,0.764,0.029
43.896,-0.652,0.762,0.029
43.906,-0.654,0.764,0.029
43.916,-0.652,0.764,0.027
43.926,-0.652,0.766,0.027
43.936,-0.654,0.766,0.029
43.946,-0.654,0.762,0.027
43.956,-0.654,0.764,0.027
43.966,-0.654,0.764,0.031
43.976,-0.654,0.764,0.027
43.986,-0.656,0.762,0.027
43.995,-0.654,0.762,0.029
44.005,-0.650,0.762,0.029
44.015,-0.654,0.764,0.027
44.025,-0.654,0.760,0.029
44.035,-0.656,0.766,0.029
44.045,-0.654,0.768,0.025
44.055,-0.656,0.762,0.029
44.065,-0.654,0.764,0.033
44.075,-0.650,0.764,0.029
44.085,-0.652,0.764,0.029
44.095,-0.652,0.766,0.025
44.105,-0.652,0.766,0.027
44.115,-0.650,0.762,0.031
44.124,-0.650,0.770,0.029
44.134,-0.646,0.766,0.033
44.144,-0.648,0.768,0.027
44.154,-0.646,0.771,0.029
44.164,-0.646,0.770,0.027
44.174,-0.648,0.766,0.027
44.184,-0.646,0.770,0.027
44.194,-0.646,0.766,0.033
44.204,-0.646,0.766,0.025
44.214,-0.650,0.766,0.029
44.224,-0.650,0.768,0.029
44.234,-0.648,0.770,0.031
44.244,-0.648,0.770,0.033
44.253,-0.650,0.768,0.029
44.263,-0.650,0.768,0.029
44.273,-0.648,0.768,0.033
44.283,-0.648,0.764,0.029
44.293,-0.650,0.766,0.029
44.303,-0.650,0.768,0.029
44.313,-0.648,0.766,0.029
44.323,-0.650,0.764,0.031
44.333,-0.650,0.766,0.031
44.343,-0.648,0.766,0.031
44.353,-0.648,0.770,0.029
44.363,-0.645,0.766,0.031
44.373,-0.646,0.770,0.031
44.382,-0.648,0.770,0.031
44.392,-0.648,0.771,0.031
44.402,-0.648,0.768,0.031
44.412,-0.652,0.766,0.033
44.422,-0.654,0.766,0.031
44.432,-0.650,0.764,0.033
44.442,-0.652,0.770,0.031
44.452,-0.648,0.768,0.031
44.462,-0.650,0.766,0.033
44.472,-0.646,0.766,0.033
44.482,-0.646,0.762,0.031
44.492,-0.650,0.766,0.031
44.502,-0.650,0.771,0.033
44.511,-0.650,0.768,0.031
44.521,-0.648,0.770,0.033
44.531,-0.646,0.768,0.033
44.541,-0.645,0.766,0.033
44.551,-0.648,0.768,0.035
44.561,-0.645,0.768,0.035
44.571,-0.648,0.770,0.033
44.581,-0.646,0.768,0.037
44.591,-0.648,0.768,0.037
44.601,-0.648,0.768,0.031
44.611,-0.650,0.766,0.039
44.621,-0.648,0.766,0.033
44.631,-0.648,0.768,0.031
44.640,-0.648,0.764,0.031
44.650,-0.650,0.766,0.033
44.660,-0.650,0.766,0.033
44.670,-0.650,0.768,0.033
44.680,-0.650,0.766,0.033
44.690,-0.648,0.766,0.033
44.700,-0.646,0.770,0.035
44.710,-0.650,0.768,0.033
44.720,-0.646,0.770,0.033
44.730,-0.645,0.773,0.035
44.740,-0.646,0.771,0.035
44.750,-0.650,0.770,0.033
44.760,-0.646,0.770,0.033
44.769,-0.648,0.770,0.031
44.779,-0.646,0.768,0.033
44.789,-0.643,0.764,0.033
44.799,-0.645,0.768,0.033
44.809,-0.643,0.770,0.033
44.819,-0.645,0.768,0.033
44.829,-0.645,0.770,0.035
44.839,-0.646,0.770,0.035
44.849,-0.646,0.773,0.035
44.859,-0.646,0.770,0.035
44.869,-0.643,0.771,0.035
44.879,-0.641,0.771,0.035
44.889,-0.641,0.771,0.035
44.898,-0.643,0.773,0.037
44.908,-0.643,0.775,0.037
44.918,-0.643,0.775,0.037
44.928,-0.641,0.770,0.037
44.938,-0.645,0.775,0.037
44.948,-0.643,0.771,0.037
44.958,-0.643,0.771,0.035
44.968,-0.645,0.770,0.037
44.978,-0.645,0.773,0.031
44.988,-0.646,0.770,0.037
44.998,-0.646,0.770,0.039
45.008,-0.645,0.771,0.037
45.018,-0.645,0.768,0.037
45.027,-0.643,0.771,0.037
45.037,-0.641,0.771,0.037
45.047,-0.643,0.771,0.035
45.057,-0.643,0.770,0.041
45.067,-0.643,0.770,0.037
45.077,-0.645,0.771,0.039
45.087,-0.641,0.771,0.037
45.097,-0.643,0.773,0.039
45.107,-0.645,0.773,0.033
45.117,-0.645,0.775,0.035
45.127,-0.645,0.771,0.037
45.137,-0.641,0.775,0.039
45.147,-0.641,0.771,0.035
45.156,-0.639,0.771,0.035
45.166,-0.641,0.771,0.037
45.176,-0.641,0.773,0.035
45.186,-0.639,0.773,0.037
45.196,-0.645,0.773,0.037
45.206,-0.639,0.771,0.037
45.216,-0.643,0.775,0.039
45.226,-0.641,0.775,0.039
45.236,-0.641,0.773,0.041
45.246,-0.641,0.771,0.039
45.256,-0.639,0.770,0.037
45.266,-0.643,0.771,0.037
45.276,-0.643,0.771,0.037
45.285,-0.643,0.773,0.039
45.295,-0.643,0.773,0.039
45.305,-0.645,0.777,0.037
45.315,-0.641,0.773,0.041
45.325,-0.643,0.779,0.039
45.335,-0.643,0.773,0.041
45.345,-0.639,0.770,0.035
45.355,-0.641,0.768,0.037
45.365,-0.635,0.771,0.041
45.375,-0.639,0.773,0.039
45.385,-0.639,0.773,0.037
45.395,-0.639,0.773,0.041
45.405,-0.639,0.775,0.041
45.414,-0.639,0.777,0.039
45.424,-0.643,0.773,0.041
45.434,-0.643,0.775,0.039
45.444,-0.643,0.775,0.039
45.454,-0.641,0.775,0.037
45.464,-0.639,0.775,0.039
45.474,-0.637,0.773,0.037
45.484,-0.639,0.773,0.039
45.494,-0.637,0.775,0.041
45.504,-0.639,0.775,0.041
45.514,-0.635,0.773,0.041
45.524,-0.639,0.775,0.043
45.534,-0.635,0.775,0.039
45.543,-0.635,0.773,0.041
45.553,-0.639,0.775,0.039
45.563,-0.639,0.771,0.037
45.573,-0.643,0.773,0.035
45.583,-0.639,0.773,0.039
45.593,-0.645,0.771,0.039
45.603,-0.643,0.771,0.039
45.613,-0.645,0.775,0.039
45.623,-0.643,0.775,0.041
45.633,-0.643,0.773,0.039
45.643,-0.639,0.773,0.037
45.653,-0.641,0.773,0.037
45.663,-0.641,0.771,0.035
45.672,-0.641,0.770,0.041
45.682,-0.645,0.771,0.039
45.692,-0.641,0.770,0.039
45.702,-0.643,0.773,0.039
45.712,-0.643,0.775,0.037
45.722,-0.639,0.770,0.043
45.732,-0.641,0.771,0.041
45.742,-0.643,0.773,0.041
45.752,-0.641,0.773,0.041
45.762,-0.643,0.771,0.039
45.772,-0.639,0.770,0.039
45.782,-0.641,0.773,0.043
45.792,-0.641,0.773,0.039
45.801,-0.639,0.773,0.043
45.811,-0.643,0.775,0.043
45.821,-0.643,0.773,0.037
45.831,-0.639,0.773,0.043
45.841,-0.641,0.770,0.041
45.851,-0.643,0.771,0.037
45.861,-0.643,0.771,0.039
45.871,-0.643,0.771,0.039
45.881,-0.643,0.775,0.041
45.891,-0.641,0.773,0.039
45.901,-0.643,0.773,0.043
45.911,-0.639,0.775,0.041
45.921,-0.639,0.773,0.041
45.930,-0.635,0.775,0.041
45.940,-0.635,0.775,0.041
45.950,-0.637,0.777,0.043
45.960,-0.639,0.775,0.041
45.970,-0.637,0.775,0.039
45.980,-0.637,0.773,0.039
45.990,-0.641,0.773,0.041
46.000,-0.645,0.773,0.041
46.010,-0.641,0.777,0.041
46.020,-0.641,0.773,0.041
46.030,-0.643,0.775,0.037
46.040,-0.641,0.771,0.043
46.050,-0.637,0.770,0.039
46.060,-0.639,0.775,0.041
46.069,-0.641,0.768,0.039
46.079,-0.641,0.771,0.043
46.089,-0.641,0.771,0.041
46.099,-0.643,0.773,0.041
46.109,-0.643,0.771,0.043
46.119,-0.641,0.775,0.039
46.129,-0.639,0.775,0.041
46.139,-0.643,0.771,0.039
46.149,-0.645,0.771,0.039
46.159,-0.643,0.771,0.039
46.169,-0.637,0.771,0.041
46.179,-0.641,0.771,0.039
46.189,-0.645,0.773,0.041
46.198,-0.643,0.770,0.039
46.208,-0.645,0.771,0.037
46.218,-0.643,0.775,0.041
46.228,-0.645,0.779,0.041
46.238,-0.643,0.773,0.041
46.248,-0.639,0.770,0.041
46.258,-0.639,0.770,0.039
46.268,-0.639,0.770,0.039
46.278,-0.641,0.773,0.041
46.288,-0.639,0.775,0.039
46.298,-0.639,0.775,0.043
46.308,-0.641,0.773,0.041
46.318,-0.639,0.775,0.043
46.327,-0.641,0.775,0.041
46.337,-0.639,0.773,0.039
46.347,-0.639,0.777,0.039
46.357,-0.641,0.771,0.043
46.367,-0.639,0.773,0.039
46.377,-0.641,0.775,0.037
46.387,-0.639,0.773,0.041
46.397,-0.639,0.773,0.041
46.407,-0.637,0.773,0.039
46.417,-0.639,0.773,0.039
46.427,-0.637,0.773,0.037
46.437,-0.639,0.773,0.031
46.447,-0.637,0.779,0.033
46.456,-0.639,0.777,0.033
46.466,-0.639,0.779,0.031
46.476,-0.635,0.781,0.033
46.486,-0.633,0.777,0.031
46.496,-0.637,0.777,0.031
46.506,-0.637,0.775,0.033
46.516,-0.639,0.777,0.029
46.526,-0.641,0.777,0.033
46.536,-0.639,0.775,0.033
46.546,-0.641,0.779,0.039
46.556,-0.643,0.777,0.037
46.566,-0.645,0.777,0.041
46.576,-0.646,0.775,0.039
46.585,-0.643,0.771,0.041
46.595,-0.643,0.771,0.039
46.605,-0.645,0.771,0.041
46.615,-0.643,0.770,0.043
46.625,-0.643,0.773,0.043
46.635,-0.643,0.773,0.043
46.645,-0.637,0.771,0.041
46.655,-0.641,0.773,0.045
46.665,-0.641,0.775,0.045
46.675,-0.641,0.773,0.047
46.685,-0.637,0.775,0.043
46.695,-0.637,0.770,0.047
46.705,-0.639,0.771,0.047
46.714,-0.639,0.771,0.045
46.724,-0.641,0.770,0.047
46.734,-0.639,0.773,0.047
46.744,-0.641,0.775,0.047
46.754,-0.641,0.771,0.049
46.764,-0.639,0.771,0.047
46.774,-0.641,0.773,0.049
46.784,-0.639,0.771,0.049
46.794,-0.641,0.773,0.049
46.804,-0.639,0.773,0.051
46.814,-0.641,0.773,0.049
46.824,-0.637,0.773,0.051
46.834,-0.637,0.770,0.051
46.843,-0.635,0.771,0.045
46.853,-0.635,0.775,0.051
46.863,-0.637,0.779,0.047
46.873,-0.637,0.777,0.051
46.883,-0.635,0.773,0.049
46.893,-0.639,0.777,0.049
46.903,-0.639,0.777,0.055
46.913,-0.641,0.781,0.051
46.923,-0.639,0.777,0.053
46.933,-0.637,0.777,0.049
46.943,-0.635,0.771,0.053
46.953,-0.637,0.773,0.053
46.963,-0.633,0.770,0.051
46.972,-0.635,0.771,0.055
46.982,-0.637,0.775,0.051
46.992,-0.633,0.773,0.053
47.002,-0.637,0.773,0.055
47.012,-0.641,0.771,0.053
47.022,-0.639,0.777,0.053
47.032,-0.635,0.777,0.055
47.042,-0.639,0.777,0.051
47.052,-0.639,0.775,0.051
47.062,-0.639,0.771,0.053
47.072,-0.637,0.773,0.051
47.082,-0.635,0.775,0.051
47.092,-0.637,0.775,0.051
47.101,-0.641,0.775,0.049
47.111,-0.637,0.775,0.051
47.121,-0.635,0.779,0.051
47.131,-0.637,0.779,0.051
47.141,-0.635,0.777,0.049
47.151,-0.629,0.775,0.049
47.161,-0.629,0.773,0.049
47.171,-0.629,0.777,0.047
47.181,-0.635,0.777,0.049
47.191,-0.633,0.779,0.047
47.201,-0.635,0.777,0.047
47.211,-0.631,0.777,0.051
47.221,-0.635,0.779,0.051
47.230,-0.633,0.781,0.049
47.240,-0.633,0.781,0.049
47.250,-0.637,0.781,0.049
47.260,-0.639,0.779,0.049
47.270,-0.637,0.775,0.045
47.280,-0.637,0.775,0.045
47.290,-0.637,0.773,0.049
47.300,-0.637,0.775,0.049
47.310,-0.637,0.777,0.049
47.320,-0.637,0.779,0.047
47.330,-0.637,0.777,0.047
47.340,-0.637,0.773,0.043
47.350,-0.637,0.777,0.045
47.359,-0.637,0.775,0.043
47.369,-0.637,0.775,0.045
47.379,-0.637,0.775,0.047
47.389,-0.639,0.775,0.047
47.399,-0.639,0.777,0.045
47.409,-0.635,0.779,0.045
47.419,-0.635,0.779,0.047
47.429,-0.635,0.781,0.045
47.439,-0.633,0.781,0.047
47.449,-0.633,0.783,0.043
47.459,-0.635,0.775,0.045
47.469,-0.635,0.777,0.045
47.479,-0.631,0.779,0.047
47.488,-0.635,0.779,0.047
47.498,-0.635,0.779,0.049
47.508,-0.633,0.779,0.047
47.518,-0.637,0.779,0.047
47.528,-0.637,0.777,0.047
47.538,-0.635,0.775,0.045
47.548,-0.635,0.779,0.047
47.558,-0.635,0.777,0.051
47.568,-0.637,0.775,0.049
47.578,-0.637,0.775,0.049
47.588,-0.635,0.775,0.045
47.598,-0.635,0.775,0.051
47.608,-0.637,0.775,0.049
47.617,-0.637,0.777,0.051
47.627,-0.639,0.777,0.049
47.637,-0.637,0.775,0.051
47.647,-0.635,0.777,0.051
47.657,-0.637,0.779,0.049
47.667,-0.633,0.779,0.049
47.677,-0.637,0.775,0.051
47.687,-0.637,0.775,0.047
47.697,-0.637,0.781,0.049
47.707,-0.635,0.777,0.049
47.717,-0.631,0.775,0.053
47.727,-0.631,0.779,0.051
47.737,-0.633,0.777,0.051
47.746,-0.633,0.779,0.049
47.756,-0.633,0.779,0.051
47.766,-0.635,0.773,0.051
47.776,-0.633,0.777,0.051
47.786,-0.635,0.779,0.049
47.796,-0.637,0.777,0.051
47.806,-0.637,0.781,0.051
47.816,-0.635,0.779,0.047
47.826,-0.637,0.779,0.049
47.836,-0.635,0.775,0.051
47.846,-0.635,0.771,0.049
47.856,-0.637,0.773,0.045
47.866,-0.639,0.773,0.051
47.875,-0.639,0.773,0.049
47.885,-0.635,0.773,0.051
47.895,-0.637,0.775,0.047
47.905,-0.639,0.777,0.045
47.915,-0.637,0.777,0.049
47.925,-0.637,0.775,0.049
47.935,-0.639,0.775,0.045
47.945,-0.639,0.777,0.051
47.955,-0.639,0.773,0.045
47.965,-0.639,0.771,0.045
47.975,-0.641,0.775,0.049
47.985,-0.641,0.775,0.047
47.995,-0.641,0.775,0.047
48.004,-0.635,0.777,0.053
48.014,-0.637,0.781,0.049
48.024,-0.639,0.777,0.049
48.034,-0.637,0.771,0.045
48.044,-0.637,0.773,0.047
48.054,-0.637,0.773,0.045
48.064,-0.635,0.775,0.047
48.074,-0.633,0.777,0.047
48.084,-0.635,0.779,0.049
48.094,-0.637,0.779,0.049
48.104,-0.635,0.777,0.047
48.114,-0.635,0.775,0.049
48.124,-0.637,0.775,0.049
48.133,-0.639,0.777,0.045
48.143,-0.639,0.777,0.047
48.153,-0.641,0.773,0.045
48.163,-0.635,0.775,0.049
48.173,-0.635,0.779,0.047
48.183,-0.637,0.777,0.045
48.193,-0.637,0.775,0.049
48.203,-0.637,0.777,0.049
48.213,-0.635,0.775,0.041
48.223,-0.637,0.775,0.045
48.233,-0.637,0.775,0.045
48.243,-0.641,0.775,0.043
48.253,-0.639,0.775,0.045
48.262,-0.637,0.775,0.043
48.272,-0.637,0.775,0.047
48.282,-0.637,0.777,0.045
48.292,-0.637,0.773,0.047
48.302,-0.639,0.777,0.047
48.312,-0.637,0.777,0.047
48.322,-0.635,0.777,0.045
48.332,-0.637,0.779,0.051
48.342,-0.637,0.777,0.041
48.352,-0.639,0.779,0.043
48.362,-0.637,0.777,0.045
48.372,-0.637,0.777,0.045
48.382,-0.637,0.779,0.045
48.391,-0.635,0.779,0.045
48.401,-0.637,0.775,0.045
48.411,-0.637,0.777,0.047
48.421,-0.641,0.777,0.047
48.431,-0.637,0.775,0.049
48.441,-0.635,0.775,0.047
48.451,-0.635,0.777,0.051
48.461,-0.637,0.773,0.051
48.471,-0.639,0.779,0.049
48.481,-0.639,0.775,0.051
48.491,-0.639,0.775,0.053
48.501,-0.639,0.775,0.051
48.511,-0.639,0.775,0.051
48.520,-0.635,0.773,0.049
48.530,-0.637,0.771,0.051
48.540,-0.637,0.773,0.053
48.550,-0.635,0.771,0.047
48.560,-0.635,0.775,0.051
48.570,-0.635,0.777,0.049
48.580,-0.633,0.777,0.051
48.590,-0.635,0.773,0.049
48.600,-0.631,0.771,0.049
48.610,-0.637,0.775,0.051
48.620,-0.635,0.783,0.047
48.630,-0.637,0.781,0.045
48.640,-0.637,0.777,0.047
48.649,-0.635,0.777,0.051
48.659,-0.635,0.783,0.051
48.669,-0.635,0.779,0.047
48.679,-0.635,0.783,0.051
48.689,-0.637,0.777,0.049
48.699,-0.635,0.775,0.049
48.709,-0.635,0.775,0.051
48.719,-0.635,0.773,0.049
48.729,-0.635,0.773,0.049
48.739,-0.637,0.770,0.051
48.749,-0.635,0.770,0.053
48.759,-0.641,0.773,0.051
48.769,-0.639,0.775,0.049
48.779,-0.641,0.771,0.047
48.788,-0.641,0.775,0.049
48.798,-0.641,0.773,0.049
48.808,-0.641,0.779,0.049
48.818,-0.641,0.773,0.049
48.828,-0.639,0.775,0.049
48.838,-0.639,0.777,0.047
48.848,-0.639,0.777,0.049
48.858,-0.635,0.777,0.051
48.868,-0.633,0.781,0.053
48.878,-0.635,0.781,0.049
48.888,-0.633,0.779,0.049
48.898,-0.631,0.775,0.047
48.908,-0.631,0.777,0.045
48.917,-0.631,0.779,0.047
48.927,-0.635,0.779,0.051
48.937,-0.633,0.781,0.051
48.947,-0.633,0.783,0.049
48.957,-0.637,0.779,0.049
48.967,-0.635,0.777,0.049
48.977,-0.637,0.779,0.047
48.987,-0.635,0.775,0.049
48.997,-0.639,0.775,0.047
49.007,-0.635,0.775,0.051
49.017,-0.635,0.775,0.053
49.027,-0.631,0.777,0.051
49.037,-0.635,0.779,0.047
49.046,-0.633,0.773,0.047
49.056,-0.631,0.775,0.047
49.066,-0.635,0.775,0.049
49.076,-0.635,0.775,0.047
49.086,-0.635,0.773,0.049
49.096,-0.637,0.775,0.049
49.106,-0.635,0.775,0.047
49.116,-0.637,0.775,0.049
49.126,-0.637,0.777,0.045
49.136,-0.635,0.777,0.047
49.146,-0.639,0.775,0.045
49.156,-0.635,0.779,0.045
49.166,-0.637,0.775,0.047
49.175,-0.637,0.777,0.045
49.185,-0.635,0.779,0.049
49.195,-0.635,0.781,0.047
49.205,-0.635,0.781,0.049
49.215,-0.639,0.781,0.049
49.225,-0.633,0.777,0.047
49.235,-0.635,0.779,0.049
49.245,-0.631,0.779,0.049
49.255,-0.635,0.777,0.045
49.265,-0.633,0.773,0.051
49.275,-0.631,0.779,0.047
49.285,-0.631,0.779,0.049
49.295,-0.633,0.777,0.047
49.304,-0.629,0.777,0.049
49.314,-0.635,0.779,0.053
49.324,-0.637,0.781,0.049
49.334,-0.633,0.779,0.049
49.344,-0.635,0.781,0.047
49.354,-0.633,0.779,0.047
49.364,-0.635,0.775,0.047
49.374,-0.633,0.779,0.045
49.384,-0.635,0.781,0.047
49.394,-0.633,0.779,0.051
49.404,-0.635,0.781,0.049
49.414,-0.629,0.779,0.051
49.424,-0.635,0.779,0.049
49.433,-0.629,0.779,0.049
49.443,-0.629,0.777,0.049
49.453,-0.629,0.777,0.049
49.463,-0.629,0.777,0.051
49.473,-0.629,0.783,0.049
49.483,-0.631,0.781,0.051
49.493,-0.633,0.781,0.049
49.503,-0.635,0.779,0.051
49.513,-0.637,0.781,0.049
49.523,-0.635,0.781,0.051
49.533,-0.635,0.777,0.049
49.543,-0.635,0.779,0.049
49.553,-0.631,0.777,0.049
49.562,-0.629,0.775,0.049
49.572,-0.627,0.775,0.051
49.582,-0.627,0.777,0.053
49.592,-0.631,0.777,0.049
49.602,-0.631,0.777,0.051
49.612,-0.631,0.781,0.051
49.622,-0.631,0.777,0.051
49.632,-0.635,0.777,0.051
49.642,-0.635,0.777,0.051
49.652,-0.641,0.771,0.049
49.662,-0.641,0.771,0.051
49.672,-0.639,0.773,0.047
49.682,-0.637,0.770,0.045
49.691,-0.635,0.775,0.051
49.701,-0.635,0.775,0.049
49.711,-0.635,0.777,0.051
49.721,-0.633,0.777,0.049
49.731,-0.633,0.785,0.053
49.741,-0.637,0.785,0.051
49.751,-0.637,0.777,0.051
49.761,-0.633,0.771,0.051
49.771,-0.635,0.773,0.051
49.781,-0.633,0.771,0.047
49.791,-0.637,0.777,0.047
49.801,-0.633,0.777,0.049
49.811,-0.633,0.781,0.049
49.820,-0.633,0.781,0.047
49.830,-0.635,0.779,0.051
49.840,-0.631,0.779,0.047
49.850,-0.635,0.783,0.045
49.860,-0.633,0.785,0.047
49.870,-0.633,0.779,0.045
49.880,-0.637,0.779,0.047
49.890,-0.639,0.781,0.049
49.900,-0.637,0.779,0.045
49.910,-0.635,0.779,0.045
49.920,-0.637,0.775,0.045
49.930,-0.635,0.775,0.047
49.940,-0.633,0.775,0.045
49.949,-0.635,0.775,0.045
49.959,-0.631,0.773,0.041
49.969,-0.631,0.779,0.049
49.979,-0.633,0.777,0.043
49.989,-0.633,0.785,0.043
49.999,-0.633,0.781,0.041
50.009,-0.637,0.777,0.045
50.019,-0.637,0.777,0.041
50.029,-0.633,0.775,0.041
50.039,-0.631,0.775,0.039
50.049,-0.629,0.775,0.043
50.059,-0.625,0.773,0.043
50.069,-0.631,0.773,0.043
50.078,-0.637,0.773,0.043
50.088,-0.637,0.771,0.047
50.098,-0.639,0.773,0.043
50.108,-0.641,0.773,0.047
50.118,-0.635,0.775,0.045
50.128,-0.635,0.775,0.049
50.138,-0.633,0.781,0.047
50.148,-0.629,0.783,0.047
50.158,-0.637,0.781,0.045
50.168,-0.635,0.781,0.041
50.178,-0.637,0.783,0.041
50.188,-0.635,0.783,0.043
50.198,-0.633,0.783,0.041
50.207,-0.631,0.783,0.045
50.217,-0.633,0.785,0.039
50.227,-0.633,0.787,0.037
50.237,-0.629,0.783,0.043
50.247,-0.631,0.785,0.039
50.257,-0.629,0.785,0.039
50.267,-0.627,0.783,0.035
50.277,-0.619,0.783,0.039
50.287,-0.617,0.787,0.039
50.297,-0.617,0.789,0.035
50.307,-0.609,0.787,0.035
50.317,-0.609,0.789,0.031
50.327,-0.604,0.793,0.031
