df_hash,22ZHK4.S3ZK9C
device,HZ2X61
project_hash,29R7
project_name,istanbul_aydin_university
person_hash,29R7.1ELE
person_label,V34
date_time_start,2025-10-14_16-34-28.479000_+03
date_time_start_unix,1760441668.479
date_time_end,2025-10-14_16-49-33.625000_+03
length_difference_noticed,no

time,acc_x,acc_y,acc_z
4.633,-0.131,-0.256,-0.926
4.643,-0.131,-0.254,-0.924
4.653,-0.131,-0.254,-0.926
4.663,-0.129,-0.252,-0.922
4.673,-0.129,-0.252,-0.924
4.683,-0.129,-0.254,-0.918
4.693,-0.129,-0.254,-0.924
4.703,-0.131,-0.254,-0.922
4.713,-0.127,-0.250,-0.922
4.723,-0.131,-0.254,-0.922
4.733,-0.131,-0.252,-0.924
4.743,-0.131,-0.252,-0.924
4.753,-0.129,-0.252,-0.920
4.763,-0.133,-0.256,-0.924
4.773,-0.129,-0.254,-0.924
4.783,-0.127,-0.252,-0.926
4.793,-0.129,-0.256,-0.928
4.803,-0.127,-0.254,-0.924
4.813,-0.127,-0.252,-0.924
4.823,-0.129,-0.252,-0.924
4.833,-0.133,-0.252,-0.926
4.843,-0.131,-0.252,-0.924
4.853,-0.129,-0.252,-0.918
4.863,-0.127,-0.256,-0.924
4.873,-0.129,-0.254,-0.922
4.883,-0.125,-0.256,-0.926
4.893,-0.127,-0.252,-0.924
4.903,-0.129,-0.250,-0.924
4.913,-0.129,-0.254,-0.922
4.923,-0.129,-0.254,-0.922
4.933,-0.129,-0.254,-0.926
4.943,-0.131,-0.252,-0.926
4.953,-0.129,-0.252,-0.922
4.963,-0.129,-0.252,-0.922
4.973,-0.129,-0.252,-0.924
4.983,-0.129,-0.252,-0.920
4.993,-0.131,-0.252,-0.922
5.003,-0.131,-0.254,-0.922
5.013,-0.129,-0.252,-0.928
5.023,-0.129,-0.254,-0.926
5.033,-0.127,-0.252,-0.922
5.043,-0.131,-0.252,-0.926
5.053,-0.129,-0.250,-0.926
5.063,-0.131,-0.252,-0.926
5.073,-0.129,-0.256,-0.922
5.083,-0.129,-0.252,-0.922
5.093,-0.133,-0.254,-0.920
5.103,-0.127,-0.252,-0.924
5.113,-0.127,-0.256,-0.926
5.123,-0.123,-0.254,-0.924
5.133,-0.129,-0.252,-0.926
5.143,-0.129,-0.252,-0.926
5.153,-0.131,-0.250,-0.928
5.163,-0.133,-0.250,-0.924
5.173,-0.135,-0.252,-0.924
5.183,-0.129,-0.252,-0.922
5.193,-0.127,-0.254,-0.924
5.203,-0.125,-0.254,-0.924
5.213,-0.123,-0.254,-0.924
5.223,-0.129,-0.254,-0.926
5.233,-0.131,-0.254,-0.924
5.243,-0.135,-0.250,-0.928
5.253,-0.133,-0.250,-0.922
5.263,-0.129,-0.250,-0.920
5.273,-0.127,-0.252,-0.924
5.283,-0.125,-0.254,-0.922
5.293,-0.123,-0.254,-0.924
5.303,-0.127,-0.254,-0.928
5.313,-0.125,-0.254,-0.922
5.323,-0.127,-0.252,-0.924
5.333,-0.125,-0.252,-0.924
5.343,-0.131,-0.252,-0.922
5.353,-0.131,-0.254,-0.926
5.363,-0.133,-0.254,-0.924
5.373,-0.131,-0.252,-0.926
5.383,-0.127,-0.254,-0.924
5.393,-0.127,-0.256,-0.924
5.403,-0.129,-0.252,-0.922
5.413,-0.125,-0.252,-0.924
5.423,-0.131,-0.258,-0.922
5.433,-0.131,-0.252,-0.922
5.443,-0.133,-0.252,-0.928
5.453,-0.133,-0.252,-0.924
5.463,-0.125,-0.252,-0.922
5.473,-0.127,-0.250,-0.922
5.483,-0.127,-0.252,-0.918
5.493,-0.127,-0.252,-0.922
5.503,-0.127,-0.254,-0.926
5.513,-0.129,-0.256,-0.922
5.523,-0.127,-0.252,-0.922
5.533,-0.129,-0.250,-0.924
5.543,-0.129,-0.250,-0.924
5.553,-0.133,-0.250,-0.924
5.563,-0.131,-0.254,-0.922
5.573,-0.129,-0.250,-0.926
5.583,-0.127,-0.252,-0.924
5.593,-0.129,-0.254,-0.924
5.603,-0.127,-0.254,-0.924
5.613,-0.127,-0.252,-0.924
5.623,-0.131,-0.252,-0.922
5.633,-0.129,-0.254,-0.922
5.643,-0.127,-0.254,-0.924
5.653,-0.131,-0.252,-0.926
5.663,-0.133,-0.252,-0.924
5.673,-0.127,-0.254,-0.926
5.683,-0.125,-0.254,-0.924
5.693,-0.129,-0.252,-0.920
5.703,-0.129,-0.254,-0.924
5.713,-0.127,-0.254,-0.926
5.723,-0.129,-0.254,-0.926
5.733,-0.129,-0.250,-0.926
5.743,-0.129,-0.250,-0.924
5.753,-0.129,-0.250,-0.924
5.763,-0.131,-0.252,-0.922
5.773,-0.127,-0.254,-0.926
5.783,-0.125,-0.254,-0.926
5.793,-0.127,-0.252,-0.924
5.803,-0.127,-0.252,-0.926
5.813,-0.125,-0.252,-0.926
5.823,-0.129,-0.252,-0.922
5.833,-0.131,-0.250,-0.924
5.843,-0.131,-0.254,-0.924
5.853,-0.129,-0.254,-0.926
5.863,-0.131,-0.254,-0.924
5.873,-0.127,-0.252,-0.924
5.883,-0.127,-0.252,-0.922
5.893,-0.127,-0.252,-0.922
5.903,-0.129,-0.252,-0.922
5.913,-0.131,-0.252,-0.928
5.923,-0.127,-0.252,-0.920
5.933,-0.129,-0.252,-0.926
5.943,-0.129,-0.252,-0.924
5.953,-0.129,-0.250,-0.928
5.963,-0.129,-0.248,-0.928
5.973,-0.131,-0.252,-0.922
5.983,-0.131,-0.252,-0.924
5.993,-0.129,-0.256,-0.926
6.003,-0.127,-0.256,-0.924
6.013,-0.127,-0.252,-0.926
6.023,-0.127,-0.252,-0.924
6.033,-0.127,-0.250,-0.928
6.043,-0.125,-0.252,-0.922
6.053,-0.131,-0.252,-0.922
6.063,-0.133,-0.250,-0.922
6.073,-0.129,-0.250,-0.926
6.083,-0.131,-0.252,-0.926
6.093,-0.127,-0.250,-0.924
6.103,-0.129,-0.252,-0.920
6.113,-0.125,-0.250,-0.922
6.123,-0.129,-0.252,-0.928
6.133,-0.125,-0.252,-0.926
6.143,-0.131,-0.252,-0.926
6.153,-0.131,-0.250,-0.926
6.163,-0.129,-0.252,-0.926
6.173,-0.131,-0.248,-0.922
6.183,-0.129,-0.250,-0.922
6.193,-0.131,-0.254,-0.924
6.203,-0.127,-0.252,-0.922
6.213,-0.129,-0.250,-0.922
6.223,-0.127,-0.250,-0.924
6.233,-0.125,-0.252,-0.924
6.243,-0.127,-0.252,-0.926
6.253,-0.127,-0.248,-0.924
6.263,-0.129,-0.248,-0.924
6.273,-0.129,-0.252,-0.924
6.283,-0.129,-0.250,-0.924
6.293,-0.127,-0.252,-0.922
6.303,-0.127,-0.252,-0.922
6.313,-0.127,-0.252,-0.922
6.323,-0.125,-0.252,-0.926
6.333,-0.127,-0.250,-0.926
6.343,-0.131,-0.250,-0.924
6.353,-0.133,-0.250,-0.922
6.363,-0.129,-0.256,-0.924
6.373,-0.131,-0.254,-0.926
6.383,-0.125,-0.252,-0.920
6.393,-0.127,-0.252,-0.922
6.403,-0.125,-0.254,-0.924
6.413,-0.129,-0.252,-0.922
6.423,-0.127,-0.250,-0.922
6.433,-0.129,-0.250,-0.926
6.443,-0.131,-0.250,-0.922
6.453,-0.129,-0.252,-0.928
6.463,-0.129,-0.250,-0.924
6.473,-0.129,-0.254,-0.926
6.483,-0.129,-0.252,-0.924
6.493,-0.127,-0.252,-0.926
6.503,-0.127,-0.252,-0.924
6.513,-0.129,-0.254,-0.924
6.523,-0.129,-0.250,-0.924
6.533,-0.129,-0.250,-0.924
6.543,-0.129,-0.252,-0.926
6.553,-0.131,-0.250,-0.922
6.563,-0.129,-0.250,-0.924
6.573,-0.129,-0.252,-0.926
6.583,-0.129,-0.254,-0.926
6.593,-0.127,-0.254,-0.926
6.603,-0.131,-0.252,-0.926
6.613,-0.127,-0.250,-0.928
6.623,-0.127,-0.252,-0.924
6.633,-0.129,-0.252,-0.924
6.643,-0.131,-0.252,-0.924
6.653,-0.129,-0.256,-0.926
6.663,-0.127,-0.252,-0.924
6.673,-0.127,-0.250,-0.924
6.683,-0.129,-0.254,-0.924
6.693,-0.129,-0.250,-0.924
6.703,-0.129,-0.252,-0.922
6.713,-0.127,-0.250,-0.926
6.723,-0.129,-0.252,-0.922
6.733,-0.129,-0.252,-0.924
6.743,-0.129,-0.254,-0.926
6.753,-0.131,-0.252,-0.922
6.763,-0.127,-0.252,-0.924
6.773,-0.127,-0.250,-0.924
6.783,-0.129,-0.254,-0.922
6.793,-0.127,-0.250,-0.922
6.803,-0.131,-0.250,-0.924
6.813,-0.127,-0.252,-0.920
6.823,-0.129,-0.252,-0.926
6.833,-0.131,-0.252,-0.922
6.843,-0.129,-0.250,-0.922
6.853,-0.127,-0.250,-0.922
6.863,-0.127,-0.252,-0.922
6.873,-0.127,-0.254,-0.924
6.883,-0.127,-0.248,-0.926
6.893,-0.127,-0.252,-0.926
6.903,-0.127,-0.252,-0.926
6.913,-0.127,-0.252,-0.928
6.923,-0.129,-0.248,-0.922
6.933,-0.127,-0.250,-0.926
6.943,-0.127,-0.252,-0.924
6.953,-0.127,-0.252,-0.926
6.963,-0.127,-0.252,-0.922
6.973,-0.127,-0.252,-0.924
6.983,-0.125,-0.252,-0.922
6.993,-0.127,-0.252,-0.922
7.003,-0.125,-0.250,-0.922
7.013,-0.129,-0.250,-0.926
7.023,-0.127,-0.252,-0.922
7.033,-0.129,-0.252,-0.922
7.043,-0.125,-0.250,-0.926
7.053,-0.129,-0.252,-0.926
7.063,-0.127,-0.250,-0.924
7.073,-0.129,-0.250,-0.924
7.083,-0.127,-0.252,-0.926
7.093,-0.129,-0.252,-0.924
7.103,-0.127,-0.254,-0.924
7.113,-0.127,-0.248,-0.924
7.123,-0.129,-0.250,-0.926
7.133,-0.127,-0.250,-0.924
7.143,-0.129,-0.250,-0.924
7.153,-0.127,-0.250,-0.922
7.163,-0.127,-0.250,-0.922
7.173,-0.125,-0.248,-0.922
7.183,-0.129,-0.252,-0.928
7.193,-0.127,-0.252,-0.924
7.203,-0.129,-0.250,-0.926
7.213,-0.129,-0.250,-0.924
7.223,-0.127,-0.250,-0.926
7.233,-0.131,-0.254,-0.924
7.243,-0.127,-0.252,-0.920
7.253,-0.127,-0.250,-0.922
7.263,-0.129,-0.250,-0.926
7.273,-0.129,-0.254,-0.924
7.283,-0.129,-0.250,-0.924
7.293,-0.131,-0.250,-0.926
7.303,-0.129,-0.252,-0.926
7.313,-0.131,-0.250,-0.924
7.323,-0.131,-0.250,-0.924
7.333,-0.127,-0.248,-0.924
7.343,-0.129,-0.250,-0.922
7.353,-0.129,-0.250,-0.926
7.363,-0.125,-0.252,-0.926
7.373,-0.127,-0.252,-0.922
7.383,-0.127,-0.250,-0.924
7.393,-0.127,-0.252,-0.924
7.403,-0.127,-0.252,-0.922
7.413,-0.129,-0.250,-0.922
7.423,-0.129,-0.252,-0.924
7.433,-0.127,-0.252,-0.922
7.443,-0.129,-0.250,-0.922
7.453,-0.127,-0.250,-0.924
7.463,-0.129,-0.250,-0.924
7.473,-0.127,-0.254,-0.924
7.483,-0.127,-0.252,-0.924
7.493,-0.127,-0.254,-0.924
7.503,-0.129,-0.252,-0.922
7.513,-0.125,-0.250,-0.920
7.523,-0.127,-0.250,-0.924
7.533,-0.127,-0.250,-0.924
7.543,-0.127,-0.250,-0.924
7.553,-0.129,-0.248,-0.924
7.563,-0.129,-0.252,-0.926
7.573,-0.129,-0.250,-0.922
7.583,-0.129,-0.250,-0.926
7.593,-0.127,-0.250,-0.924
7.603,-0.129,-0.250,-0.924
7.613,-0.127,-0.250,-0.928
7.623,-0.127,-0.250,-0.928
7.633,-0.129,-0.250,-0.926
7.643,-0.127,-0.248,-0.926
7.653,-0.129,-0.250,-0.924
7.663,-0.129,-0.250,-0.924
7.673,-0.127,-0.248,-0.928
7.683,-0.125,-0.250,-0.928
7.693,-0.127,-0.250,-0.926
7.703,-0.129,-0.250,-0.924
7.713,-0.125,-0.252,-0.924
7.723,-0.131,-0.252,-0.926
7.733,-0.127,-0.248,-0.924
7.743,-0.129,-0.254,-0.924
7.753,-0.127,-0.252,-0.924
7.763,-0.129,-0.252,-0.924
7.773,-0.127,-0.252,-0.926
7.783,-0.129,-0.248,-0.922
7.793,-0.129,-0.250,-0.928
7.803,-0.129,-0.252,-0.924
7.813,-0.131,-0.252,-0.928
7.823,-0.129,-0.250,-0.922
7.833,-0.129,-0.250,-0.928
7.843,-0.127,-0.250,-0.924
7.853,-0.125,-0.248,-0.926
7.863,-0.129,-0.248,-0.924
7.873,-0.131,-0.250,-0.924
7.883,-0.129,-0.252,-0.922
7.893,-0.127,-0.250,-0.926
7.903,-0.129,-0.248,-0.926
7.913,-0.127,-0.250,-0.922
7.923,-0.129,-0.248,-0.922
7.933,-0.127,-0.248,-0.922
7.943,-0.125,-0.250,-0.924
7.953,-0.129,-0.252,-0.928
7.963,-0.127,-0.250,-0.926
7.973,-0.127,-0.250,-0.926
7.983,-0.131,-0.248,-0.926
7.993,-0.127,-0.250,-0.926
8.003,-0.127,-0.250,-0.926
8.013,-0.129,-0.250,-0.928
8.023,-0.129,-0.250,-0.924
8.033,-0.127,-0.252,-0.924
8.043,-0.129,-0.252,-0.922
8.053,-0.127,-0.252,-0.926
8.063,-0.127,-0.246,-0.924
8.073,-0.131,-0.248,-0.922
8.083,-0.125,-0.250,-0.926
8.093,-0.129,-0.254,-0.928
8.103,-0.129,-0.252,-0.924
8.113,-0.127,-0.252,-0.922
8.123,-0.131,-0.250,-0.926
8.133,-0.131,-0.248,-0.924
8.143,-0.127,-0.250,-0.924
8.153,-0.125,-0.250,-0.924
8.163,-0.127,-0.246,-0.926
8.173,-0.125,-0.250,-0.926
8.183,-0.131,-0.250,-0.922
8.193,-0.131,-0.250,-0.926
8.203,-0.129,-0.248,-0.922
8.213,-0.129,-0.254,-0.926
8.223,-0.127,-0.250,-0.924
8.233,-0.129,-0.250,-0.926
8.243,-0.129,-0.250,-0.924
8.253,-0.127,-0.252,-0.926
8.263,-0.131,-0.252,-0.922
8.273,-0.131,-0.250,-0.926
8.283,-0.129,-0.250,-0.924
8.293,-0.127,-0.248,-0.922
8.303,-0.129,-0.250,-0.926
8.313,-0.131,-0.248,-0.926
8.323,-0.129,-0.248,-0.924
8.333,-0.131,-0.248,-0.922
8.343,-0.127,-0.250,-0.922
8.353,-0.129,-0.250,-0.924
8.363,-0.129,-0.248,-0.926
8.373,-0.131,-0.250,-0.924
8.383,-0.127,-0.250,-0.922
8.393,-0.129,-0.250,-0.926
8.403,-0.129,-0.250,-0.924
8.413,-0.129,-0.248,-0.924
8.423,-0.129,-0.252,-0.926
8.433,-0.127,-0.252,-0.926
8.443,-0.129,-0.250,-0.926
8.453,-0.129,-0.250,-0.920
8.463,-0.129,-0.250,-0.926
8.473,-0.131,-0.250,-0.924
8.483,-0.131,-0.252,-0.924
8.493,-0.129,-0.250,-0.922
8.503,-0.133,-0.250,-0.924
8.513,-0.127,-0.248,-0.924
8.523,-0.129,-0.252,-0.922
8.533,-0.127,-0.250,-0.924
8.543,-0.129,-0.248,-0.924
8.553,-0.129,-0.248,-0.924
8.563,-0.129,-0.250,-0.924
8.573,-0.129,-0.252,-0.926
8.583,-0.127,-0.248,-0.926
8.593,-0.131,-0.248,-0.922
8.603,-0.129,-0.248,-0.924
8.613,-0.129,-0.248,-0.924
8.623,-0.131,-0.252,-0.922
8.633,-0.129,-0.248,-0.922
8.643,-0.131,-0.248,-0.922
8.653,-0.131,-0.250,-0.928
8.663,-0.129,-0.246,-0.922
8.673,-0.131,-0.250,-0.922
8.683,-0.127,-0.246,-0.924
8.693,-0.129,-0.248,-0.926
8.703,-0.127,-0.252,-0.924
8.713,-0.129,-0.252,-0.924
8.723,-0.129,-0.248,-0.924
8.733,-0.129,-0.250,-0.926
8.743,-0.127,-0.248,-0.924
8.753,-0.131,-0.250,-0.924
8.763,-0.127,-0.250,-0.920
8.773,-0.129,-0.250,-0.926
8.783,-0.129,-0.250,-0.926
8.793,-0.129,-0.250,-0.926
8.803,-0.127,-0.248,-0.924
8.813,-0.129,-0.252,-0.926
8.823,-0.135,-0.250,-0.924
8.833,-0.131,-0.250,-0.924
8.843,-0.129,-0.248,-0.926
8.853,-0.129,-0.250,-0.924
8.863,-0.129,-0.248,-0.926
8.873,-0.129,-0.250,-0.924
8.883,-0.127,-0.248,-0.924
8.893,-0.127,-0.250,-0.922
8.903,-0.129,-0.248,-0.922
8.913,-0.129,-0.250,-0.926
8.923,-0.125,-0.248,-0.924
8.933,-0.129,-0.250,-0.924
8.943,-0.129,-0.248,-0.922
8.953,-0.129,-0.250,-0.924
8.963,-0.129,-0.250,-0.926
8.973,-0.127,-0.246,-0.926
8.983,-0.129,-0.252,-0.920
8.993,-0.127,-0.250,-0.926
9.003,-0.129,-0.248,-0.926
9.013,-0.129,-0.250,-0.924
9.023,-0.129,-0.248,-0.924
9.033,-0.131,-0.248,-0.926
9.043,-0.129,-0.250,-0.926
9.053,-0.131,-0.252,-0.926
9.063,-0.127,-0.248,-0.924
9.073,-0.127,-0.252,-0.926
9.083,-0.131,-0.248,-0.926
9.093,-0.131,-0.248,-0.922
9.103,-0.131,-0.250,-0.928
9.113,-0.129,-0.248,-0.922
9.123,-0.127,-0.248,-0.926
9.133,-0.127,-0.250,-0.924
9.143,-0.125,-0.246,-0.928
9.153,-0.129,-0.250,-0.928
9.163,-0.129,-0.248,-0.926
9.173,-0.127,-0.246,-0.926
9.183,-0.129,-0.248,-0.922
9.193,-0.127,-0.250,-0.924
9.203,-0.129,-0.248,-0.926
9.213,-0.127,-0.248,-0.924
9.223,-0.129,-0.246,-0.922
9.233,-0.127,-0.250,-0.920
9.243,-0.129,-0.248,-0.924
9.253,-0.129,-0.250,-0.922
9.263,-0.131,-0.252,-0.926
9.273,-0.129,-0.246,-0.922
9.283,-0.127,-0.248,-0.926
9.293,-0.129,-0.248,-0.928
9.303,-0.127,-0.250,-0.922
9.313,-0.129,-0.248,-0.928
9.323,-0.131,-0.248,-0.924
9.333,-0.129,-0.250,-0.926
9.343,-0.129,-0.248,-0.922
9.353,-0.129,-0.250,-0.924
9.363,-0.129,-0.248,-0.924
9.373,-0.129,-0.250,-0.924
9.383,-0.127,-0.248,-0.924
9.393,-0.129,-0.248,-0.924
9.403,-0.127,-0.252,-0.924
9.413,-0.127,-0.246,-0.926
9.423,-0.127,-0.246,-0.926
9.433,-0.127,-0.246,-0.928
9.443,-0.127,-0.250,-0.924
9.453,-0.127,-0.248,-0.924
9.463,-0.129,-0.246,-0.926
9.473,-0.129,-0.250,-0.924
9.483,-0.129,-0.250,-0.924
9.493,-0.129,-0.250,-0.924
9.503,-0.125,-0.250,-0.924
9.513,-0.129,-0.248,-0.922
9.523,-0.127,-0.252,-0.924
9.533,-0.129,-0.250,-0.926
9.543,-0.129,-0.248,-0.926
9.553,-0.127,-0.248,-0.924
9.563,-0.131,-0.246,-0.924
9.573,-0.129,-0.252,-0.926
9.583,-0.125,-0.250,-0.924
9.593,-0.127,-0.250,-0.924
9.603,-0.129,-0.250,-0.926
9.613,-0.125,-0.252,-0.924
9.623,-0.127,-0.250,-0.926
9.633,-0.127,-0.252,-0.924
9.643,-0.129,-0.248,-0.926
9.653,-0.127,-0.248,-0.924
9.663,-0.129,-0.248,-0.926
9.673,-0.125,-0.250,-0.924
9.683,-0.129,-0.248,-0.924
9.693,-0.127,-0.250,-0.926
9.703,-0.127,-0.250,-0.922
9.713,-0.129,-0.244,-0.924
9.723,-0.129,-0.248,-0.924
9.733,-0.131,-0.250,-0.926
9.743,-0.127,-0.250,-0.924
9.753,-0.129,-0.250,-0.928
9.763,-0.127,-0.248,-0.926
9.773,-0.125,-0.250,-0.926
9.783,-0.127,-0.250,-0.924
9.793,-0.129,-0.252,-0.928
9.803,-0.127,-0.246,-0.924
9.813,-0.125,-0.246,-0.926
9.823,-0.129,-0.250,-0.926
9.833,-0.127,-0.248,-0.920
9.843,-0.125,-0.250,-0.926
9.853,-0.129,-0.250,-0.926
9.863,-0.123,-0.250,-0.924
9.873,-0.131,-0.250,-0.926
9.883,-0.127,-0.250,-0.926
9.893,-0.129,-0.248,-0.924
9.903,-0.125,-0.246,-0.928
9.913,-0.133,-0.248,-0.928
9.923,-0.127,-0.248,-0.924
9.933,-0.127,-0.250,-0.924
9.943,-0.127,-0.250,-0.926
9.953,-0.127,-0.250,-0.924
9.963,-0.127,-0.250,-0.926
9.973,-0.129,-0.248,-0.922
9.983,-0.127,-0.250,-0.922
9.993,-0.129,-0.252,-0.922
10.003,-0.129,-0.248,-0.924
10.013,-0.129,-0.248,-0.926
10.023,-0.125,-0.248,-0.924
10.033,-0.125,-0.250,-0.928
10.043,-0.127,-0.250,-0.924
10.053,-0.125,-0.250,-0.924
10.063,-0.127,-0.250,-0.922
10.073,-0.125,-0.250,-0.922
10.083,-0.127,-0.250,-0.926
10.093,-0.125,-0.248,-0.922
10.103,-0.127,-0.250,-0.924
10.113,-0.125,-0.250,-0.926
10.123,-0.127,-0.252,-0.924
10.133,-0.127,-0.252,-0.924
10.143,-0.127,-0.250,-0.926
10.153,-0.123,-0.248,-0.924
10.163,-0.127,-0.248,-0.928
10.173,-0.129,-0.252,-0.926
10.183,-0.127,-0.250,-0.922
10.193,-0.127,-0.250,-0.928
10.203,-0.127,-0.250,-0.924
10.213,-0.127,-0.248,-0.922
10.223,-0.123,-0.248,-0.922
10.233,-0.125,-0.248,-0.924
10.243,-0.125,-0.252,-0.922
10.253,-0.127,-0.252,-0.922
10.263,-0.127,-0.250,-0.924
10.273,-0.125,-0.250,-0.926
10.283,-0.123,-0.248,-0.926
10.293,-0.127,-0.248,-0.922
10.303,-0.123,-0.250,-0.924
10.313,-0.125,-0.250,-0.924
10.323,-0.125,-0.248,-0.922
10.333,-0.125,-0.250,-0.924
10.343,-0.127,-0.252,-0.924
10.353,-0.127,-0.248,-0.928
10.363,-0.125,-0.252,-0.926
10.373,-0.127,-0.246,-0.922
10.383,-0.127,-0.248,-0.926
10.393,-0.125,-0.246,-0.924
10.403,-0.125,-0.252,-0.924
10.413,-0.129,-0.250,-0.924
10.423,-0.127,-0.248,-0.924
10.433,-0.127,-0.246,-0.924
10.443,-0.125,-0.248,-0.924
10.453,-0.123,-0.250,-0.924
10.463,-0.127,-0.250,-0.926
10.473,-0.127,-0.250,-0.922
10.483,-0.127,-0.250,-0.924
10.493,-0.125,-0.246,-0.926
10.503,-0.127,-0.250,-0.920
10.513,-0.127,-0.246,-0.924
10.523,-0.127,-0.250,-0.926
10.533,-0.125,-0.252,-0.924
10.543,-0.123,-0.250,-0.926
10.553,-0.125,-0.250,-0.926
10.563,-0.123,-0.250,-0.924
10.573,-0.125,-0.250,-0.922
10.583,-0.127,-0.250,-0.926
10.593,-0.129,-0.246,-0.926
10.603,-0.125,-0.252,-0.924
10.613,-0.123,-0.252,-0.922
10.623,-0.125,-0.252,-0.922
10.633,-0.127,-0.250,-0.924
10.643,-0.125,-0.250,-0.924
10.653,-0.123,-0.250,-0.924
10.663,-0.121,-0.250,-0.924
10.673,-0.123,-0.248,-0.926
10.683,-0.123,-0.248,-0.924
10.693,-0.127,-0.252,-0.926
10.703,-0.129,-0.248,-0.928
10.713,-0.127,-0.252,-0.926
10.723,-0.123,-0.252,-0.924
10.733,-0.123,-0.248,-0.924
10.743,-0.123,-0.248,-0.924
10.753,-0.127,-0.250,-0.924
10.763,-0.125,-0.246,-0.922
10.773,-0.125,-0.250,-0.924
10.783,-0.127,-0.252,-0.926
10.793,-0.125,-0.252,-0.928
10.803,-0.127,-0.252,-0.926
10.813,-0.127,-0.250,-0.926
10.823,-0.127,-0.250,-0.926
10.833,-0.125,-0.248,-0.924
10.843,-0.125,-0.250,-0.924
10.853,-0.125,-0.250,-0.926
10.863,-0.125,-0.252,-0.926
10.873,-0.127,-0.250,-0.924
10.883,-0.125,-0.248,-0.926
10.893,-0.123,-0.248,-0.926
10.903,-0.127,-0.250,-0.926
10.913,-0.127,-0.248,-0.924
10.923,-0.125,-0.252,-0.924
10.933,-0.127,-0.250,-0.924
10.943,-0.123,-0.250,-0.926
10.953,-0.123,-0.252,-0.924
10.963,-0.123,-0.250,-0.924
10.973,-0.125,-0.248,-0.926
10.983,-0.125,-0.250,-0.926
10.993,-0.127,-0.248,-0.924
11.003,-0.127,-0.252,-0.928
11.013,-0.125,-0.248,-0.928
11.023,-0.121,-0.250,-0.928
11.033,-0.121,-0.252,-0.930
11.043,-0.121,-0.252,-0.922
11.053,-0.123,-0.246,-0.920
11.063,-0.125,-0.250,-0.922
11.073,-0.129,-0.248,-0.924
11.083,-0.129,-0.250,-0.926
11.093,-0.123,-0.250,-0.922
11.103,-0.125,-0.250,-0.924
11.113,-0.123,-0.252,-0.922
11.123,-0.125,-0.252,-0.924
11.133,-0.127,-0.250,-0.926
11.143,-0.125,-0.250,-0.924
11.153,-0.125,-0.248,-0.926
11.163,-0.125,-0.248,-0.926
11.173,-0.125,-0.250,-0.924
11.183,-0.127,-0.252,-0.924
11.193,-0.123,-0.250,-0.924
11.203,-0.125,-0.248,-0.926
11.213,-0.123,-0.250,-0.924
11.223,-0.127,-0.250,-0.924
11.233,-0.125,-0.250,-0.926
11.243,-0.123,-0.250,-0.926
11.253,-0.127,-0.250,-0.926
11.263,-0.123,-0.250,-0.926
11.273,-0.125,-0.248,-0.924
11.283,-0.125,-0.250,-0.926
11.293,-0.127,-0.248,-0.924
11.303,-0.125,-0.250,-0.928
11.313,-0.121,-0.254,-0.924
11.323,-0.121,-0.250,-0.922
11.333,-0.127,-0.248,-0.924
11.343,-0.127,-0.250,-0.926
11.353,-0.129,-0.250,-0.924
11.363,-0.123,-0.248,-0.922
11.373,-0.123,-0.250,-0.926
11.383,-0.121,-0.248,-0.928
11.393,-0.123,-0.248,-0.926
11.403,-0.123,-0.250,-0.922
11.413,-0.125,-0.252,-0.926
11.423,-0.123,-0.252,-0.924
11.433,-0.123,-0.252,-0.924
11.443,-0.125,-0.248,-0.928
11.453,-0.123,-0.246,-0.924
11.463,-0.125,-0.246,-0.926
11.473,-0.127,-0.250,-0.922
11.483,-0.125,-0.250,-0.926
11.493,-0.121,-0.252,-0.926
11.503,-0.125,-0.248,-0.922
11.513,-0.123,-0.250,-0.926
11.523,-0.123,-0.250,-0.926
11.533,-0.125,-0.252,-0.924
11.543,-0.125,-0.250,-0.924
11.553,-0.125,-0.252,-0.926
11.563,-0.125,-0.248,-0.924
11.573,-0.125,-0.248,-0.926
11.583,-0.125,-0.250,-0.924
11.593,-0.123,-0.254,-0.926
11.603,-0.123,-0.252,-0.924
11.613,-0.123,-0.250,-0.924
11.623,-0.125,-0.250,-0.926
11.633,-0.127,-0.250,-0.926
11.643,-0.125,-0.250,-0.924
11.653,-0.125,-0.248,-0.924
11.663,-0.123,-0.252,-0.924
11.673,-0.123,-0.250,-0.926
11.683,-0.123,-0.252,-0.922
11.693,-0.121,-0.250,-0.922
11.703,-0.125,-0.252,-0.922
11.713,-0.125,-0.250,-0.922
11.723,-0.123,-0.250,-0.922
11.733,-0.123,-0.250,-0.924
11.743,-0.123,-0.250,-0.926
11.753,-0.123,-0.250,-0.928
11.763,-0.125,-0.248,-0.926
11.773,-0.125,-0.250,-0.924
11.783,-0.125,-0.250,-0.924
11.793,-0.121,-0.248,-0.926
11.803,-0.125,-0.250,-0.924
11.813,-0.121,-0.250,-0.924
11.823,-0.123,-0.250,-0.922
11.833,-0.121,-0.250,-0.924
11.843,-0.123,-0.248,-0.928
11.853,-0.123,-0.246,-0.926
11.863,-0.125,-0.250,-0.926
11.873,-0.127,-0.248,-0.922
11.883,-0.123,-0.248,-0.928
11.893,-0.127,-0.252,-0.926
11.903,-0.123,-0.250,-0.926
11.913,-0.123,-0.254,-0.924
11.923,-0.123,-0.252,-0.924
11.933,-0.121,-0.248,-0.924
11.943,-0.123,-0.250,-0.926
11.953,-0.121,-0.250,-0.922
11.963,-0.123,-0.248,-0.922
11.973,-0.123,-0.250,-0.926
11.983,-0.123,-0.250,-0.926
11.993,-0.123,-0.254,-0.926
12.003,-0.123,-0.252,-0.924
12.013,-0.123,-0.248,-0.924
12.023,-0.123,-0.250,-0.924
12.033,-0.123,-0.252,-0.924
12.043,-0.121,-0.250,-0.922
12.053,-0.127,-0.252,-0.926
12.063,-0.123,-0.250,-0.930
12.073,-0.125,-0.250,-0.922
12.083,-0.125,-0.250,-0.924
12.093,-0.123,-0.250,-0.922
12.103,-0.121,-0.250,-0.924
12.113,-0.123,-0.246,-0.922
12.123,-0.121,-0.252,-0.928
12.133,-0.123,-0.248,-0.926
12.143,-0.125,-0.250,-0.922
12.153,-0.123,-0.248,-0.924
12.163,-0.125,-0.248,-0.922
12.173,-0.125,-0.248,-0.922
12.183,-0.121,-0.252,-0.924
12.193,-0.121,-0.250,-0.926
12.203,-0.123,-0.252,-0.922
12.213,-0.121,-0.250,-0.926
12.223,-0.121,-0.250,-0.922
12.233,-0.119,-0.248,-0.924
12.243,-0.123,-0.250,-0.928
12.253,-0.123,-0.250,-0.922
12.263,-0.123,-0.250,-0.926
12.273,-0.121,-0.248,-0.926
12.283,-0.123,-0.248,-0.928
12.293,-0.121,-0.250,-0.922
12.303,-0.121,-0.250,-0.926
12.313,-0.127,-0.248,-0.928
12.323,-0.123,-0.252,-0.924
12.333,-0.125,-0.250,-0.928
12.343,-0.121,-0.250,-0.926
12.353,-0.119,-0.248,-0.928
12.363,-0.121,-0.248,-0.924
12.373,-0.121,-0.250,-0.922
12.383,-0.121,-0.250,-0.926
12.393,-0.125,-0.250,-0.928
12.403,-0.125,-0.250,-0.930
12.413,-0.125,-0.248,-0.924
12.423,-0.125,-0.246,-0.926
12.433,-0.123,-0.250,-0.924
12.443,-0.121,-0.250,-0.926
12.453,-0.125,-0.250,-0.926
12.463,-0.121,-0.250,-0.924
12.473,-0.121,-0.250,-0.924
12.483,-0.125,-0.250,-0.926
12.493,-0.125,-0.252,-0.924
12.503,-0.123,-0.250,-0.926
12.513,-0.121,-0.250,-0.926
12.523,-0.123,-0.250,-0.928
12.533,-0.123,-0.248,-0.924
12.543,-0.123,-0.250,-0.924
12.553,-0.125,-0.248,-0.924
12.563,-0.123,-0.250,-0.922
12.573,-0.125,-0.252,-0.924
12.583,-0.125,-0.250,-0.924
12.593,-0.119,-0.250,-0.924
12.603,-0.123,-0.250,-0.924
12.613,-0.125,-0.248,-0.924
12.623,-0.121,-0.250,-0.924
12.633,-0.121,-0.252,-0.924
12.643,-0.123,-0.252,-0.924
12.653,-0.123,-0.252,-0.924
12.663,-0.123,-0.248,-0.926
12.673,-0.123,-0.252,-0.926
12.683,-0.123,-0.248,-0.926
12.693,-0.125,-0.248,-0.926
12.703,-0.125,-0.248,-0.924
12.713,-0.123,-0.248,-0.924
12.723,-0.125,-0.250,-0.930
12.733,-0.123,-0.250,-0.928
12.743,-0.121,-0.248,-0.926
12.753,-0.123,-0.250,-0.924
12.763,-0.125,-0.248,-0.924
12.773,-0.125,-0.250,-0.924
12.783,-0.125,-0.248,-0.926
12.793,-0.123,-0.250,-0.924
12.803,-0.123,-0.250,-0.922
12.813,-0.125,-0.250,-0.926
12.823,-0.123,-0.246,-0.926
12.833,-0.123,-0.252,-0.928
12.843,-0.119,-0.250,-0.922
12.853,-0.123,-0.248,-0.924
12.863,-0.127,-0.248,-0.924
12.873,-0.123,-0.250,-0.924
12.883,-0.121,-0.252,-0.928
12.893,-0.125,-0.248,-0.924
12.903,-0.125,-0.248,-0.926
12.913,-0.121,-0.246,-0.926
12.923,-0.121,-0.248,-0.924
12.933,-0.121,-0.248,-0.922
12.943,-0.121,-0.250,-0.924
12.953,-0.125,-0.248,-0.922
12.963,-0.125,-0.250,-0.926
12.973,-0.123,-0.250,-0.924
12.983,-0.123,-0.250,-0.926
12.993,-0.123,-0.252,-0.926
13.003,-0.123,-0.248,-0.924
13.013,-0.121,-0.248,-0.928
13.023,-0.123,-0.248,-0.928
13.033,-0.123,-0.248,-0.926
13.043,-0.123,-0.250,-0.926
13.053,-0.123,-0.250,-0.922
13.063,-0.123,-0.250,-0.926
13.073,-0.123,-0.248,-0.924
13.083,-0.121,-0.250,-0.924
13.093,-0.125,-0.250,-0.924
13.103,-0.123,-0.248,-0.924
13.113,-0.123,-0.250,-0.926
13.123,-0.121,-0.250,-0.924
13.133,-0.121,-0.248,-0.924
13.143,-0.125,-0.250,-0.922
13.153,-0.123,-0.250,-0.928
13.163,-0.125,-0.250,-0.924
13.173,-0.123,-0.250,-0.926
13.183,-0.123,-0.248,-0.924
13.193,-0.125,-0.250,-0.924
13.203,-0.123,-0.248,-0.928
13.213,-0.123,-0.248,-0.926
13.223,-0.123,-0.246,-0.926
13.233,-0.121,-0.248,-0.924
13.243,-0.125,-0.248,-0.922
13.253,-0.121,-0.250,-0.924
13.263,-0.123,-0.248,-0.924
13.273,-0.123,-0.248,-0.924
13.283,-0.121,-0.250,-0.926
13.293,-0.121,-0.248,-0.924
13.303,-0.123,-0.250,-0.924
13.313,-0.121,-0.250,-0.924
13.323,-0.123,-0.248,-0.924
13.333,-0.125,-0.250,-0.924
13.343,-0.123,-0.250,-0.920
13.353,-0.121,-0.248,-0.928
13.363,-0.123,-0.248,-0.926
13.373,-0.121,-0.250,-0.926
13.383,-0.121,-0.248,-0.924
13.393,-0.125,-0.250,-0.922
13.403,-0.123,-0.250,-0.922
13.413,-0.123,-0.250,-0.924
13.423,-0.127,-0.248,-0.924
13.433,-0.121,-0.250,-0.924
13.443,-0.123,-0.248,-0.924
13.453,-0.123,-0.250,-0.926
13.463,-0.125,-0.248,-0.924
13.473,-0.121,-0.250,-0.922
13.483,-0.123,-0.250,-0.926
13.493,-0.123,-0.250,-0.928
13.503,-0.121,-0.252,-0.928
13.513,-0.121,-0.250,-0.926
13.523,-0.119,-0.246,-0.922
13.533,-0.121,-0.250,-0.926
13.543,-0.123,-0.248,-0.926
13.553,-0.123,-0.252,-0.924
13.563,-0.121,-0.248,-0.924
13.573,-0.121,-0.250,-0.922
13.583,-0.125,-0.250,-0.922
13.593,-0.125,-0.250,-0.928
13.603,-0.123,-0.250,-0.928
13.613,-0.121,-0.252,-0.922
13.623,-0.125,-0.250,-0.926
13.633,-0.123,-0.250,-0.926
13.643,-0.123,-0.248,-0.922
13.653,-0.123,-0.250,-0.926
13.663,-0.123,-0.252,-0.926
13.673,-0.121,-0.250,-0.922
13.683,-0.123,-0.246,-0.926
13.693,-0.123,-0.250,-0.926
13.703,-0.121,-0.250,-0.926
13.713,-0.125,-0.248,-0.926
13.723,-0.123,-0.248,-0.924
13.733,-0.123,-0.250,-0.926
13.743,-0.121,-0.248,-0.924
13.753,-0.123,-0.248,-0.928
13.763,-0.121,-0.248,-0.922
13.773,-0.121,-0.246,-0.924
13.783,-0.123,-0.248,-0.926
13.793,-0.121,-0.250,-0.924
13.803,-0.127,-0.248,-0.924
13.813,-0.123,-0.250,-0.922
13.823,-0.123,-0.250,-0.924
13.833,-0.123,-0.248,-0.924
13.843,-0.121,-0.250,-0.928
13.853,-0.123,-0.248,-0.924
13.863,-0.121,-0.248,-0.922
13.873,-0.125,-0.248,-0.926
13.883,-0.125,-0.250,-0.926
13.893,-0.123,-0.248,-0.924
13.903,-0.123,-0.248,-0.922
13.913,-0.123,-0.252,-0.926
13.923,-0.123,-0.250,-0.924
13.933,-0.121,-0.248,-0.926
13.943,-0.123,-0.250,-0.926
13.953,-0.123,-0.252,-0.930
13.963,-0.121,-0.250,-0.924
13.973,-0.123,-0.250,-0.926
13.983,-0.121,-0.248,-0.926
13.993,-0.125,-0.248,-0.922
14.003,-0.121,-0.246,-0.928
14.013,-0.123,-0.246,-0.924
14.023,-0.121,-0.248,-0.924
14.033,-0.123,-0.250,-0.924
14.043,-0.123,-0.250,-0.926
14.053,-0.123,-0.250,-0.926
14.063,-0.123,-0.250,-0.924
14.073,-0.125,-0.246,-0.926
14.083,-0.127,-0.248,-0.924
14.093,-0.123,-0.250,-0.926
14.103,-0.123,-0.250,-0.928
14.113,-0.121,-0.252,-0.926
14.123,-0.121,-0.250,-0.926
14.133,-0.123,-0.248,-0.926
14.143,-0.119,-0.250,-0.924
14.153,-0.123,-0.244,-0.924
14.163,-0.123,-0.248,-0.924
14.173,-0.127,-0.248,-0.924
14.183,-0.123,-0.248,-0.926
14.193,-0.123,-0.250,-0.922
14.203,-0.123,-0.250,-0.926
14.213,-0.121,-0.250,-0.922
14.223,-0.123,-0.248,-0.924
14.233,-0.125,-0.250,-0.926
14.243,-0.123,-0.250,-0.924
14.253,-0.123,-0.250,-0.922
14.263,-0.125,-0.248,-0.924
14.273,-0.123,-0.250,-0.924
14.283,-0.123,-0.252,-0.926
14.293,-0.125,-0.250,-0.924
14.303,-0.121,-0.246,-0.926
14.313,-0.125,-0.248,-0.924
14.323,-0.125,-0.250,-0.926
14.333,-0.121,-0.250,-0.926
14.343,-0.123,-0.248,-0.926
14.353,-0.123,-0.248,-0.922
14.363,-0.123,-0.248,-0.924
14.373,-0.123,-0.250,-0.928
14.383,-0.123,-0.250,-0.928
14.393,-0.119,-0.250,-0.926
14.403,-0.123,-0.248,-0.924
14.413,-0.121,-0.246,-0.922
14.423,-0.121,-0.246,-0.926
14.433,-0.123,-0.248,-0.926
14.443,-0.125,-0.250,-0.926
14.453,-0.121,-0.252,-0.924
14.463,-0.121,-0.246,-0.922
14.473,-0.121,-0.248,-0.926
14.483,-0.121,-0.248,-0.926
14.493,-0.123,-0.246,-0.924
14.503,-0.123,-0.250,-0.920
14.513,-0.123,-0.248,-0.926
14.523,-0.125,-0.248,-0.922
14.533,-0.121,-0.250,-0.926
14.543,-0.121,-0.248,-0.924
14.553,-0.121,-0.250,-0.926
14.563,-0.117,-0.250,-0.926
14.573,-0.123,-0.250,-0.926
14.583,-0.123,-0.250,-0.924
14.593,-0.125,-0.246,-0.926
14.603,-0.121,-0.246,-0.924
14.613,-0.123,-0.248,-0.926
14.623,-0.123,-0.248,-0.922
14.633,-0.121,-0.248,-0.926
14.643,-0.119,-0.248,-0.926
14.653,-0.121,-0.250,-0.922
14.663,-0.119,-0.250,-0.926
14.673,-0.123,-0.250,-0.926
14.683,-0.119,-0.248,-0.926
14.693,-0.123,-0.250,-0.926
14.703,-0.123,-0.248,-0.926
14.713,-0.121,-0.250,-0.924
14.723,-0.123,-0.248,-0.926
14.733,-0.121,-0.248,-0.926
14.743,-0.121,-0.248,-0.924
14.753,-0.121,-0.250,-0.926
14.763,-0.123,-0.252,-0.924
14.773,-0.123,-0.248,-0.926
14.783,-0.123,-0.248,-0.924
14.793,-0.123,-0.250,-0.924
14.803,-0.123,-0.248,-0.924
14.813,-0.125,-0.250,-0.922
14.823,-0.123,-0.248,-0.928
14.833,-0.123,-0.252,-0.920
14.843,-0.121,-0.248,-0.926
14.853,-0.119,-0.246,-0.922
14.863,-0.121,-0.248,-0.926
14.873,-0.123,-0.250,-0.922
14.883,-0.121,-0.248,-0.928
14.893,-0.123,-0.250,-0.924
14.903,-0.121,-0.250,-0.924
14.913,-0.121,-0.248,-0.928
14.923,-0.125,-0.246,-0.922
14.933,-0.123,-0.246,-0.926
14.943,-0.123,-0.250,-0.926
14.953,-0.123,-0.248,-0.924
14.963,-0.123,-0.248,-0.928
14.973,-0.123,-0.248,-0.926
14.983,-0.119,-0.252,-0.924
14.993,-0.123,-0.248,-0.924
15.003,-0.121,-0.250,-0.926
15.013,-0.123,-0.250,-0.924
15.023,-0.121,-0.248,-0.926
15.033,-0.123,-0.248,-0.924
15.043,-0.121,-0.250,-0.926
15.053,-0.121,-0.250,-0.926
15.063,-0.119,-0.248,-0.924
15.073,-0.121,-0.248,-0.924
15.083,-0.119,-0.246,-0.926
15.093,-0.121,-0.246,-0.926
15.103,-0.123,-0.248,-0.926
15.113,-0.123,-0.250,-0.922
15.123,-0.123,-0.250,-0.924
15.133,-0.123,-0.248,-0.926
15.143,-0.123,-0.250,-0.928
15.153,-0.123,-0.248,-0.924
15.163,-0.119,-0.246,-0.924
15.173,-0.123,-0.248,-0.922
15.183,-0.119,-0.246,-0.924
15.193,-0.123,-0.246,-0.926
15.203,-0.125,-0.248,-0.926
15.213,-0.123,-0.248,-0.926
15.223,-0.125,-0.248,-0.922
15.233,-0.123,-0.248,-0.926
15.243,-0.121,-0.246,-0.926
15.253,-0.121,-0.250,-0.928
15.263,-0.121,-0.250,-0.924
15.273,-0.121,-0.248,-0.926
15.283,-0.121,-0.246,-0.924
15.293,-0.123,-0.248,-0.924
15.303,-0.123,-0.248,-0.926
15.313,-0.123,-0.252,-0.924
15.323,-0.119,-0.246,-0.924
15.333,-0.121,-0.250,-0.926
15.343,-0.121,-0.250,-0.926
15.353,-0.123,-0.248,-0.924
15.363,-0.123,-0.248,-0.928
15.373,-0.123,-0.250,-0.926
15.383,-0.123,-0.246,-0.926
15.393,-0.121,-0.246,-0.926
15.403,-0.121,-0.244,-0.924
15.413,-0.121,-0.248,-0.926
15.423,-0.123,-0.250,-0.926
15.433,-0.119,-0.252,-0.928
15.443,-0.123,-0.248,-0.926
15.453,-0.127,-0.246,-0.928
15.463,-0.123,-0.246,-0.924
15.473,-0.121,-0.248,-0.926
15.483,-0.119,-0.248,-0.926
15.493,-0.119,-0.250,-0.924
15.503,-0.121,-0.254,-0.926
15.513,-0.121,-0.252,-0.926
15.523,-0.127,-0.244,-0.924
15.533,-0.125,-0.246,-0.924
15.543,-0.125,-0.246,-0.928
15.553,-0.123,-0.248,-0.926
15.563,-0.121,-0.250,-0.924
15.573,-0.117,-0.250,-0.924
15.583,-0.119,-0.250,-0.926
15.593,-0.121,-0.252,-0.926
15.603,-0.123,-0.246,-0.926
15.613,-0.125,-0.246,-0.926
15.623,-0.123,-0.246,-0.924
15.633,-0.123,-0.248,-0.926
15.643,-0.119,-0.252,-0.926
15.653,-0.123,-0.248,-0.924
15.663,-0.119,-0.248,-0.924
15.673,-0.121,-0.246,-0.926
15.683,-0.121,-0.244,-0.922
15.693,-0.121,-0.246,-0.924
15.703,-0.123,-0.256,-0.928
15.713,-0.121,-0.250,-0.928
15.723,-0.123,-0.248,-0.928
15.733,-0.121,-0.242,-0.926
15.743,-0.123,-0.244,-0.924
15.753,-0.123,-0.246,-0.926
15.763,-0.123,-0.250,-0.924
15.773,-0.121,-0.248,-0.926
15.783,-0.119,-0.250,-0.926
15.793,-0.119,-0.250,-0.926
15.803,-0.121,-0.248,-0.924
15.813,-0.123,-0.244,-0.928
15.823,-0.127,-0.246,-0.924
15.833,-0.125,-0.246,-0.926
15.843,-0.125,-0.246,-0.924
15.853,-0.123,-0.248,-0.926
15.863,-0.119,-0.248,-0.924
15.873,-0.117,-0.248,-0.928
15.883,-0.117,-0.248,-0.924
15.893,-0.117,-0.244,-0.924
15.903,-0.119,-0.246,-0.924
15.913,-0.125,-0.250,-0.928
15.923,-0.125,-0.250,-0.924
15.933,-0.123,-0.248,-0.926
15.943,-0.121,-0.246,-0.928
15.953,-0.119,-0.246,-0.922
15.963,-0.119,-0.248,-0.924
15.973,-0.117,-0.248,-0.924
15.983,-0.119,-0.250,-0.928
15.993,-0.121,-0.246,-0.928
16.003,-0.125,-0.250,-0.928
16.013,-0.125,-0.244,-0.928
16.023,-0.125,-0.246,-0.924
16.033,-0.121,-0.244,-0.926
16.043,-0.117,-0.248,-0.926
16.053,-0.119,-0.248,-0.926
16.063,-0.121,-0.250,-0.926
16.073,-0.123,-0.252,-0.924
16.083,-0.127,-0.246,-0.922
16.093,-0.121,-0.246,-0.926
16.103,-0.123,-0.244,-0.922
16.113,-0.123,-0.248,-0.926
16.123,-0.123,-0.250,-0.926
16.133,-0.121,-0.248,-0.924
16.143,-0.123,-0.248,-0.922
16.153,-0.121,-0.250,-0.924
16.163,-0.123,-0.250,-0.926
16.173,-0.123,-0.248,-0.924
16.183,-0.121,-0.248,-0.926
16.193,-0.121,-0.246,-0.928
16.203,-0.123,-0.248,-0.924
16.213,-0.121,-0.248,-0.924
16.223,-0.117,-0.250,-0.928
16.233,-0.123,-0.246,-0.924
16.243,-0.119,-0.246,-0.922
16.253,-0.125,-0.246,-0.928
16.263,-0.127,-0.244,-0.922
16.273,-0.121,-0.250,-0.924
16.283,-0.119,-0.250,-0.926
16.293,-0.119,-0.250,-0.926
16.303,-0.119,-0.248,-0.928
16.313,-0.121,-0.246,-0.926
16.323,-0.121,-0.244,-0.926
16.333,-0.121,-0.244,-0.926
16.343,-0.125,-0.244,-0.928
16.353,-0.125,-0.248,-0.928
16.363,-0.119,-0.252,-0.922
16.373,-0.115,-0.250,-0.922
16.383,-0.119,-0.246,-0.926
16.393,-0.121,-0.246,-0.922
16.403,-0.123,-0.246,-0.924
16.413,-0.125,-0.248,-0.926
16.423,-0.125,-0.248,-0.924
16.433,-0.121,-0.250,-0.926
16.443,-0.121,-0.252,-0.928
16.453,-0.121,-0.246,-0.926
16.463,-0.121,-0.244,-0.924
16.473,-0.119,-0.244,-0.926
16.483,-0.123,-0.248,-0.924
16.493,-0.119,-0.250,-0.926
16.503,-0.121,-0.250,-0.922
16.513,-0.119,-0.248,-0.922
16.523,-0.119,-0.250,-0.924
16.533,-0.119,-0.246,-0.922
16.543,-0.119,-0.246,-0.926
16.553,-0.119,-0.248,-0.924
16.563,-0.119,-0.252,-0.922
16.573,-0.125,-0.248,-0.926
16.583,-0.121,-0.250,-0.924
16.593,-0.123,-0.246,-0.924
16.603,-0.121,-0.248,-0.930
16.613,-0.121,-0.248,-0.926
16.623,-0.121,-0.246,-0.924
16.633,-0.121,-0.246,-0.926
16.643,-0.125,-0.246,-0.928
16.653,-0.125,-0.252,-0.928
16.663,-0.121,-0.250,-0.926
16.673,-0.119,-0.248,-0.926
16.683,-0.119,-0.246,-0.922
16.693,-0.121,-0.244,-0.924
16.703,-0.121,-0.250,-0.924
16.713,-0.121,-0.250,-0.924
16.723,-0.121,-0.250,-0.926
16.733,-0.125,-0.248,-0.924
16.743,-0.123,-0.248,-0.926
16.753,-0.125,-0.246,-0.924
16.763,-0.125,-0.246,-0.928
16.773,-0.121,-0.246,-0.922
16.783,-0.119,-0.248,-0.926
16.793,-0.119,-0.250,-0.926
16.803,-0.119,-0.250,-0.928
16.813,-0.119,-0.246,-0.926
16.823,-0.123,-0.246,-0.926
16.833,-0.127,-0.246,-0.924
16.843,-0.125,-0.246,-0.924
16.853,-0.121,-0.248,-0.922
16.863,-0.121,-0.248,-0.924
16.873,-0.121,-0.248,-0.924
16.883,-0.119,-0.252,-0.924
16.893,-0.123,-0.246,-0.924
16.903,-0.123,-0.246,-0.926
16.913,-0.123,-0.246,-0.926
16.923,-0.121,-0.248,-0.926
16.933,-0.123,-0.248,-0.928
16.943,-0.121,-0.244,-0.924
16.953,-0.115,-0.248,-0.924
16.963,-0.117,-0.246,-0.924
16.973,-0.119,-0.250,-0.922
16.983,-0.121,-0.248,-0.926
16.993,-0.123,-0.248,-0.924
17.003,-0.125,-0.246,-0.926
17.013,-0.119,-0.246,-0.922
17.023,-0.123,-0.248,-0.924
17.033,-0.121,-0.246,-0.926
17.043,-0.115,-0.248,-0.924
17.053,-0.119,-0.248,-0.926
17.063,-0.119,-0.250,-0.926
17.073,-0.121,-0.248,-0.926
17.083,-0.123,-0.246,-0.926
17.093,-0.123,-0.244,-0.930
17.103,-0.123,-0.246,-0.924
17.113,-0.123,-0.250,-0.928
17.123,-0.119,-0.248,-0.924
17.133,-0.119,-0.248,-0.924
17.143,-0.119,-0.250,-0.926
17.153,-0.117,-0.248,-0.922
17.163,-0.119,-0.250,-0.928
17.173,-0.121,-0.248,-0.926
17.183,-0.121,-0.248,-0.930
17.193,-0.123,-0.246,-0.926
17.203,-0.119,-0.246,-0.926
17.213,-0.121,-0.248,-0.924
17.223,-0.121,-0.246,-0.924
17.233,-0.119,-0.250,-0.922
17.243,-0.121,-0.246,-0.924
17.253,-0.121,-0.248,-0.928
17.263,-0.123,-0.246,-0.924
17.273,-0.121,-0.248,-0.928
17.283,-0.121,-0.246,-0.930
17.293,-0.121,-0.246,-0.928
17.303,-0.121,-0.248,-0.924
17.313,-0.121,-0.246,-0.928
17.323,-0.123,-0.246,-0.924
17.333,-0.119,-0.250,-0.924
17.343,-0.121,-0.248,-0.926
17.353,-0.123,-0.248,-0.928
17.363,-0.121,-0.248,-0.924
17.373,-0.121,-0.246,-0.928
17.383,-0.123,-0.248,-0.926
17.393,-0.121,-0.246,-0.924
17.403,-0.121,-0.246,-0.924
17.413,-0.121,-0.248,-0.926
17.423,-0.121,-0.250,-0.926
17.433,-0.121,-0.248,-0.926
17.443,-0.121,-0.246,-0.924
17.453,-0.121,-0.248,-0.926
17.463,-0.123,-0.246,-0.924
17.473,-0.119,-0.250,-0.926
17.483,-0.121,-0.250,-0.926
17.493,-0.121,-0.248,-0.926
17.503,-0.121,-0.248,-0.924
17.513,-0.123,-0.248,-0.926
17.523,-0.119,-0.246,-0.924
17.533,-0.121,-0.248,-0.926
17.543,-0.121,-0.248,-0.926
17.553,-0.119,-0.250,-0.922
17.563,-0.119,-0.248,-0.924
17.573,-0.119,-0.246,-0.924
17.583,-0.121,-0.244,-0.926
17.593,-0.121,-0.248,-0.924
17.603,-0.121,-0.250,-0.928
17.613,-0.121,-0.248,-0.926
17.623,-0.121,-0.248,-0.924
17.633,-0.123,-0.250,-0.924
17.643,-0.119,-0.248,-0.926
17.653,-0.123,-0.246,-0.922
17.663,-0.123,-0.246,-0.924
17.673,-0.119,-0.250,-0.926
17.683,-0.117,-0.248,-0.926
17.693,-0.123,-0.248,-0.926
17.703,-0.123,-0.246,-0.928
17.713,-0.119,-0.246,-0.928
17.723,-0.119,-0.246,-0.930
17.733,-0.119,-0.246,-0.924
17.743,-0.119,-0.246,-0.924
17.753,-0.123,-0.248,-0.924
17.763,-0.121,-0.246,-0.926
17.773,-0.123,-0.246,-0.926
17.783,-0.121,-0.246,-0.924
17.793,-0.121,-0.248,-0.924
17.803,-0.123,-0.248,-0.926
17.813,-0.125,-0.246,-0.926
17.823,-0.121,-0.246,-0.926
17.833,-0.119,-0.250,-0.926
17.843,-0.121,-0.250,-0.926
17.853,-0.119,-0.248,-0.924
17.863,-0.119,-0.248,-0.924
17.873,-0.123,-0.244,-0.926
17.883,-0.121,-0.244,-0.924
17.893,-0.127,-0.244,-0.922
17.903,-0.123,-0.252,-0.924
17.913,-0.123,-0.246,-0.924
17.923,-0.119,-0.248,-0.926
17.933,-0.117,-0.248,-0.928
17.943,-0.115,-0.248,-0.922
17.953,-0.121,-0.246,-0.926
17.963,-0.121,-0.246,-0.926
17.973,-0.121,-0.246,-0.924
17.983,-0.123,-0.250,-0.926
17.993,-0.121,-0.248,-0.926
18.003,-0.121,-0.246,-0.928
18.013,-0.119,-0.244,-0.926
18.023,-0.119,-0.246,-0.924
18.033,-0.121,-0.248,-0.924
18.043,-0.119,-0.244,-0.926
18.053,-0.121,-0.246,-0.924
18.063,-0.123,-0.248,-0.926
18.073,-0.121,-0.248,-0.928
18.083,-0.119,-0.246,-0.930
18.093,-0.119,-0.248,-0.926
18.103,-0.121,-0.246,-0.924
18.113,-0.119,-0.250,-0.922
18.123,-0.121,-0.248,-0.926
18.133,-0.121,-0.248,-0.924
18.143,-0.123,-0.248,-0.926
18.153,-0.121,-0.248,-0.928
18.163,-0.121,-0.248,-0.924
18.173,-0.123,-0.246,-0.924
18.183,-0.123,-0.250,-0.924
18.193,-0.123,-0.246,-0.924
18.203,-0.119,-0.246,-0.928
18.213,-0.119,-0.248,-0.930
18.223,-0.121,-0.248,-0.926
18.233,-0.119,-0.248,-0.924
18.243,-0.119,-0.248,-0.926
18.253,-0.119,-0.246,-0.926
18.263,-0.119,-0.246,-0.926
18.273,-0.123,-0.248,-0.926
18.283,-0.121,-0.250,-0.926
18.293,-0.119,-0.250,-0.928
18.303,-0.119,-0.246,-0.926
18.313,-0.123,-0.246,-0.928
18.323,-0.121,-0.248,-0.926
18.333,-0.119,-0.248,-0.926
18.343,-0.119,-0.248,-0.924
18.353,-0.119,-0.244,-0.926
18.363,-0.123,-0.248,-0.924
18.373,-0.123,-0.246,-0.924
18.383,-0.119,-0.250,-0.928
18.393,-0.121,-0.244,-0.926
18.403,-0.121,-0.248,-0.926
18.413,-0.119,-0.248,-0.922
18.423,-0.119,-0.246,-0.924
18.433,-0.123,-0.248,-0.924
18.443,-0.123,-0.246,-0.922
18.453,-0.117,-0.246,-0.924
18.463,-0.121,-0.248,-0.926
18.473,-0.121,-0.248,-0.926
18.483,-0.121,-0.248,-0.930
18.493,-0.121,-0.248,-0.926
18.503,-0.121,-0.246,-0.926
18.513,-0.119,-0.246,-0.926
18.523,-0.119,-0.248,-0.926
18.533,-0.121,-0.246,-0.926
18.543,-0.119,-0.246,-0.924
18.553,-0.117,-0.246,-0.926
18.563,-0.119,-0.248,-0.928
18.573,-0.121,-0.250,-0.924
18.583,-0.119,-0.244,-0.924
18.593,-0.119,-0.250,-0.924
18.603,-0.121,-0.244,-0.924
18.613,-0.123,-0.244,-0.928
18.623,-0.121,-0.248,-0.924
18.633,-0.121,-0.246,-0.926
18.643,-0.123,-0.250,-0.926
18.653,-0.117,-0.246,-0.928
18.663,-0.119,-0.248,-0.920
18.673,-0.117,-0.248,-0.924
18.683,-0.119,-0.246,-0.926
18.693,-0.121,-0.248,-0.928
18.703,-0.121,-0.248,-0.926
18.713,-0.121,-0.246,-0.924
18.723,-0.121,-0.246,-0.922
18.733,-0.119,-0.248,-0.928
18.743,-0.119,-0.248,-0.924
18.753,-0.119,-0.248,-0.926
18.763,-0.119,-0.246,-0.922
18.773,-0.119,-0.248,-0.926
18.783,-0.125,-0.246,-0.924
18.793,-0.123,-0.248,-0.928
18.803,-0.121,-0.248,-0.928
18.813,-0.117,-0.246,-0.928
18.823,-0.117,-0.246,-0.924
18.833,-0.117,-0.246,-0.922
18.843,-0.119,-0.248,-0.926
18.853,-0.117,-0.248,-0.926
18.863,-0.125,-0.246,-0.928
18.873,-0.123,-0.248,-0.922
18.883,-0.123,-0.248,-0.926
18.893,-0.121,-0.248,-0.922
18.903,-0.119,-0.246,-0.928
18.913,-0.117,-0.246,-0.924
18.923,-0.121,-0.246,-0.928
18.933,-0.119,-0.246,-0.926
18.943,-0.119,-0.248,-0.926
18.953,-0.119,-0.248,-0.924
18.963,-0.119,-0.248,-0.926
18.973,-0.121,-0.246,-0.928
18.983,-0.121,-0.248,-0.926
18.993,-0.119,-0.246,-0.924
19.003,-0.119,-0.248,-0.926
19.013,-0.121,-0.246,-0.924
19.023,-0.117,-0.244,-0.926
19.033,-0.121,-0.246,-0.926
19.043,-0.119,-0.248,-0.924
19.053,-0.119,-0.246,-0.926
19.063,-0.119,-0.246,-0.926
19.073,-0.121,-0.246,-0.926
19.083,-0.121,-0.246,-0.930
19.093,-0.121,-0.248,-0.924
19.103,-0.125,-0.248,-0.928
19.113,-0.121,-0.248,-0.926
19.123,-0.119,-0.248,-0.926
19.133,-0.119,-0.246,-0.926
19.143,-0.119,-0.246,-0.924
19.153,-0.119,-0.250,-0.926
19.163,-0.119,-0.246,-0.924
19.173,-0.119,-0.246,-0.928
19.183,-0.119,-0.246,-0.924
19.193,-0.119,-0.246,-0.926
19.203,-0.119,-0.246,-0.926
19.213,-0.121,-0.246,-0.924
19.223,-0.121,-0.248,-0.926
19.233,-0.119,-0.248,-0.926
19.243,-0.119,-0.252,-0.926
19.253,-0.117,-0.246,-0.928
19.263,-0.119,-0.246,-0.926
19.273,-0.119,-0.248,-0.924
19.283,-0.119,-0.244,-0.930
19.293,-0.121,-0.244,-0.928
19.303,-0.121,-0.246,-0.924
19.313,-0.119,-0.246,-0.926
19.323,-0.117,-0.248,-0.924
19.333,-0.123,-0.248,-0.924
19.343,-0.119,-0.244,-0.926
19.353,-0.117,-0.244,-0.926
19.363,-0.117,-0.248,-0.924
19.373,-0.119,-0.248,-0.924
19.383,-0.119,-0.246,-0.924
19.393,-0.123,-0.248,-0.924
19.403,-0.123,-0.248,-0.926
19.413,-0.119,-0.248,-0.924
19.423,-0.119,-0.246,-0.924
19.433,-0.121,-0.244,-0.924
19.443,-0.119,-0.248,-0.922
19.453,-0.121,-0.246,-0.924
19.463,-0.123,-0.248,-0.926
19.473,-0.121,-0.246,-0.926
19.483,-0.121,-0.246,-0.924
19.493,-0.121,-0.246,-0.928
19.503,-0.119,-0.246,-0.924
19.513,-0.119,-0.244,-0.924
19.523,-0.121,-0.246,-0.928
19.533,-0.117,-0.248,-0.924
19.543,-0.121,-0.248,-0.926
19.553,-0.119,-0.248,-0.924
19.563,-0.119,-0.248,-0.924
19.573,-0.117,-0.248,-0.924
19.583,-0.119,-0.246,-0.930
19.593,-0.117,-0.246,-0.926
19.603,-0.119,-0.244,-0.928
19.613,-0.119,-0.244,-0.926
19.623,-0.121,-0.246,-0.930
19.633,-0.121,-0.244,-0.926
19.643,-0.117,-0.246,-0.924
19.653,-0.119,-0.246,-0.926
19.663,-0.119,-0.248,-0.926
19.673,-0.121,-0.244,-0.926
19.683,-0.121,-0.250,-0.922
19.693,-0.119,-0.246,-0.924
19.703,-0.121,-0.248,-0.924
19.713,-0.123,-0.246,-0.928
19.723,-0.121,-0.246,-0.922
19.733,-0.117,-0.248,-0.926
19.743,-0.121,-0.248,-0.926
19.753,-0.121,-0.248,-0.928
19.763,-0.123,-0.248,-0.922
19.773,-0.117,-0.246,-0.924
19.783,-0.121,-0.246,-0.924
19.793,-0.121,-0.246,-0.924
19.803,-0.117,-0.248,-0.926
19.813,-0.121,-0.246,-0.926
19.823,-0.123,-0.248,-0.924
19.833,-0.119,-0.246,-0.928
19.843,-0.121,-0.248,-0.924
19.853,-0.121,-0.248,-0.924
19.863,-0.121,-0.246,-0.928
19.873,-0.117,-0.246,-0.928
19.883,-0.119,-0.246,-0.926
19.893,-0.119,-0.248,-0.924
19.903,-0.121,-0.246,-0.924
19.913,-0.121,-0.246,-0.928
19.923,-0.121,-0.246,-0.926
19.933,-0.117,-0.246,-0.922
19.943,-0.117,-0.248,-0.926
19.953,-0.121,-0.246,-0.924
19.963,-0.117,-0.246,-0.926
19.973,-0.119,-0.244,-0.924
19.983,-0.121,-0.246,-0.926
19.993,-0.117,-0.246,-0.926
20.003,-0.119,-0.246,-0.926
20.013,-0.121,-0.250,-0.928
20.023,-0.121,-0.246,-0.928
20.033,-0.119,-0.246,-0.924
20.043,-0.119,-0.246,-0.926
20.053,-0.117,-0.248,-0.924
20.063,-0.119,-0.246,-0.924
20.073,-0.119,-0.248,-0.926
20.083,-0.117,-0.246,-0.924
20.093,-0.117,-0.248,-0.926
20.103,-0.121,-0.246,-0.928
20.113,-0.119,-0.246,-0.924
20.123,-0.117,-0.246,-0.926
20.133,-0.117,-0.246,-0.928
20.143,-0.119,-0.246,-0.926
20.153,-0.121,-0.246,-0.926
20.163,-0.117,-0.248,-0.926
20.173,-0.125,-0.248,-0.926
20.183,-0.121,-0.246,-0.924
20.193,-0.117,-0.244,-0.926
20.203,-0.119,-0.250,-0.924
20.213,-0.119,-0.246,-0.924
20.223,-0.119,-0.248,-0.928
20.233,-0.121,-0.244,-0.926
20.243,-0.121,-0.246,-0.926
20.253,-0.121,-0.248,-0.928
20.263,-0.121,-0.248,-0.924
20.273,-0.117,-0.246,-0.926
20.283,-0.119,-0.246,-0.930
20.293,-0.123,-0.246,-0.926
20.303,-0.119,-0.248,-0.924
20.313,-0.121,-0.248,-0.924
20.323,-0.121,-0.248,-0.922
20.333,-0.119,-0.248,-0.926
20.343,-0.121,-0.246,-0.922
20.353,-0.115,-0.248,-0.924
20.363,-0.117,-0.248,-0.926
20.373,-0.117,-0.248,-0.926
20.383,-0.117,-0.246,-0.928
20.393,-0.119,-0.246,-0.928
20.403,-0.119,-0.246,-0.926
20.413,-0.119,-0.244,-0.922
20.423,-0.121,-0.246,-0.926
20.433,-0.119,-0.246,-0.924
20.443,-0.119,-0.250,-0.924
20.453,-0.117,-0.248,-0.926
20.463,-0.119,-0.248,-0.924
20.473,-0.121,-0.248,-0.926
20.483,-0.119,-0.248,-0.922
20.493,-0.119,-0.246,-0.924
20.503,-0.119,-0.244,-0.926
20.513,-0.119,-0.248,-0.926
20.523,-0.119,-0.248,-0.924
20.533,-0.119,-0.248,-0.926
20.543,-0.121,-0.250,-0.924
20.553,-0.119,-0.246,-0.926
20.563,-0.121,-0.248,-0.926
20.573,-0.121,-0.246,-0.924
20.583,-0.121,-0.246,-0.926
20.593,-0.119,-0.248,-0.930
20.603,-0.119,-0.246,-0.926
20.613,-0.117,-0.246,-0.924
20.623,-0.117,-0.246,-0.928
20.633,-0.121,-0.244,-0.924
20.643,-0.121,-0.246,-0.920
20.653,-0.117,-0.244,-0.926
20.663,-0.119,-0.246,-0.928
20.673,-0.125,-0.244,-0.928
20.683,-0.119,-0.250,-0.924
20.693,-0.117,-0.246,-0.926
20.703,-0.117,-0.248,-0.926
20.713,-0.119,-0.244,-0.926
20.723,-0.121,-0.244,-0.922
20.733,-0.119,-0.244,-0.928
20.743,-0.119,-0.248,-0.924
20.753,-0.119,-0.246,-0.926
20.763,-0.121,-0.246,-0.926
20.773,-0.121,-0.246,-0.924
20.783,-0.119,-0.248,-0.924
20.793,-0.119,-0.246,-0.926
20.803,-0.117,-0.248,-0.928
20.813,-0.117,-0.246,-0.926
20.823,-0.119,-0.248,-0.924
20.833,-0.119,-0.248,-0.924
20.843,-0.121,-0.248,-0.922
20.853,-0.121,-0.246,-0.926
20.863,-0.117,-0.244,-0.924
20.873,-0.119,-0.248,-0.928
20.883,-0.117,-0.248,-0.924
20.893,-0.117,-0.250,-0.926
20.903,-0.119,-0.246,-0.928
20.913,-0.119,-0.246,-0.926
20.923,-0.119,-0.244,-0.924
20.933,-0.121,-0.246,-0.928
20.943,-0.121,-0.246,-0.926
20.953,-0.117,-0.248,-0.922
20.963,-0.119,-0.248,-0.924
20.973,-0.119,-0.244,-0.926
20.983,-0.121,-0.248,-0.926
20.993,-0.117,-0.248,-0.930
21.003,-0.121,-0.246,-0.926
21.013,-0.121,-0.244,-0.924
21.023,-0.121,-0.244,-0.926
21.033,-0.119,-0.248,-0.928
21.043,-0.119,-0.248,-0.926
21.053,-0.119,-0.250,-0.924
21.063,-0.117,-0.246,-0.924
21.073,-0.117,-0.246,-0.924
21.083,-0.119,-0.244,-0.926
21.093,-0.119,-0.248,-0.926
21.103,-0.119,-0.246,-0.926
21.113,-0.115,-0.248,-0.924
21.123,-0.121,-0.246,-0.928
21.133,-0.115,-0.246,-0.926
21.143,-0.115,-0.246,-0.926
21.153,-0.117,-0.248,-0.926
21.163,-0.121,-0.244,-0.926
21.173,-0.119,-0.244,-0.924
21.183,-0.123,-0.248,-0.930
21.193,-0.119,-0.246,-0.926
21.203,-0.117,-0.248,-0.928
21.213,-0.117,-0.244,-0.924
21.223,-0.119,-0.244,-0.930
21.233,-0.117,-0.248,-0.924
21.243,-0.119,-0.246,-0.924
21.253,-0.117,-0.244,-0.924
21.263,-0.119,-0.244,-0.926
21.273,-0.117,-0.246,-0.924
21.283,-0.119,-0.248,-0.926
21.293,-0.117,-0.246,-0.924
21.303,-0.117,-0.248,-0.928
21.313,-0.119,-0.246,-0.928
21.323,-0.117,-0.248,-0.926
21.333,-0.119,-0.246,-0.928
21.343,-0.119,-0.246,-0.926
21.353,-0.119,-0.248,-0.924
21.363,-0.119,-0.248,-0.926
21.373,-0.117,-0.246,-0.928
21.383,-0.117,-0.248,-0.922
21.393,-0.119,-0.248,-0.926
21.403,-0.117,-0.248,-0.926
21.413,-0.115,-0.246,-0.928
21.423,-0.117,-0.246,-0.924
21.433,-0.117,-0.246,-0.928
21.443,-0.119,-0.250,-0.926
21.453,-0.119,-0.248,-0.926
21.463,-0.117,-0.246,-0.924
21.473,-0.121,-0.248,-0.924
21.483,-0.119,-0.244,-0.926
21.493,-0.117,-0.248,-0.922
21.503,-0.119,-0.248,-0.926
21.513,-0.119,-0.246,-0.926
21.523,-0.117,-0.248,-0.926
21.533,-0.119,-0.246,-0.928
21.543,-0.119,-0.248,-0.924
21.553,-0.121,-0.248,-0.924
21.563,-0.117,-0.246,-0.924
21.573,-0.115,-0.248,-0.926
21.583,-0.117,-0.246,-0.924
21.593,-0.115,-0.244,-0.926
21.603,-0.119,-0.246,-0.924
21.613,-0.117,-0.248,-0.926
21.623,-0.117,-0.246,-0.928
21.633,-0.121,-0.246,-0.928
21.643,-0.119,-0.246,-0.922
21.653,-0.119,-0.246,-0.924
21.663,-0.117,-0.244,-0.926
21.673,-0.119,-0.246,-0.926
21.683,-0.119,-0.248,-0.924
21.693,-0.117,-0.246,-0.926
21.703,-0.119,-0.244,-0.926
21.713,-0.119,-0.242,-0.928
21.723,-0.119,-0.248,-0.926
21.733,-0.119,-0.246,-0.922
21.743,-0.119,-0.250,-0.924
21.753,-0.119,-0.248,-0.924
21.763,-0.117,-0.246,-0.924
21.773,-0.117,-0.246,-0.926
21.783,-0.117,-0.246,-0.926
21.793,-0.115,-0.246,-0.926
21.803,-0.117,-0.248,-0.922
21.813,-0.119,-0.248,-0.926
21.823,-0.119,-0.242,-0.924
21.833,-0.117,-0.244,-0.928
21.843,-0.119,-0.246,-0.926
21.853,-0.117,-0.244,-0.924
21.863,-0.117,-0.246,-0.924
21.873,-0.119,-0.246,-0.928
21.883,-0.119,-0.246,-0.928
21.893,-0.119,-0.244,-0.924
21.903,-0.119,-0.246,-0.926
21.913,-0.117,-0.248,-0.926
21.923,-0.119,-0.246,-0.926
21.933,-0.119,-0.248,-0.928
21.943,-0.121,-0.248,-0.922
21.953,-0.117,-0.246,-0.926
21.963,-0.119,-0.246,-0.926
21.973,-0.117,-0.248,-0.928
21.983,-0.117,-0.248,-0.930
21.993,-0.119,-0.248,-0.924
22.003,-0.117,-0.248,-0.926
22.013,-0.115,-0.246,-0.928
22.023,-0.117,-0.246,-0.926
22.033,-0.117,-0.248,-0.926
22.043,-0.119,-0.246,-0.926
22.053,-0.119,-0.246,-0.926
22.063,-0.117,-0.246,-0.922
22.073,-0.117,-0.246,-0.926
22.083,-0.117,-0.246,-0.926
22.093,-0.119,-0.246,-0.926
22.103,-0.119,-0.244,-0.928
22.113,-0.119,-0.248,-0.924
22.123,-0.117,-0.248,-0.924
22.133,-0.119,-0.246,-0.926
22.143,-0.119,-0.246,-0.926
22.153,-0.119,-0.248,-0.922
22.163,-0.119,-0.244,-0.924
22.173,-0.121,-0.244,-0.928
22.183,-0.117,-0.248,-0.926
22.193,-0.119,-0.246,-0.924
22.203,-0.119,-0.248,-0.926
22.213,-0.121,-0.248,-0.928
22.223,-0.115,-0.246,-0.926
22.233,-0.119,-0.244,-0.924
22.243,-0.117,-0.244,-0.926
22.253,-0.115,-0.246,-0.924
22.263,-0.119,-0.246,-0.926
22.273,-0.119,-0.246,-0.924
22.283,-0.119,-0.248,-0.928
22.293,-0.121,-0.246,-0.924
22.303,-0.119,-0.244,-0.930
22.313,-0.119,-0.242,-0.928
22.323,-0.117,-0.244,-0.926
22.333,-0.117,-0.248,-0.926
22.343,-0.117,-0.246,-0.928
22.353,-0.119,-0.248,-0.926
22.363,-0.119,-0.246,-0.924
22.373,-0.119,-0.244,-0.922
22.383,-0.119,-0.244,-0.924
22.393,-0.119,-0.244,-0.928
22.403,-0.117,-0.244,-0.926
22.413,-0.117,-0.244,-0.926
22.423,-0.117,-0.246,-0.926
22.433,-0.117,-0.242,-0.928
22.443,-0.119,-0.248,-0.928
22.453,-0.119,-0.246,-0.926
22.463,-0.117,-0.242,-0.928
22.473,-0.119,-0.246,-0.928
22.483,-0.121,-0.248,-0.924
22.493,-0.119,-0.244,-0.928
22.503,-0.117,-0.246,-0.922
22.513,-0.117,-0.250,-0.924
22.523,-0.117,-0.246,-0.926
22.533,-0.117,-0.244,-0.924
22.543,-0.119,-0.248,-0.924
22.553,-0.117,-0.246,-0.922
22.563,-0.119,-0.244,-0.926
22.573,-0.117,-0.246,-0.926
22.583,-0.119,-0.244,-0.926
22.593,-0.121,-0.244,-0.922
22.603,-0.115,-0.246,-0.928
22.613,-0.121,-0.244,-0.924
22.623,-0.117,-0.244,-0.926
22.633,-0.115,-0.248,-0.926
22.643,-0.119,-0.246,-0.924
22.653,-0.117,-0.246,-0.922
22.663,-0.119,-0.244,-0.926
22.673,-0.119,-0.246,-0.926
22.683,-0.119,-0.246,-0.924
22.693,-0.117,-0.248,-0.926
22.703,-0.117,-0.246,-0.924
22.713,-0.117,-0.244,-0.928
22.723,-0.119,-0.244,-0.924
22.733,-0.117,-0.244,-0.924
22.743,-0.121,-0.246,-0.926
22.753,-0.117,-0.248,-0.924
22.763,-0.117,-0.246,-0.928
22.773,-0.119,-0.246,-0.922
22.783,-0.115,-0.248,-0.924
22.793,-0.117,-0.248,-0.928
22.803,-0.121,-0.244,-0.924
22.813,-0.121,-0.246,-0.924
22.823,-0.121,-0.246,-0.926
22.833,-0.119,-0.248,-0.928
22.843,-0.115,-0.246,-0.926
22.853,-0.119,-0.246,-0.926
22.863,-0.117,-0.246,-0.926
22.873,-0.117,-0.248,-0.922
22.883,-0.117,-0.248,-0.924
22.893,-0.117,-0.246,-0.928
22.903,-0.119,-0.246,-0.924
22.913,-0.119,-0.246,-0.924
22.923,-0.119,-0.246,-0.926
22.933,-0.115,-0.244,-0.924
22.943,-0.117,-0.244,-0.926
22.953,-0.117,-0.248,-0.930
22.963,-0.115,-0.244,-0.926
22.973,-0.119,-0.246,-0.922
22.983,-0.119,-0.246,-0.924
22.993,-0.115,-0.248,-0.930
23.003,-0.117,-0.248,-0.926
23.013,-0.117,-0.248,-0.926
23.023,-0.119,-0.246,-0.926
23.033,-0.117,-0.248,-0.926
23.043,-0.119,-0.246,-0.924
23.053,-0.121,-0.248,-0.926
23.063,-0.119,-0.248,-0.926
23.073,-0.117,-0.244,-0.926
23.083,-0.113,-0.248,-0.928
23.093,-0.115,-0.246,-0.926
23.103,-0.115,-0.244,-0.926
23.113,-0.113,-0.246,-0.924
23.123,-0.117,-0.248,-0.924
23.133,-0.119,-0.244,-0.924
23.143,-0.119,-0.246,-0.924
23.153,-0.119,-0.246,-0.922
23.163,-0.119,-0.246,-0.924
23.173,-0.119,-0.248,-0.922
23.183,-0.115,-0.244,-0.924
23.193,-0.117,-0.246,-0.920
23.203,-0.117,-0.250,-0.926
23.213,-0.117,-0.246,-0.924
23.223,-0.119,-0.248,-0.926
23.233,-0.117,-0.244,-0.926
23.243,-0.117,-0.246,-0.928
23.253,-0.117,-0.246,-0.926
23.263,-0.119,-0.248,-0.928
23.273,-0.117,-0.248,-0.930
23.283,-0.117,-0.246,-0.922
23.293,-0.117,-0.246,-0.924
23.303,-0.117,-0.246,-0.924
23.313,-0.117,-0.244,-0.928
23.323,-0.119,-0.248,-0.926
23.333,-0.119,-0.246,-0.920
23.343,-0.117,-0.246,-0.926
23.353,-0.121,-0.248,-0.926
23.363,-0.117,-0.248,-0.926
23.373,-0.119,-0.244,-0.930
23.383,-0.115,-0.244,-0.928
23.393,-0.115,-0.248,-0.926
23.403,-0.117,-0.246,-0.924
23.413,-0.117,-0.250,-0.928
23.423,-0.117,-0.244,-0.926
23.433,-0.119,-0.246,-0.926
23.443,-0.119,-0.244,-0.926
23.453,-0.119,-0.244,-0.928
23.463,-0.113,-0.248,-0.924
23.473,-0.115,-0.246,-0.926
23.483,-0.115,-0.244,-0.924
23.493,-0.117,-0.246,-0.924
23.503,-0.121,-0.246,-0.926
23.513,-0.115,-0.244,-0.924
23.523,-0.117,-0.250,-0.928
23.533,-0.117,-0.246,-0.928
23.543,-0.117,-0.244,-0.928
23.553,-0.117,-0.246,-0.924
23.563,-0.115,-0.246,-0.922
23.573,-0.117,-0.250,-0.930
23.583,-0.115,-0.244,-0.924
23.593,-0.117,-0.244,-0.926
23.603,-0.121,-0.246,-0.928
23.613,-0.121,-0.248,-0.922
23.623,-0.117,-0.250,-0.926
23.633,-0.113,-0.248,-0.926
23.643,-0.113,-0.248,-0.922
23.653,-0.115,-0.244,-0.926
23.663,-0.119,-0.246,-0.926
23.673,-0.119,-0.248,-0.924
23.683,-0.119,-0.248,-0.924
23.693,-0.117,-0.250,-0.926
23.703,-0.117,-0.246,-0.926
23.713,-0.119,-0.244,-0.922
23.723,-0.119,-0.242,-0.926
23.733,-0.115,-0.246,-0.926
23.743,-0.117,-0.248,-0.928
23.753,-0.119,-0.250,-0.928
23.763,-0.115,-0.250,-0.922
23.773,-0.115,-0.250,-0.922
23.783,-0.113,-0.248,-0.924
23.793,-0.113,-0.246,-0.926
23.803,-0.119,-0.244,-0.924
23.813,-0.119,-0.246,-0.924
23.823,-0.121,-0.246,-0.924
23.833,-0.119,-0.250,-0.926
23.843,-0.119,-0.248,-0.924
23.853,-0.117,-0.246,-0.924
23.863,-0.119,-0.244,-0.928
23.873,-0.115,-0.244,-0.924
23.883,-0.115,-0.246,-0.928
23.893,-0.117,-0.246,-0.928
23.903,-0.121,-0.246,-0.924
23.913,-0.119,-0.246,-0.926
23.923,-0.115,-0.244,-0.926
23.933,-0.113,-0.244,-0.924
23.943,-0.117,-0.244,-0.924
23.953,-0.117,-0.248,-0.924
23.963,-0.117,-0.246,-0.928
23.973,-0.117,-0.248,-0.924
23.983,-0.115,-0.246,-0.924
23.993,-0.115,-0.246,-0.932
24.003,-0.113,-0.248,-0.926
24.013,-0.117,-0.244,-0.924
24.023,-0.121,-0.246,-0.928
24.033,-0.119,-0.244,-0.926
24.043,-0.119,-0.252,-0.926
24.053,-0.121,-0.248,-0.922
24.063,-0.113,-0.246,-0.924
24.073,-0.115,-0.246,-0.926
24.083,-0.117,-0.248,-0.920
24.093,-0.113,-0.248,-0.922
24.103,-0.115,-0.248,-0.924
24.113,-0.119,-0.246,-0.926
24.123,-0.121,-0.244,-0.926
24.133,-0.121,-0.246,-0.926
24.143,-0.119,-0.246,-0.928
24.153,-0.115,-0.242,-0.926
24.163,-0.113,-0.244,-0.922
24.173,-0.111,-0.246,-0.930
24.183,-0.113,-0.246,-0.924
24.193,-0.117,-0.246,-0.924
24.203,-0.121,-0.244,-0.924
24.213,-0.121,-0.246,-0.928
24.223,-0.119,-0.248,-0.924
24.233,-0.115,-0.246,-0.926
24.243,-0.113,-0.246,-0.922
24.253,-0.111,-0.248,-0.922
24.263,-0.113,-0.248,-0.924
24.273,-0.117,-0.246,-0.930
24.283,-0.119,-0.246,-0.924
24.293,-0.121,-0.246,-0.922
24.303,-0.121,-0.248,-0.924
24.313,-0.115,-0.246,-0.926
24.323,-0.115,-0.248,-0.926
24.333,-0.113,-0.246,-0.928
24.343,-0.117,-0.248,-0.928
24.353,-0.119,-0.246,-0.924
24.363,-0.115,-0.246,-0.926
24.373,-0.117,-0.250,-0.928
24.383,-0.117,-0.246,-0.926
24.393,-0.121,-0.246,-0.926
24.403,-0.119,-0.246,-0.926
24.413,-0.119,-0.244,-0.926
24.423,-0.119,-0.246,-0.928
24.433,-0.115,-0.244,-0.928
24.443,-0.113,-0.246,-0.926
24.453,-0.115,-0.248,-0.922
24.463,-0.117,-0.246,-0.930
24.473,-0.119,-0.248,-0.930
24.483,-0.119,-0.246,-0.928
24.493,-0.123,-0.246,-0.926
24.503,-0.119,-0.246,-0.924
24.513,-0.117,-0.244,-0.924
24.523,-0.117,-0.246,-0.924
24.533,-0.113,-0.248,-0.924
24.543,-0.111,-0.248,-0.926
24.553,-0.113,-0.248,-0.926
24.563,-0.117,-0.242,-0.926
24.573,-0.121,-0.240,-0.926
24.583,-0.121,-0.244,-0.926
24.593,-0.119,-0.244,-0.928
24.603,-0.117,-0.248,-0.926
24.613,-0.111,-0.248,-0.928
24.623,-0.113,-0.250,-0.928
24.633,-0.113,-0.248,-0.926
24.643,-0.115,-0.246,-0.926
24.653,-0.117,-0.246,-0.924
24.663,-0.119,-0.244,-0.930
24.673,-0.119,-0.248,-0.926
24.683,-0.117,-0.250,-0.926
24.693,-0.117,-0.250,-0.926
24.703,-0.115,-0.246,-0.922
24.713,-0.117,-0.238,-0.924
24.723,-0.115,-0.244,-0.922
24.733,-0.115,-0.246,-0.924
24.743,-0.115,-0.248,-0.928
24.753,-0.117,-0.248,-0.926
24.763,-0.117,-0.248,-0.924
24.773,-0.117,-0.246,-0.928
24.783,-0.115,-0.242,-0.928
24.793,-0.117,-0.242,-0.924
24.803,-0.119,-0.246,-0.924
24.813,-0.115,-0.246,-0.924
24.823,-0.115,-0.250,-0.924
24.833,-0.115,-0.248,-0.928
24.843,-0.117,-0.248,-0.928
24.853,-0.117,-0.244,-0.926
24.863,-0.119,-0.244,-0.924
24.873,-0.117,-0.248,-0.930
24.883,-0.119,-0.244,-0.924
24.893,-0.117,-0.246,-0.926
24.903,-0.117,-0.248,-0.928
24.913,-0.115,-0.246,-0.926
24.923,-0.115,-0.248,-0.924
24.933,-0.113,-0.244,-0.924
24.943,-0.115,-0.244,-0.930
24.953,-0.117,-0.246,-0.926
24.963,-0.117,-0.248,-0.926
24.973,-0.119,-0.248,-0.926
24.983,-0.117,-0.244,-0.924
24.993,-0.115,-0.244,-0.924
25.003,-0.117,-0.246,-0.928
25.013,-0.115,-0.250,-0.928
25.023,-0.115,-0.248,-0.922
25.033,-0.113,-0.248,-0.928
25.043,-0.117,-0.246,-0.926
25.053,-0.117,-0.244,-0.926
25.063,-0.119,-0.242,-0.930
25.073,-0.117,-0.246,-0.926
25.083,-0.113,-0.246,-0.924
25.093,-0.115,-0.246,-0.926
25.103,-0.115,-0.246,-0.928
25.113,-0.115,-0.246,-0.924
25.123,-0.117,-0.246,-0.926
25.133,-0.119,-0.246,-0.924
25.143,-0.115,-0.246,-0.930
25.153,-0.115,-0.246,-0.926
25.163,-0.111,-0.248,-0.924
25.173,-0.115,-0.250,-0.926
25.183,-0.117,-0.246,-0.924
25.193,-0.119,-0.246,-0.926
25.203,-0.119,-0.246,-0.926
25.213,-0.117,-0.248,-0.926
25.223,-0.113,-0.246,-0.928
25.233,-0.113,-0.244,-0.926
25.243,-0.113,-0.244,-0.924
25.253,-0.111,-0.248,-0.924
25.263,-0.113,-0.250,-0.930
25.273,-0.113,-0.244,-0.928
25.283,-0.117,-0.244,-0.926
25.293,-0.121,-0.246,-0.926
25.303,-0.119,-0.244,-0.926
25.313,-0.117,-0.244,-0.920
25.323,-0.115,-0.246,-0.926
25.333,-0.113,-0.250,-0.926
25.343,-0.113,-0.248,-0.924
25.353,-0.117,-0.244,-0.928
25.363,-0.119,-0.248,-0.924
25.373,-0.115,-0.246,-0.930
25.383,-0.117,-0.244,-0.930
25.393,-0.115,-0.248,-0.926
25.403,-0.111,-0.246,-0.924
25.413,-0.117,-0.244,-0.924
25.423,-0.117,-0.244,-0.924
25.433,-0.117,-0.246,-0.922
25.443,-0.117,-0.250,-0.924
25.453,-0.115,-0.248,-0.928
25.463,-0.113,-0.248,-0.926
25.473,-0.115,-0.246,-0.928
25.483,-0.111,-0.244,-0.922
25.493,-0.113,-0.246,-0.924
25.503,-0.113,-0.246,-0.924
25.513,-0.117,-0.244,-0.924
25.523,-0.119,-0.246,-0.926
25.533,-0.115,-0.244,-0.924
25.543,-0.117,-0.246,-0.926
25.553,-0.113,-0.248,-0.926
25.563,-0.115,-0.246,-0.926
25.573,-0.117,-0.248,-0.924
25.583,-0.115,-0.248,-0.928
25.593,-0.119,-0.244,-0.926
25.603,-0.119,-0.246,-0.922
25.613,-0.117,-0.244,-0.926
25.623,-0.117,-0.246,-0.924
25.633,-0.115,-0.250,-0.924
25.643,-0.113,-0.248,-0.922
25.653,-0.109,-0.248,-0.928
25.663,-0.115,-0.244,-0.928
25.673,-0.117,-0.242,-0.924
25.683,-0.121,-0.246,-0.924
25.693,-0.117,-0.248,-0.924
25.703,-0.117,-0.252,-0.922
25.713,-0.113,-0.248,-0.930
25.723,-0.113,-0.246,-0.914
25.733,-0.123,-0.240,-0.912
25.743,-0.119,-0.230,-0.934
25.753,-0.094,-0.262,-0.939
25.763,-0.102,-0.254,-0.932
25.773,-0.109,-0.242,-0.943
25.783,-0.117,-0.248,-0.926
25.793,-0.104,-0.250,-0.932
25.803,-0.125,-0.248,-0.912
25.813,-0.125,-0.234,-0.924
25.823,-0.107,-0.244,-0.943
25.833,-0.115,-0.250,-0.924
25.843,-0.117,-0.252,-0.924
25.853,-0.107,-0.250,-0.930
25.863,-0.107,-0.244,-0.926
25.873,-0.117,-0.240,-0.914
25.883,-0.117,-0.244,-0.920
25.893,-0.119,-0.250,-0.930
25.903,-0.115,-0.244,-0.932
25.913,-0.125,-0.248,-0.924
25.923,-0.111,-0.256,-0.934
25.933,-0.113,-0.240,-0.928
25.943,-0.117,-0.236,-0.926
25.953,-0.109,-0.244,-0.922
25.963,-0.107,-0.248,-0.930
25.973,-0.115,-0.250,-0.924
25.983,-0.115,-0.254,-0.924
25.993,-0.125,-0.238,-0.906
26.003,-0.121,-0.250,-0.936
26.013,-0.104,-0.240,-0.938
26.023,-0.094,-0.238,-0.920
26.033,-0.117,-0.262,-0.932
26.043,-0.115,-0.246,-0.947
26.053,-0.121,-0.238,-0.918
26.063,-0.129,-0.244,-0.912
26.073,-0.115,-0.236,-0.922
26.083,-0.105,-0.254,-0.930
26.093,-0.117,-0.252,-0.922
26.103,-0.117,-0.236,-0.920
26.113,-0.121,-0.246,-0.922
26.123,-0.109,-0.254,-0.936
26.133,-0.113,-0.246,-0.943
26.143,-0.104,-0.232,-0.965
26.153,-0.123,-0.232,-0.857
26.163,-0.160,-0.229,-0.893
26.173,-0.111,-0.219,-0.967
26.183,-0.141,-0.254,-0.902
26.193,-0.121,-0.232,-0.959
26.203,-0.131,-0.262,-0.912
26.213,-0.096,-0.273,-0.939
26.223,-0.088,-0.240,-0.928
26.233,-0.107,-0.252,-0.896
26.243,-0.102,-0.244,-0.918
26.253,-0.109,-0.240,-0.934
26.263,-0.141,-0.252,-0.926
26.273,-0.133,-0.234,-0.924
26.283,-0.127,-0.242,-0.939
26.293,-0.119,-0.260,-0.941
26.303,-0.107,-0.232,-0.916
26.313,-0.102,-0.240,-0.924
26.323,-0.105,-0.254,-0.922
26.333,-0.107,-0.246,-0.918
26.343,-0.117,-0.258,-0.930
26.353,-0.125,-0.246,-0.920
26.363,-0.123,-0.238,-0.930
26.373,-0.119,-0.246,-0.936
26.383,-0.119,-0.232,-0.924
26.393,-0.115,-0.238,-0.922
26.403,-0.105,-0.256,-0.928
26.413,-0.104,-0.254,-0.932
26.423,-0.107,-0.256,-0.922
26.433,-0.117,-0.248,-0.922
26.443,-0.115,-0.242,-0.926
26.453,-0.119,-0.244,-0.930
26.463,-0.123,-0.242,-0.926
26.473,-0.117,-0.244,-0.926
26.483,-0.117,-0.250,-0.926
26.493,-0.115,-0.250,-0.930
26.503,-0.113,-0.246,-0.924
26.513,-0.109,-0.244,-0.922
26.523,-0.113,-0.244,-0.920
26.533,-0.113,-0.246,-0.928
26.543,-0.113,-0.250,-0.930
26.553,-0.119,-0.248,-0.926
26.563,-0.119,-0.248,-0.926
26.573,-0.119,-0.244,-0.924
26.583,-0.115,-0.246,-0.930
26.593,-0.115,-0.244,-0.924
26.603,-0.113,-0.244,-0.922
26.613,-0.109,-0.252,-0.926
26.623,-0.111,-0.252,-0.926
26.633,-0.111,-0.248,-0.924
26.643,-0.113,-0.246,-0.928
26.653,-0.117,-0.244,-0.926
26.663,-0.121,-0.244,-0.926
26.673,-0.117,-0.240,-0.922
26.683,-0.115,-0.244,-0.928
26.693,-0.113,-0.250,-0.928
26.703,-0.109,-0.248,-0.926
26.713,-0.113,-0.248,-0.924
26.723,-0.113,-0.244,-0.922
26.733,-0.115,-0.244,-0.928
26.743,-0.115,-0.246,-0.928
26.753,-0.117,-0.246,-0.924
26.763,-0.117,-0.252,-0.928
26.773,-0.113,-0.248,-0.930
26.783,-0.111,-0.250,-0.928
26.793,-0.113,-0.246,-0.924
26.803,-0.113,-0.244,-0.926
26.813,-0.115,-0.244,-0.926
26.823,-0.117,-0.248,-0.924
26.833,-0.113,-0.246,-0.928
26.843,-0.115,-0.246,-0.926
26.853,-0.113,-0.250,-0.924
26.863,-0.117,-0.246,-0.926
26.873,-0.115,-0.246,-0.922
26.883,-0.117,-0.246,-0.924
26.893,-0.117,-0.246,-0.926
26.903,-0.115,-0.248,-0.926
26.913,-0.115,-0.248,-0.926
26.923,-0.113,-0.246,-0.926
26.933,-0.115,-0.244,-0.920
26.943,-0.117,-0.244,-0.922
26.953,-0.113,-0.244,-0.926
26.963,-0.117,-0.246,-0.928
26.973,-0.117,-0.248,-0.924
26.983,-0.113,-0.248,-0.926
26.993,-0.113,-0.250,-0.928
27.003,-0.115,-0.244,-0.924
27.013,-0.111,-0.248,-0.924
27.023,-0.111,-0.248,-0.924
27.033,-0.111,-0.244,-0.926
27.043,-0.109,-0.246,-0.926
27.053,-0.113,-0.246,-0.926
27.063,-0.117,-0.250,-0.926
27.073,-0.115,-0.248,-0.922
27.083,-0.115,-0.244,-0.926
27.093,-0.113,-0.246,-0.928
27.103,-0.111,-0.244,-0.924
27.113,-0.115,-0.246,-0.926
27.123,-0.113,-0.246,-0.928
27.133,-0.115,-0.246,-0.926
27.143,-0.117,-0.248,-0.928
27.153,-0.111,-0.244,-0.930
27.163,-0.113,-0.244,-0.926
27.173,-0.113,-0.244,-0.926
27.183,-0.113,-0.248,-0.928
27.193,-0.115,-0.244,-0.928
27.203,-0.115,-0.248,-0.930
27.213,-0.113,-0.248,-0.928
27.223,-0.111,-0.246,-0.926
27.233,-0.113,-0.240,-0.928
27.243,-0.113,-0.244,-0.924
27.253,-0.113,-0.246,-0.924
27.263,-0.111,-0.246,-0.924
27.273,-0.113,-0.250,-0.924
27.283,-0.113,-0.246,-0.928
27.293,-0.113,-0.244,-0.924
27.303,-0.113,-0.246,-0.926
27.313,-0.113,-0.244,-0.926
27.323,-0.117,-0.242,-0.928
27.333,-0.117,-0.246,-0.920
27.343,-0.119,-0.246,-0.924
27.353,-0.115,-0.254,-0.930
27.363,-0.113,-0.248,-0.926
27.373,-0.107,-0.252,-0.926
27.383,-0.107,-0.246,-0.924
27.393,-0.107,-0.246,-0.924
27.403,-0.115,-0.244,-0.926
27.413,-0.119,-0.240,-0.922
27.423,-0.121,-0.248,-0.924
27.433,-0.119,-0.246,-0.932
27.443,-0.119,-0.250,-0.924
27.453,-0.115,-0.246,-0.922
27.463,-0.107,-0.246,-0.928
27.473,-0.109,-0.250,-0.932
27.483,-0.109,-0.244,-0.926
27.493,-0.111,-0.248,-0.928
27.503,-0.113,-0.248,-0.926
27.513,-0.119,-0.248,-0.924
27.523,-0.117,-0.246,-0.924
27.533,-0.113,-0.246,-0.924
27.543,-0.113,-0.242,-0.920
27.553,-0.113,-0.246,-0.924
27.563,-0.113,-0.246,-0.924
27.573,-0.111,-0.248,-0.926
27.583,-0.111,-0.248,-0.930
27.593,-0.117,-0.242,-0.924
27.603,-0.115,-0.244,-0.932
27.613,-0.109,-0.246,-0.928
27.623,-0.115,-0.246,-0.926
27.633,-0.117,-0.244,-0.924
27.643,-0.113,-0.246,-0.928
27.653,-0.111,-0.250,-0.930
27.663,-0.111,-0.246,-0.924
27.673,-0.113,-0.246,-0.926
27.683,-0.111,-0.246,-0.924
27.693,-0.111,-0.248,-0.924
27.703,-0.115,-0.248,-0.924
27.713,-0.117,-0.248,-0.926
27.723,-0.115,-0.246,-0.926
27.733,-0.113,-0.248,-0.930
27.743,-0.111,-0.246,-0.926
27.753,-0.113,-0.242,-0.924
27.763,-0.109,-0.242,-0.922
27.773,-0.115,-0.246,-0.926
27.783,-0.111,-0.252,-0.930
27.793,-0.117,-0.246,-0.926
27.803,-0.115,-0.244,-0.926
27.813,-0.115,-0.248,-0.924
27.823,-0.111,-0.244,-0.930
27.833,-0.109,-0.246,-0.928
27.843,-0.115,-0.246,-0.924
27.853,-0.113,-0.252,-0.926
27.863,-0.107,-0.252,-0.930
27.873,-0.113,-0.258,-0.922
27.883,-0.117,-0.236,-0.926
27.893,-0.107,-0.234,-0.941
27.903,-0.119,-0.236,-0.914
27.913,-0.104,-0.248,-0.926
27.923,-0.107,-0.260,-0.920
27.933,-0.119,-0.260,-0.932
27.943,-0.121,-0.246,-0.926
27.953,-0.119,-0.230,-0.914
27.963,-0.111,-0.234,-0.918
27.973,-0.111,-0.248,-0.932
27.983,-0.111,-0.260,-0.939
27.993,-0.121,-0.254,-0.932
28.003,-0.123,-0.242,-0.922
28.013,-0.119,-0.240,-0.924
28.023,-0.104,-0.242,-0.930
28.033,-0.100,-0.238,-0.926
28.043,-0.107,-0.242,-0.914
28.053,-0.113,-0.250,-0.924
28.063,-0.123,-0.258,-0.930
28.073,-0.125,-0.250,-0.930
28.083,-0.119,-0.242,-0.926
28.093,-0.109,-0.230,-0.926
28.103,-0.109,-0.242,-0.918
28.113,-0.107,-0.242,-0.918
28.123,-0.104,-0.254,-0.934
28.133,-0.115,-0.258,-0.916
28.143,-0.119,-0.250,-0.928
28.153,-0.117,-0.248,-0.926
28.163,-0.115,-0.238,-0.926
28.173,-0.113,-0.236,-0.922
28.183,-0.109,-0.244,-0.926
28.193,-0.107,-0.244,-0.930
28.203,-0.111,-0.254,-0.924
28.213,-0.115,-0.250,-0.926
28.223,-0.113,-0.250,-0.918
28.233,-0.115,-0.250,-0.924
28.243,-0.115,-0.240,-0.916
28.253,-0.113,-0.240,-0.920
28.263,-0.115,-0.246,-0.922
28.273,-0.115,-0.250,-0.926
28.283,-0.113,-0.252,-0.922
28.293,-0.111,-0.248,-0.928
28.303,-0.111,-0.242,-0.926
28.313,-0.111,-0.244,-0.924
28.323,-0.113,-0.240,-0.928
28.333,-0.113,-0.248,-0.924
28.343,-0.115,-0.252,-0.924
28.353,-0.115,-0.252,-0.928
28.363,-0.115,-0.248,-0.924
28.373,-0.115,-0.246,-0.924
28.383,-0.111,-0.250,-0.947
28.393,-0.088,-0.256,-0.916
28.403,-0.115,-0.258,-0.934
28.413,-0.121,-0.230,-0.912
28.423,-0.102,-0.254,-0.939
28.433,-0.109,-0.246,-0.932
28.443,-0.135,-0.246,-0.902
28.453,-0.107,-0.246,-0.920
28.463,-0.105,-0.242,-0.939
28.473,-0.111,-0.244,-0.918
28.483,-0.113,-0.250,-0.926
28.493,-0.109,-0.254,-0.932
28.503,-0.117,-0.250,-0.924
28.513,-0.113,-0.248,-0.922
28.523,-0.107,-0.246,-0.930
28.533,-0.113,-0.242,-0.924
28.543,-0.113,-0.244,-0.924
28.553,-0.111,-0.248,-0.928
28.563,-0.117,-0.248,-0.930
28.573,-0.119,-0.248,-0.928
28.583,-0.117,-0.246,-0.924
28.593,-0.111,-0.244,-0.926
28.603,-0.117,-0.242,-0.922
28.613,-0.113,-0.244,-0.922
28.623,-0.113,-0.244,-0.924
28.633,-0.109,-0.250,-0.928
28.643,-0.107,-0.250,-0.924
28.653,-0.107,-0.250,-0.926
28.663,-0.109,-0.246,-0.928
28.673,-0.113,-0.240,-0.926
28.683,-0.117,-0.242,-0.926
28.693,-0.119,-0.242,-0.928
28.703,-0.117,-0.250,-0.924
28.713,-0.111,-0.250,-0.922
28.723,-0.109,-0.248,-0.928
28.733,-0.104,-0.248,-0.926
28.743,-0.107,-0.242,-0.924
28.753,-0.111,-0.244,-0.928
28.763,-0.117,-0.244,-0.926
28.773,-0.121,-0.246,-0.928
28.783,-0.119,-0.244,-0.930
28.793,-0.117,-0.246,-0.926
28.803,-0.115,-0.244,-0.924
28.813,-0.105,-0.244,-0.926
28.823,-0.104,-0.246,-0.922
28.833,-0.109,-0.248,-0.922
28.843,-0.113,-0.248,-0.928
28.853,-0.119,-0.248,-0.928
28.863,-0.117,-0.248,-0.926
28.873,-0.117,-0.242,-0.930
28.883,-0.119,-0.238,-0.924
28.893,-0.109,-0.244,-0.926
28.903,-0.107,-0.248,-0.926
28.913,-0.107,-0.250,-0.924
28.923,-0.109,-0.252,-0.924
28.933,-0.113,-0.248,-0.924
28.943,-0.113,-0.246,-0.928
28.953,-0.115,-0.242,-0.926
28.963,-0.117,-0.242,-0.924
28.973,-0.115,-0.242,-0.924
28.983,-0.115,-0.248,-0.924
28.993,-0.111,-0.252,-0.926
29.003,-0.111,-0.248,-0.930
29.013,-0.109,-0.246,-0.926
29.023,-0.109,-0.246,-0.926
29.033,-0.111,-0.244,-0.926
29.043,-0.115,-0.246,-0.924
29.053,-0.113,-0.244,-0.928
29.063,-0.113,-0.246,-0.930
29.073,-0.115,-0.248,-0.926
29.083,-0.115,-0.246,-0.926
29.093,-0.113,-0.248,-0.926
29.103,-0.113,-0.244,-0.924
29.113,-0.115,-0.246,-0.926
29.123,-0.115,-0.246,-0.924
29.133,-0.111,-0.246,-0.924
29.143,-0.111,-0.250,-0.924
29.153,-0.113,-0.248,-0.926
29.163,-0.115,-0.246,-0.926
29.173,-0.113,-0.242,-0.926
29.183,-0.111,-0.246,-0.926
29.193,-0.115,-0.246,-0.928
29.203,-0.109,-0.244,-0.928
29.213,-0.111,-0.248,-0.924
29.223,-0.111,-0.246,-0.926
29.233,-0.113,-0.248,-0.924
29.243,-0.113,-0.244,-0.924
29.253,-0.113,-0.246,-0.924
29.263,-0.117,-0.244,-0.926
29.273,-0.117,-0.246,-0.928
29.283,-0.115,-0.248,-0.926
29.293,-0.113,-0.252,-0.926
29.303,-0.111,-0.248,-0.928
29.313,-0.109,-0.246,-0.930
29.323,-0.111,-0.244,-0.926
29.333,-0.111,-0.246,-0.926
29.343,-0.115,-0.246,-0.928
29.353,-0.113,-0.250,-0.926
29.363,-0.113,-0.248,-0.928
29.373,-0.111,-0.248,-0.926
29.383,-0.109,-0.246,-0.924
29.393,-0.113,-0.246,-0.926
29.403,-0.113,-0.246,-0.924
29.413,-0.111,-0.250,-0.924
29.423,-0.113,-0.248,-0.926
29.433,-0.113,-0.248,-0.926
29.443,-0.113,-0.246,-0.926
29.453,-0.111,-0.244,-0.924
29.463,-0.109,-0.248,-0.924
29.473,-0.113,-0.246,-0.928
29.483,-0.109,-0.246,-0.926
29.493,-0.111,-0.246,-0.926
29.503,-0.115,-0.246,-0.926
29.513,-0.113,-0.244,-0.926
29.523,-0.113,-0.244,-0.924
29.533,-0.113,-0.242,-0.926
29.543,-0.113,-0.246,-0.924
29.553,-0.111,-0.248,-0.922
29.563,-0.107,-0.250,-0.926
29.573,-0.109,-0.250,-0.930
29.583,-0.109,-0.248,-0.926
29.593,-0.117,-0.244,-0.924
29.603,-0.115,-0.242,-0.926
29.613,-0.115,-0.246,-0.926
29.623,-0.111,-0.244,-0.924
29.633,-0.113,-0.248,-0.924
29.643,-0.113,-0.248,-0.924
29.653,-0.107,-0.246,-0.924
29.663,-0.111,-0.244,-0.926
29.673,-0.115,-0.244,-0.924
29.683,-0.113,-0.244,-0.926
29.693,-0.113,-0.248,-0.924
29.703,-0.113,-0.248,-0.926
29.713,-0.113,-0.250,-0.926
29.723,-0.111,-0.246,-0.922
29.733,-0.109,-0.248,-0.924
29.743,-0.109,-0.246,-0.922
29.753,-0.113,-0.246,-0.924
29.763,-0.111,-0.246,-0.926
29.773,-0.111,-0.250,-0.924
29.783,-0.109,-0.244,-0.930
29.793,-0.115,-0.246,-0.924
29.803,-0.111,-0.246,-0.926
29.813,-0.115,-0.246,-0.924
29.823,-0.111,-0.246,-0.924
29.833,-0.111,-0.246,-0.928
29.843,-0.113,-0.246,-0.930
29.853,-0.111,-0.242,-0.924
29.863,-0.115,-0.242,-0.922
29.873,-0.113,-0.242,-0.926
29.883,-0.113,-0.246,-0.926
29.893,-0.111,-0.250,-0.928
29.903,-0.113,-0.246,-0.924
29.913,-0.111,-0.248,-0.926
29.923,-0.115,-0.246,-0.924
29.933,-0.113,-0.246,-0.926
29.943,-0.115,-0.246,-0.928
29.953,-0.113,-0.246,-0.926
29.963,-0.111,-0.246,-0.924
29.973,-0.109,-0.246,-0.928
29.983,-0.115,-0.246,-0.924
29.993,-0.113,-0.246,-0.924
30.003,-0.113,-0.246,-0.924
30.013,-0.113,-0.248,-0.932
30.023,-0.113,-0.246,-0.926
30.033,-0.113,-0.246,-0.924
30.043,-0.111,-0.248,-0.928
30.053,-0.113,-0.244,-0.928
30.063,-0.111,-0.244,-0.928
30.073,-0.113,-0.246,-0.924
30.083,-0.111,-0.248,-0.926
30.093,-0.113,-0.246,-0.928
30.103,-0.115,-0.248,-0.926
30.113,-0.113,-0.246,-0.922
30.123,-0.113,-0.240,-0.922
30.133,-0.109,-0.244,-0.920
30.143,-0.111,-0.244,-0.918
30.153,-0.113,-0.244,-0.918
30.163,-0.107,-0.248,-0.924
30.173,-0.113,-0.250,-0.926
30.183,-0.113,-0.250,-0.928
30.193,-0.111,-0.248,-0.938
30.203,-0.109,-0.252,-0.945
30.213,-0.111,-0.250,-0.945
30.223,-0.111,-0.240,-0.932
30.233,-0.115,-0.236,-0.922
30.243,-0.115,-0.236,-0.916
30.253,-0.113,-0.246,-0.918
30.263,-0.111,-0.252,-0.912
30.273,-0.115,-0.248,-0.914
30.283,-0.117,-0.246,-0.914
30.293,-0.113,-0.244,-0.926
30.303,-0.109,-0.242,-0.930
30.313,-0.107,-0.244,-0.936
30.323,-0.113,-0.246,-0.938
30.333,-0.111,-0.246,-0.938
30.343,-0.113,-0.252,-0.936
30.353,-0.113,-0.248,-0.928
30.363,-0.113,-0.242,-0.922
30.373,-0.113,-0.242,-0.920
30.383,-0.113,-0.246,-0.916
30.393,-0.113,-0.246,-0.922
30.403,-0.113,-0.246,-0.920
30.413,-0.113,-0.246,-0.924
30.423,-0.113,-0.244,-0.928
30.433,-0.113,-0.242,-0.928
30.443,-0.111,-0.242,-0.930
30.453,-0.111,-0.242,-0.928
30.463,-0.113,-0.248,-0.924
30.473,-0.113,-0.248,-0.928
30.483,-0.113,-0.248,-0.924
30.493,-0.111,-0.246,-0.922
30.503,-0.113,-0.242,-0.924
30.513,-0.111,-0.242,-0.920
30.523,-0.115,-0.242,-0.926
30.533,-0.113,-0.246,-0.926
30.543,-0.111,-0.248,-0.928
30.553,-0.111,-0.244,-0.930
30.563,-0.113,-0.246,-0.928
30.573,-0.111,-0.244,-0.928
30.583,-0.109,-0.242,-0.926
30.593,-0.113,-0.242,-0.926
30.603,-0.111,-0.244,-0.926
30.613,-0.111,-0.246,-0.926
30.623,-0.113,-0.246,-0.926
30.633,-0.111,-0.244,-0.926
30.643,-0.109,-0.244,-0.926
30.653,-0.109,-0.244,-0.926
30.663,-0.109,-0.244,-0.928
30.673,-0.113,-0.244,-0.926
30.683,-0.113,-0.244,-0.928
30.693,-0.113,-0.248,-0.924
30.703,-0.111,-0.246,-0.926
30.713,-0.104,-0.244,-0.922
30.723,-0.105,-0.242,-0.926
30.733,-0.107,-0.248,-0.930
30.743,-0.109,-0.244,-0.928
30.753,-0.115,-0.242,-0.926
30.763,-0.123,-0.240,-0.924
30.773,-0.131,-0.244,-0.928
30.783,-0.139,-0.246,-0.922
30.793,-0.123,-0.246,-0.920
30.803,-0.105,-0.248,-0.922
30.813,-0.086,-0.246,-0.924
30.823,-0.082,-0.244,-0.928
30.833,-0.094,-0.246,-0.930
30.843,-0.109,-0.246,-0.932
30.853,-0.123,-0.244,-0.930
30.863,-0.133,-0.242,-0.928
30.873,-0.127,-0.242,-0.926
30.883,-0.117,-0.244,-0.926
30.893,-0.105,-0.246,-0.928
30.903,-0.100,-0.246,-0.924
30.913,-0.100,-0.246,-0.918
30.923,-0.107,-0.244,-0.926
30.933,-0.111,-0.246,-0.928
30.943,-0.115,-0.244,-0.930
30.953,-0.117,-0.246,-0.928
30.963,-0.115,-0.242,-0.928
30.973,-0.117,-0.246,-0.926
30.983,-0.111,-0.242,-0.922
30.993,-0.109,-0.242,-0.922
31.003,-0.107,-0.242,-0.924
31.013,-0.107,-0.248,-0.924
31.023,-0.111,-0.246,-0.926
31.033,-0.113,-0.246,-0.926
31.043,-0.115,-0.244,-0.930
31.053,-0.115,-0.244,-0.930
31.063,-0.111,-0.248,-0.928
31.073,-0.109,-0.242,-0.930
31.083,-0.111,-0.244,-0.926
31.093,-0.111,-0.244,-0.928
31.103,-0.109,-0.242,-0.924
31.113,-0.111,-0.246,-0.926
31.123,-0.111,-0.242,-0.922
31.133,-0.113,-0.246,-0.926
31.143,-0.113,-0.244,-0.926
31.153,-0.109,-0.244,-0.926
31.163,-0.113,-0.240,-0.928
31.173,-0.111,-0.246,-0.924
31.183,-0.109,-0.244,-0.930
31.193,-0.109,-0.242,-0.930
31.203,-0.115,-0.244,-0.926
31.213,-0.111,-0.246,-0.926
31.223,-0.113,-0.246,-0.922
31.233,-0.113,-0.244,-0.926
31.243,-0.111,-0.242,-0.926
31.253,-0.111,-0.242,-0.924
31.263,-0.111,-0.244,-0.928
31.273,-0.109,-0.246,-0.930
31.283,-0.109,-0.244,-0.926
31.293,-0.111,-0.242,-0.930
31.303,-0.111,-0.242,-0.930
31.313,-0.111,-0.242,-0.926
31.323,-0.111,-0.242,-0.924
31.333,-0.111,-0.244,-0.922
31.343,-0.111,-0.244,-0.922
31.353,-0.113,-0.242,-0.928
31.363,-0.111,-0.244,-0.928
31.373,-0.109,-0.244,-0.926
31.383,-0.111,-0.244,-0.926
31.393,-0.113,-0.240,-0.926
31.403,-0.111,-0.246,-0.926
31.413,-0.111,-0.244,-0.928
31.423,-0.109,-0.244,-0.926
31.433,-0.109,-0.242,-0.926
31.443,-0.111,-0.246,-0.926
31.453,-0.111,-0.244,-0.924
31.463,-0.111,-0.242,-0.922
31.473,-0.111,-0.244,-0.926
31.483,-0.111,-0.244,-0.932
31.493,-0.111,-0.246,-0.924
31.503,-0.109,-0.244,-0.926
31.513,-0.111,-0.242,-0.928
31.523,-0.109,-0.244,-0.926
31.533,-0.113,-0.246,-0.926
31.543,-0.111,-0.246,-0.924
31.553,-0.111,-0.244,-0.926
31.563,-0.113,-0.244,-0.926
31.573,-0.111,-0.240,-0.930
31.583,-0.113,-0.240,-0.922
31.593,-0.107,-0.244,-0.924
31.603,-0.109,-0.244,-0.928
31.613,-0.111,-0.246,-0.926
31.623,-0.109,-0.246,-0.926
31.633,-0.111,-0.242,-0.926
31.643,-0.111,-0.244,-0.926
31.653,-0.113,-0.244,-0.926
31.663,-0.111,-0.242,-0.926
31.673,-0.115,-0.244,-0.926
31.683,-0.111,-0.244,-0.928
31.693,-0.109,-0.244,-0.928
31.703,-0.109,-0.246,-0.928
31.713,-0.109,-0.244,-0.924
31.723,-0.111,-0.244,-0.928
31.733,-0.111,-0.242,-0.926
31.743,-0.111,-0.244,-0.928
31.753,-0.113,-0.244,-0.928
31.763,-0.111,-0.246,-0.926
31.773,-0.111,-0.240,-0.928
31.783,-0.111,-0.244,-0.926
31.793,-0.109,-0.244,-0.926
31.803,-0.109,-0.244,-0.926
31.813,-0.109,-0.242,-0.924
31.823,-0.111,-0.242,-0.924
31.833,-0.113,-0.244,-0.928
31.843,-0.109,-0.248,-0.926
31.853,-0.109,-0.244,-0.928
31.863,-0.111,-0.242,-0.926
31.873,-0.107,-0.242,-0.928
31.883,-0.109,-0.244,-0.924
31.893,-0.109,-0.244,-0.926
31.903,-0.111,-0.246,-0.926
31.913,-0.115,-0.244,-0.928
31.923,-0.113,-0.242,-0.928
31.933,-0.115,-0.244,-0.924
31.943,-0.109,-0.240,-0.926
31.953,-0.111,-0.242,-0.922
31.963,-0.109,-0.246,-0.926
31.973,-0.111,-0.244,-0.928
31.983,-0.109,-0.244,-0.928
31.993,-0.113,-0.244,-0.926
32.003,-0.113,-0.240,-0.928
32.013,-0.113,-0.242,-0.922
32.023,-0.107,-0.242,-0.926
32.033,-0.109,-0.244,-0.924
32.043,-0.111,-0.242,-0.924
32.053,-0.109,-0.244,-0.928
32.063,-0.113,-0.246,-0.922
32.073,-0.111,-0.244,-0.926
32.083,-0.111,-0.240,-0.926
32.093,-0.113,-0.244,-0.924
32.103,-0.109,-0.244,-0.926
32.113,-0.109,-0.246,-0.930
32.123,-0.109,-0.244,-0.926
32.133,-0.111,-0.246,-0.926
32.143,-0.111,-0.246,-0.926
32.153,-0.115,-0.242,-0.928
32.163,-0.113,-0.244,-0.928
32.173,-0.109,-0.240,-0.926
32.183,-0.109,-0.242,-0.926
32.193,-0.109,-0.244,-0.928
32.203,-0.109,-0.244,-0.928
32.213,-0.109,-0.244,-0.926
32.223,-0.111,-0.242,-0.922
32.233,-0.113,-0.240,-0.924
32.243,-0.109,-0.244,-0.926
32.253,-0.113,-0.244,-0.930
32.263,-0.111,-0.244,-0.928
32.273,-0.113,-0.244,-0.924
32.283,-0.111,-0.244,-0.928
32.293,-0.111,-0.242,-0.928
32.303,-0.111,-0.244,-0.928
32.313,-0.113,-0.244,-0.924
32.323,-0.107,-0.246,-0.930
32.333,-0.111,-0.244,-0.928
32.343,-0.107,-0.242,-0.930
32.353,-0.109,-0.242,-0.926
32.363,-0.111,-0.240,-0.926
32.373,-0.111,-0.246,-0.928
32.383,-0.111,-0.244,-0.922
32.393,-0.113,-0.246,-0.926
32.403,-0.109,-0.242,-0.926
32.413,-0.113,-0.244,-0.928
32.423,-0.111,-0.244,-0.924
32.433,-0.111,-0.244,-0.930
32.443,-0.111,-0.244,-0.926
32.453,-0.113,-0.248,-0.928
32.463,-0.111,-0.244,-0.928
32.473,-0.107,-0.242,-0.926
32.483,-0.107,-0.242,-0.926
32.493,-0.107,-0.242,-0.926
32.503,-0.111,-0.244,-0.926
32.513,-0.113,-0.242,-0.924
32.523,-0.115,-0.244,-0.922
32.533,-0.113,-0.246,-0.928
32.543,-0.111,-0.244,-0.930
32.553,-0.109,-0.244,-0.926
32.563,-0.109,-0.244,-0.926
32.573,-0.111,-0.242,-0.924
32.583,-0.113,-0.246,-0.926
32.593,-0.109,-0.244,-0.926
32.603,-0.111,-0.246,-0.924
32.613,-0.113,-0.244,-0.926
32.623,-0.111,-0.244,-0.924
32.633,-0.111,-0.242,-0.928
32.643,-0.109,-0.244,-0.926
32.653,-0.109,-0.244,-0.924
32.663,-0.111,-0.242,-0.928
32.673,-0.111,-0.244,-0.926
32.683,-0.111,-0.244,-0.924
32.693,-0.109,-0.244,-0.926
32.703,-0.111,-0.242,-0.924
32.713,-0.111,-0.244,-0.926
32.723,-0.109,-0.242,-0.926
32.733,-0.113,-0.242,-0.924
32.743,-0.111,-0.244,-0.924
32.753,-0.109,-0.246,-0.926
32.763,-0.111,-0.246,-0.928
32.773,-0.109,-0.246,-0.928
32.783,-0.111,-0.242,-0.928
32.793,-0.111,-0.240,-0.926
32.803,-0.111,-0.244,-0.926
32.813,-0.111,-0.244,-0.932
32.823,-0.111,-0.242,-0.926
32.833,-0.109,-0.242,-0.924
32.843,-0.111,-0.244,-0.926
32.853,-0.113,-0.244,-0.928
32.863,-0.113,-0.242,-0.924
32.873,-0.111,-0.240,-0.924
32.883,-0.109,-0.242,-0.930
32.893,-0.111,-0.244,-0.926
32.903,-0.111,-0.246,-0.924
32.913,-0.115,-0.244,-0.926
32.923,-0.111,-0.244,-0.926
32.933,-0.111,-0.246,-0.926
32.943,-0.107,-0.246,-0.926
32.953,-0.109,-0.244,-0.926
32.963,-0.111,-0.244,-0.934
32.973,-0.105,-0.244,-0.930
32.983,-0.107,-0.242,-0.932
32.993,-0.107,-0.242,-0.926
33.003,-0.111,-0.240,-0.922
33.013,-0.113,-0.240,-0.924
33.023,-0.113,-0.244,-0.924
33.033,-0.111,-0.246,-0.920
33.043,-0.109,-0.244,-0.924
33.053,-0.111,-0.244,-0.926
33.063,-0.109,-0.240,-0.930
33.073,-0.109,-0.240,-0.928
33.083,-0.109,-0.242,-0.930
33.093,-0.109,-0.244,-0.930
33.103,-0.111,-0.244,-0.928
33.113,-0.109,-0.244,-0.922
33.123,-0.107,-0.246,-0.924
33.133,-0.107,-0.244,-0.924
33.143,-0.109,-0.242,-0.928
33.153,-0.109,-0.242,-0.926
33.163,-0.111,-0.242,-0.924
33.173,-0.111,-0.246,-0.928
33.183,-0.113,-0.242,-0.932
33.193,-0.113,-0.242,-0.922
33.203,-0.109,-0.242,-0.926
33.213,-0.107,-0.246,-0.926
33.223,-0.109,-0.242,-0.926
33.233,-0.111,-0.242,-0.924
33.243,-0.109,-0.244,-0.926
33.253,-0.113,-0.242,-0.928
33.263,-0.111,-0.242,-0.926
33.273,-0.109,-0.244,-0.926
33.283,-0.109,-0.242,-0.930
33.293,-0.109,-0.244,-0.928
33.303,-0.109,-0.242,-0.924
33.313,-0.111,-0.244,-0.924
33.323,-0.109,-0.246,-0.926
33.333,-0.113,-0.242,-0.924
33.343,-0.111,-0.244,-0.926
33.353,-0.113,-0.246,-0.922
33.363,-0.109,-0.244,-0.932
33.373,-0.113,-0.244,-0.924
33.383,-0.111,-0.240,-0.926
33.393,-0.109,-0.242,-0.924
33.403,-0.111,-0.246,-0.926
33.413,-0.107,-0.242,-0.928
33.423,-0.111,-0.244,-0.926
33.433,-0.109,-0.244,-0.926
33.443,-0.111,-0.244,-0.926
33.453,-0.111,-0.240,-0.928
33.463,-0.109,-0.240,-0.926
33.473,-0.109,-0.242,-0.924
33.483,-0.107,-0.242,-0.926
33.493,-0.109,-0.246,-0.928
33.503,-0.109,-0.244,-0.922
33.513,-0.111,-0.242,-0.926
33.523,-0.113,-0.240,-0.926
33.533,-0.115,-0.240,-0.924
33.543,-0.109,-0.242,-0.926
33.553,-0.111,-0.240,-0.926
33.563,-0.113,-0.244,-0.926
33.573,-0.111,-0.242,-0.926
33.583,-0.107,-0.244,-0.928
33.593,-0.111,-0.242,-0.924
33.603,-0.109,-0.240,-0.926
33.613,-0.111,-0.238,-0.924
33.623,-0.111,-0.244,-0.926
33.633,-0.104,-0.246,-0.930
33.643,-0.107,-0.246,-0.930
33.653,-0.111,-0.242,-0.924
33.663,-0.111,-0.242,-0.928
33.673,-0.111,-0.246,-0.932
33.683,-0.109,-0.244,-0.928
33.693,-0.111,-0.240,-0.922
33.703,-0.113,-0.244,-0.924
33.713,-0.111,-0.244,-0.926
33.723,-0.107,-0.246,-0.928
33.733,-0.113,-0.246,-0.932
33.743,-0.109,-0.242,-0.932
33.753,-0.109,-0.240,-0.924
33.763,-0.109,-0.238,-0.926
33.773,-0.105,-0.244,-0.924
33.783,-0.109,-0.246,-0.924
33.793,-0.111,-0.246,-0.922
33.803,-0.111,-0.246,-0.926
33.813,-0.115,-0.242,-0.928
33.823,-0.115,-0.240,-0.928
33.833,-0.111,-0.240,-0.930
33.843,-0.109,-0.242,-0.930
33.853,-0.105,-0.242,-0.930
33.863,-0.104,-0.246,-0.928
33.873,-0.109,-0.244,-0.928
33.883,-0.109,-0.244,-0.922
33.893,-0.109,-0.242,-0.922
33.903,-0.111,-0.242,-0.930
33.913,-0.111,-0.242,-0.930
33.923,-0.113,-0.244,-0.928
33.933,-0.109,-0.242,-0.926
33.943,-0.109,-0.240,-0.926
33.953,-0.109,-0.244,-0.928
33.963,-0.107,-0.246,-0.930
33.973,-0.109,-0.246,-0.926
33.983,-0.109,-0.242,-0.924
33.993,-0.109,-0.244,-0.926
34.003,-0.111,-0.242,-0.924
34.013,-0.109,-0.242,-0.928
34.023,-0.109,-0.242,-0.928
34.033,-0.111,-0.242,-0.928
34.043,-0.107,-0.244,-0.922
34.053,-0.107,-0.246,-0.928
34.063,-0.111,-0.242,-0.924
34.073,-0.111,-0.242,-0.934
34.083,-0.109,-0.240,-0.928
34.093,-0.109,-0.242,-0.926
34.103,-0.107,-0.242,-0.926
34.113,-0.111,-0.244,-0.926
34.123,-0.109,-0.246,-0.928
34.133,-0.111,-0.240,-0.922
34.143,-0.113,-0.242,-0.928
34.153,-0.109,-0.242,-0.930
34.163,-0.111,-0.244,-0.928
34.173,-0.107,-0.242,-0.926
34.183,-0.111,-0.242,-0.928
34.193,-0.111,-0.244,-0.930
34.203,-0.107,-0.244,-0.928
34.213,-0.107,-0.244,-0.926
34.223,-0.109,-0.246,-0.926
34.233,-0.109,-0.246,-0.930
34.243,-0.109,-0.242,-0.926
34.253,-0.109,-0.244,-0.928
34.263,-0.111,-0.240,-0.924
34.273,-0.109,-0.242,-0.928
34.283,-0.109,-0.244,-0.924
34.293,-0.109,-0.242,-0.928
34.303,-0.111,-0.244,-0.928
34.313,-0.111,-0.242,-0.926
34.323,-0.107,-0.242,-0.926
34.333,-0.107,-0.244,-0.926
34.343,-0.109,-0.246,-0.926
34.353,-0.109,-0.244,-0.926
34.363,-0.109,-0.242,-0.926
34.373,-0.111,-0.244,-0.928
34.383,-0.107,-0.242,-0.924
34.393,-0.111,-0.246,-0.922
34.403,-0.109,-0.242,-0.922
34.413,-0.109,-0.242,-0.926
34.423,-0.111,-0.244,-0.924
34.433,-0.107,-0.242,-0.928
34.443,-0.111,-0.242,-0.928
34.453,-0.107,-0.244,-0.926
34.463,-0.107,-0.242,-0.928
34.473,-0.109,-0.246,-0.928
34.483,-0.109,-0.244,-0.926
34.493,-0.109,-0.240,-0.922
34.503,-0.111,-0.244,-0.926
34.513,-0.107,-0.242,-0.922
34.523,-0.109,-0.246,-0.926
34.533,-0.109,-0.242,-0.928
34.543,-0.111,-0.242,-0.932
34.553,-0.107,-0.242,-0.930
34.563,-0.111,-0.244,-0.928
34.573,-0.111,-0.238,-0.930
34.583,-0.105,-0.236,-0.922
34.593,-0.111,-0.244,-0.922
34.603,-0.109,-0.242,-0.922
34.613,-0.111,-0.246,-0.924
34.623,-0.111,-0.246,-0.930
34.633,-0.109,-0.244,-0.932
34.643,-0.111,-0.242,-0.926
34.653,-0.109,-0.240,-0.928
34.663,-0.107,-0.240,-0.928
34.673,-0.109,-0.242,-0.924
34.683,-0.105,-0.244,-0.924
34.693,-0.109,-0.244,-0.926
34.703,-0.107,-0.244,-0.922
34.713,-0.111,-0.244,-0.922
34.723,-0.107,-0.244,-0.924
34.733,-0.109,-0.244,-0.930
34.743,-0.109,-0.242,-0.928
34.753,-0.111,-0.244,-0.932
34.763,-0.105,-0.246,-0.930
34.773,-0.109,-0.244,-0.930
34.783,-0.113,-0.242,-0.922
34.793,-0.113,-0.238,-0.922
34.803,-0.109,-0.240,-0.922
34.813,-0.107,-0.248,-0.926
34.823,-0.109,-0.246,-0.926
34.833,-0.107,-0.248,-0.928
34.843,-0.105,-0.242,-0.924
34.853,-0.107,-0.240,-0.928
34.863,-0.111,-0.240,-0.928
34.873,-0.113,-0.242,-0.930
34.883,-0.111,-0.242,-0.928
34.893,-0.113,-0.242,-0.930
34.903,-0.109,-0.244,-0.928
34.913,-0.109,-0.238,-0.924
34.923,-0.107,-0.238,-0.924
34.933,-0.109,-0.244,-0.924
34.943,-0.109,-0.246,-0.926
34.953,-0.109,-0.244,-0.930
34.963,-0.111,-0.244,-0.928
34.973,-0.111,-0.240,-0.926
34.983,-0.109,-0.242,-0.930
34.993,-0.109,-0.242,-0.930
35.003,-0.109,-0.240,-0.926
35.013,-0.105,-0.246,-0.928
35.023,-0.102,-0.244,-0.924
35.033,-0.105,-0.240,-0.920
35.043,-0.109,-0.240,-0.922
35.053,-0.113,-0.242,-0.928
35.063,-0.115,-0.246,-0.932
35.073,-0.115,-0.248,-0.930
35.083,-0.113,-0.244,-0.930
35.093,-0.105,-0.238,-0.932
35.103,-0.104,-0.236,-0.928
35.113,-0.105,-0.242,-0.930
35.123,-0.107,-0.244,-0.926
35.133,-0.109,-0.246,-0.922
35.143,-0.109,-0.246,-0.920
35.153,-0.111,-0.242,-0.924
35.163,-0.105,-0.242,-0.922
35.173,-0.111,-0.244,-0.926
35.183,-0.107,-0.242,-0.928
35.193,-0.105,-0.240,-0.930
35.203,-0.111,-0.250,-0.934
35.213,-0.109,-0.242,-0.922
35.223,-0.109,-0.242,-0.928
35.233,-0.088,-0.248,-0.930
35.243,-0.117,-0.240,-0.914
35.253,-0.125,-0.236,-0.900
35.263,-0.113,-0.246,-0.922
35.273,-0.105,-0.258,-0.947
35.283,-0.111,-0.242,-0.936
35.293,-0.113,-0.225,-0.918
35.303,-0.104,-0.236,-0.922
35.313,-0.102,-0.254,-0.932
35.323,-0.105,-0.250,-0.924
35.333,-0.109,-0.246,-0.926
35.343,-0.115,-0.242,-0.928
35.353,-0.113,-0.246,-0.930
35.363,-0.111,-0.244,-0.926
35.373,-0.107,-0.244,-0.932
35.383,-0.111,-0.238,-0.918
35.393,-0.105,-0.240,-0.924
35.403,-0.109,-0.244,-0.918
35.413,-0.107,-0.242,-0.928
35.423,-0.111,-0.244,-0.922
35.433,-0.107,-0.242,-0.922
35.443,-0.107,-0.242,-0.924
35.453,-0.109,-0.242,-0.930
35.463,-0.107,-0.240,-0.930
35.473,-0.109,-0.246,-0.932
35.483,-0.109,-0.250,-0.934
35.493,-0.109,-0.242,-0.934
35.503,-0.109,-0.242,-0.932
35.513,-0.109,-0.242,-0.930
35.523,-0.109,-0.242,-0.922
35.533,-0.111,-0.240,-0.920
35.543,-0.111,-0.246,-0.924
35.553,-0.113,-0.244,-0.922
35.563,-0.109,-0.246,-0.924
35.573,-0.109,-0.238,-0.926
35.583,-0.109,-0.240,-0.928
35.593,-0.107,-0.242,-0.928
35.603,-0.107,-0.248,-0.932
35.613,-0.109,-0.246,-0.928
35.623,-0.113,-0.242,-0.928
35.633,-0.109,-0.244,-0.924
35.643,-0.113,-0.240,-0.928
35.653,-0.109,-0.242,-0.926
35.663,-0.109,-0.240,-0.924
35.673,-0.107,-0.242,-0.932
35.683,-0.109,-0.244,-0.928
35.693,-0.107,-0.246,-0.928
35.703,-0.107,-0.244,-0.932
35.713,-0.107,-0.242,-0.932
35.723,-0.109,-0.244,-0.930
35.733,-0.107,-0.240,-0.926
35.743,-0.107,-0.244,-0.926
35.753,-0.109,-0.242,-0.924
35.763,-0.111,-0.246,-0.930
35.773,-0.107,-0.242,-0.924
35.783,-0.109,-0.240,-0.926
35.793,-0.107,-0.242,-0.926
35.803,-0.107,-0.242,-0.924
35.813,-0.111,-0.246,-0.930
35.823,-0.111,-0.242,-0.928
35.833,-0.111,-0.244,-0.930
35.843,-0.105,-0.240,-0.926
35.853,-0.107,-0.242,-0.924
35.863,-0.107,-0.244,-0.924
35.873,-0.109,-0.242,-0.928
35.883,-0.109,-0.246,-0.924
35.893,-0.111,-0.248,-0.928
35.903,-0.107,-0.240,-0.926
35.913,-0.107,-0.238,-0.924
35.923,-0.109,-0.240,-0.926
35.933,-0.109,-0.244,-0.926
35.943,-0.107,-0.244,-0.924
35.953,-0.109,-0.244,-0.926
35.963,-0.107,-0.246,-0.928
35.973,-0.107,-0.246,-0.928
35.983,-0.107,-0.244,-0.928
35.993,-0.109,-0.242,-0.928
36.003,-0.111,-0.242,-0.930
36.013,-0.111,-0.242,-0.926
36.023,-0.109,-0.240,-0.924
36.033,-0.107,-0.240,-0.924
36.043,-0.107,-0.240,-0.920
36.053,-0.109,-0.242,-0.926
36.063,-0.107,-0.244,-0.926
36.073,-0.109,-0.244,-0.924
36.083,-0.109,-0.244,-0.926
36.093,-0.111,-0.244,-0.928
36.103,-0.109,-0.242,-0.926
36.113,-0.107,-0.242,-0.924
36.123,-0.111,-0.244,-0.930
36.133,-0.109,-0.246,-0.928
36.143,-0.109,-0.242,-0.928
36.153,-0.107,-0.242,-0.926
36.163,-0.105,-0.244,-0.924
36.173,-0.109,-0.238,-0.922
36.183,-0.109,-0.244,-0.924
36.193,-0.109,-0.242,-0.924
36.203,-0.107,-0.246,-0.928
36.213,-0.111,-0.244,-0.928
36.223,-0.109,-0.242,-0.926
36.233,-0.107,-0.240,-0.926
36.243,-0.107,-0.242,-0.924
36.253,-0.109,-0.242,-0.928
36.263,-0.109,-0.244,-0.926
36.273,-0.109,-0.246,-0.924
36.283,-0.109,-0.244,-0.928
36.293,-0.111,-0.240,-0.926
36.303,-0.111,-0.240,-0.928
36.313,-0.111,-0.240,-0.924
36.323,-0.107,-0.242,-0.924
36.333,-0.107,-0.244,-0.926
36.343,-0.107,-0.248,-0.930
36.353,-0.107,-0.246,-0.930
36.363,-0.111,-0.242,-0.926
36.373,-0.109,-0.242,-0.926
36.383,-0.109,-0.242,-0.928
36.393,-0.113,-0.242,-0.928
36.403,-0.107,-0.242,-0.924
36.413,-0.109,-0.242,-0.924
36.423,-0.107,-0.242,-0.924
36.433,-0.107,-0.244,-0.926
36.443,-0.107,-0.244,-0.930
36.453,-0.111,-0.240,-0.928
36.463,-0.109,-0.242,-0.926
36.473,-0.105,-0.244,-0.928
36.483,-0.109,-0.242,-0.932
36.493,-0.107,-0.242,-0.922
36.503,-0.111,-0.240,-0.924
36.513,-0.109,-0.242,-0.924
36.523,-0.109,-0.246,-0.928
36.533,-0.107,-0.242,-0.930
36.543,-0.109,-0.242,-0.928
36.553,-0.107,-0.242,-0.926
36.563,-0.105,-0.244,-0.928
36.573,-0.105,-0.244,-0.930
36.583,-0.107,-0.242,-0.928
36.593,-0.105,-0.244,-0.926
36.603,-0.111,-0.244,-0.928
36.613,-0.107,-0.242,-0.928
36.623,-0.105,-0.244,-0.928
36.633,-0.109,-0.244,-0.928
36.643,-0.109,-0.244,-0.930
36.653,-0.109,-0.240,-0.926
36.663,-0.111,-0.242,-0.928
36.673,-0.111,-0.242,-0.926
36.683,-0.111,-0.240,-0.926
36.693,-0.111,-0.244,-0.924
36.703,-0.107,-0.244,-0.926
36.713,-0.107,-0.244,-0.930
36.723,-0.109,-0.244,-0.926
36.733,-0.111,-0.242,-0.926
36.743,-0.109,-0.238,-0.926
36.753,-0.105,-0.242,-0.930
36.763,-0.107,-0.244,-0.926
36.773,-0.105,-0.244,-0.924
36.783,-0.109,-0.242,-0.926
36.793,-0.107,-0.242,-0.928
36.803,-0.109,-0.244,-0.928
36.813,-0.111,-0.242,-0.928
36.823,-0.109,-0.242,-0.926
36.833,-0.111,-0.240,-0.930
36.843,-0.107,-0.236,-0.924
36.853,-0.105,-0.244,-0.924
36.863,-0.105,-0.246,-0.928
36.873,-0.104,-0.246,-0.928
36.883,-0.109,-0.240,-0.928
36.893,-0.109,-0.242,-0.930
36.903,-0.107,-0.240,-0.928
36.913,-0.109,-0.244,-0.932
36.923,-0.109,-0.238,-0.928
36.933,-0.111,-0.240,-0.924
36.943,-0.107,-0.244,-0.922
36.953,-0.109,-0.244,-0.922
36.963,-0.109,-0.242,-0.924
36.973,-0.107,-0.240,-0.926
36.983,-0.109,-0.244,-0.928
36.993,-0.109,-0.246,-0.928
37.003,-0.107,-0.246,-0.930
37.013,-0.105,-0.242,-0.926
37.023,-0.109,-0.242,-0.926
37.033,-0.107,-0.240,-0.926
37.043,-0.109,-0.240,-0.928
37.053,-0.111,-0.240,-0.924
37.063,-0.109,-0.242,-0.926
37.073,-0.109,-0.246,-0.928
37.083,-0.107,-0.244,-0.924
37.093,-0.109,-0.242,-0.926
37.103,-0.107,-0.242,-0.926
37.113,-0.107,-0.242,-0.930
37.123,-0.107,-0.244,-0.928
37.133,-0.109,-0.240,-0.930
37.143,-0.107,-0.244,-0.928
37.153,-0.107,-0.244,-0.926
37.163,-0.105,-0.242,-0.928
37.173,-0.107,-0.242,-0.928
37.183,-0.107,-0.240,-0.926
37.193,-0.107,-0.242,-0.924
37.203,-0.109,-0.240,-0.928
37.213,-0.107,-0.242,-0.928
37.223,-0.111,-0.244,-0.930
37.233,-0.109,-0.242,-0.926
37.243,-0.109,-0.240,-0.928
37.253,-0.105,-0.242,-0.930
37.263,-0.107,-0.244,-0.928
37.273,-0.107,-0.242,-0.928
37.283,-0.109,-0.246,-0.924
37.293,-0.109,-0.240,-0.926
37.303,-0.109,-0.244,-0.928
37.313,-0.105,-0.240,-0.920
37.323,-0.107,-0.240,-0.924
37.333,-0.105,-0.244,-0.924
37.343,-0.109,-0.244,-0.924
37.353,-0.109,-0.244,-0.930
37.363,-0.109,-0.244,-0.928
37.373,-0.109,-0.242,-0.926
37.383,-0.105,-0.240,-0.932
37.393,-0.107,-0.244,-0.924
37.403,-0.105,-0.242,-0.922
37.413,-0.109,-0.246,-0.926
37.423,-0.109,-0.244,-0.928
37.433,-0.107,-0.244,-0.928
37.443,-0.109,-0.244,-0.928
37.453,-0.109,-0.246,-0.922
37.463,-0.109,-0.242,-0.924
37.473,-0.109,-0.240,-0.926
37.483,-0.107,-0.246,-0.930
37.493,-0.105,-0.244,-0.926
37.503,-0.107,-0.242,-0.928
37.513,-0.107,-0.246,-0.924
37.523,-0.109,-0.244,-0.926
37.533,-0.111,-0.242,-0.926
37.543,-0.113,-0.242,-0.922
37.553,-0.107,-0.246,-0.922
37.563,-0.100,-0.248,-0.928
37.573,-0.105,-0.246,-0.932
37.583,-0.109,-0.238,-0.924
37.593,-0.115,-0.236,-0.920
37.603,-0.111,-0.244,-0.928
37.613,-0.109,-0.248,-0.930
37.623,-0.109,-0.248,-0.930
37.633,-0.107,-0.246,-0.924
37.643,-0.102,-0.238,-0.924
37.653,-0.104,-0.240,-0.928
37.663,-0.104,-0.242,-0.928
37.673,-0.107,-0.244,-0.926
37.683,-0.111,-0.250,-0.928
37.693,-0.109,-0.246,-0.926
37.703,-0.111,-0.244,-0.930
37.713,-0.105,-0.236,-0.924
37.723,-0.111,-0.238,-0.924
37.733,-0.107,-0.242,-0.924
37.743,-0.104,-0.248,-0.928
37.753,-0.104,-0.252,-0.932
37.763,-0.105,-0.248,-0.930
37.773,-0.109,-0.244,-0.928
37.783,-0.109,-0.242,-0.930
37.793,-0.109,-0.244,-0.930
37.803,-0.109,-0.240,-0.930
37.813,-0.104,-0.246,-0.930
37.823,-0.102,-0.244,-0.926
37.833,-0.102,-0.248,-0.928
37.843,-0.105,-0.244,-0.928
37.853,-0.107,-0.242,-0.928
37.863,-0.113,-0.240,-0.926
37.873,-0.117,-0.240,-0.926
37.883,-0.113,-0.240,-0.930
37.893,-0.111,-0.242,-0.928
37.903,-0.105,-0.242,-0.924
37.913,-0.104,-0.242,-0.924
37.923,-0.104,-0.246,-0.928
37.933,-0.104,-0.246,-0.926
37.943,-0.105,-0.244,-0.928
37.953,-0.107,-0.244,-0.930
37.963,-0.109,-0.242,-0.930
37.973,-0.109,-0.238,-0.928
37.983,-0.107,-0.238,-0.926
37.993,-0.109,-0.242,-0.928
38.003,-0.105,-0.244,-0.926
38.013,-0.109,-0.244,-0.924
38.023,-0.109,-0.242,-0.922
38.033,-0.105,-0.240,-0.926
38.043,-0.109,-0.242,-0.928
38.053,-0.107,-0.242,-0.930
38.063,-0.105,-0.242,-0.928
38.073,-0.107,-0.242,-0.932
38.083,-0.105,-0.246,-0.930
38.093,-0.107,-0.244,-0.928
38.103,-0.109,-0.244,-0.926
38.113,-0.105,-0.240,-0.924
38.123,-0.105,-0.240,-0.926
38.133,-0.107,-0.242,-0.924
38.143,-0.107,-0.242,-0.930
38.153,-0.107,-0.244,-0.932
38.163,-0.109,-0.242,-0.928
38.173,-0.109,-0.240,-0.926
38.183,-0.107,-0.238,-0.926
38.193,-0.104,-0.240,-0.922
38.203,-0.107,-0.244,-0.930
38.213,-0.105,-0.242,-0.926
38.223,-0.105,-0.242,-0.924
38.233,-0.105,-0.242,-0.926
38.243,-0.107,-0.242,-0.926
38.253,-0.109,-0.242,-0.932
38.263,-0.107,-0.238,-0.930
38.273,-0.107,-0.240,-0.926
38.283,-0.107,-0.242,-0.928
38.293,-0.105,-0.246,-0.926
38.303,-0.104,-0.242,-0.922
38.313,-0.107,-0.244,-0.924
38.323,-0.105,-0.244,-0.926
38.333,-0.111,-0.238,-0.928
38.343,-0.107,-0.240,-0.924
38.353,-0.107,-0.244,-0.926
38.363,-0.105,-0.240,-0.930
38.373,-0.104,-0.244,-0.926
38.383,-0.105,-0.240,-0.926
38.393,-0.107,-0.242,-0.930
38.403,-0.105,-0.242,-0.928
38.413,-0.109,-0.244,-0.926
38.423,-0.109,-0.244,-0.926
38.433,-0.109,-0.242,-0.928
38.443,-0.107,-0.242,-0.924
38.453,-0.105,-0.242,-0.926
38.463,-0.105,-0.242,-0.930
38.473,-0.105,-0.242,-0.928
38.483,-0.107,-0.240,-0.926
38.493,-0.104,-0.240,-0.928
38.503,-0.107,-0.240,-0.926
38.513,-0.105,-0.242,-0.928
38.523,-0.107,-0.244,-0.924
38.533,-0.105,-0.238,-0.924
38.543,-0.102,-0.246,-0.928
38.553,-0.102,-0.246,-0.928
38.563,-0.105,-0.242,-0.928
38.573,-0.107,-0.240,-0.924
38.583,-0.107,-0.240,-0.928
38.593,-0.107,-0.240,-0.926
38.603,-0.105,-0.242,-0.924
38.613,-0.107,-0.242,-0.928
38.623,-0.107,-0.242,-0.928
38.633,-0.107,-0.238,-0.926
38.643,-0.104,-0.242,-0.930
38.653,-0.104,-0.240,-0.926
38.663,-0.105,-0.240,-0.926
38.673,-0.107,-0.244,-0.928
38.683,-0.109,-0.242,-0.926
38.693,-0.111,-0.244,-0.930
38.703,-0.111,-0.242,-0.930
38.713,-0.111,-0.240,-0.926
38.723,-0.107,-0.240,-0.926
38.733,-0.100,-0.240,-0.924
38.743,-0.100,-0.242,-0.928
38.753,-0.105,-0.244,-0.924
38.763,-0.109,-0.244,-0.924
38.773,-0.109,-0.240,-0.928
38.783,-0.107,-0.244,-0.930
38.793,-0.109,-0.244,-0.928
38.803,-0.107,-0.242,-0.928
38.813,-0.109,-0.238,-0.926
38.823,-0.105,-0.242,-0.928
38.833,-0.105,-0.242,-0.928
38.843,-0.107,-0.242,-0.922
38.853,-0.109,-0.240,-0.926
38.863,-0.107,-0.240,-0.922
38.873,-0.104,-0.242,-0.930
38.883,-0.107,-0.238,-0.926
38.893,-0.107,-0.242,-0.928
38.903,-0.105,-0.238,-0.930
38.913,-0.105,-0.246,-0.930
38.923,-0.104,-0.242,-0.928
38.933,-0.105,-0.242,-0.924
38.943,-0.109,-0.238,-0.924
38.953,-0.111,-0.238,-0.926
38.963,-0.105,-0.246,-0.930
38.973,-0.107,-0.244,-0.926
38.983,-0.109,-0.242,-0.928
38.993,-0.107,-0.240,-0.924
39.003,-0.109,-0.244,-0.926
39.013,-0.105,-0.242,-0.928
39.023,-0.105,-0.242,-0.930
39.033,-0.105,-0.240,-0.926
39.043,-0.107,-0.242,-0.928
39.053,-0.107,-0.240,-0.928
39.063,-0.107,-0.240,-0.932
39.073,-0.107,-0.242,-0.928
39.083,-0.109,-0.240,-0.928
39.093,-0.107,-0.240,-0.926
39.103,-0.105,-0.240,-0.926
39.113,-0.105,-0.242,-0.926
39.123,-0.105,-0.242,-0.926
39.133,-0.105,-0.242,-0.924
39.143,-0.105,-0.244,-0.928
39.153,-0.105,-0.240,-0.930
39.163,-0.107,-0.240,-0.928
39.173,-0.107,-0.240,-0.926
39.183,-0.109,-0.242,-0.926
39.193,-0.105,-0.242,-0.924
39.203,-0.105,-0.242,-0.926
39.213,-0.104,-0.242,-0.928
39.223,-0.104,-0.242,-0.928
39.233,-0.105,-0.240,-0.926
39.243,-0.107,-0.240,-0.926
39.253,-0.107,-0.238,-0.926
39.263,-0.104,-0.242,-0.928
39.273,-0.109,-0.242,-0.926
39.283,-0.105,-0.244,-0.928
39.293,-0.107,-0.242,-0.926
39.303,-0.109,-0.242,-0.926
39.313,-0.105,-0.240,-0.926
39.323,-0.104,-0.242,-0.928
39.333,-0.105,-0.242,-0.924
39.343,-0.105,-0.242,-0.928
39.353,-0.107,-0.242,-0.926
39.363,-0.107,-0.240,-0.924
39.373,-0.107,-0.240,-0.926
39.383,-0.109,-0.242,-0.928
39.393,-0.109,-0.240,-0.922
39.403,-0.107,-0.242,-0.926
39.413,-0.104,-0.242,-0.926
39.423,-0.100,-0.244,-0.928
39.433,-0.102,-0.244,-0.930
39.443,-0.105,-0.244,-0.928
39.453,-0.111,-0.240,-0.928
39.463,-0.113,-0.242,-0.928
39.473,-0.113,-0.238,-0.924
39.483,-0.107,-0.240,-0.928
39.493,-0.105,-0.242,-0.926
39.503,-0.102,-0.242,-0.926
39.513,-0.104,-0.242,-0.928
39.523,-0.105,-0.244,-0.930
39.533,-0.107,-0.244,-0.928
39.543,-0.109,-0.240,-0.928
39.553,-0.107,-0.240,-0.926
39.563,-0.105,-0.240,-0.926
39.573,-0.102,-0.240,-0.926
39.583,-0.105,-0.242,-0.926
39.593,-0.105,-0.240,-0.928
39.603,-0.109,-0.240,-0.928
39.613,-0.109,-0.240,-0.928
39.623,-0.109,-0.242,-0.926
39.633,-0.107,-0.240,-0.928
39.643,-0.107,-0.240,-0.928
39.653,-0.102,-0.238,-0.926
39.663,-0.102,-0.244,-0.926
39.673,-0.105,-0.242,-0.930
39.683,-0.107,-0.242,-0.928
39.693,-0.105,-0.240,-0.926
39.703,-0.109,-0.240,-0.924
39.713,-0.109,-0.240,-0.928
39.723,-0.107,-0.242,-0.928
39.733,-0.107,-0.242,-0.926
39.743,-0.105,-0.242,-0.928
39.753,-0.105,-0.240,-0.928
39.763,-0.105,-0.242,-0.926
39.773,-0.105,-0.244,-0.926
39.783,-0.107,-0.240,-0.926
39.793,-0.105,-0.240,-0.926
39.803,-0.105,-0.240,-0.930
39.813,-0.107,-0.240,-0.926
39.823,-0.102,-0.242,-0.926
39.833,-0.105,-0.244,-0.926
39.843,-0.104,-0.240,-0.926
39.853,-0.105,-0.240,-0.928
39.863,-0.107,-0.240,-0.926
39.873,-0.105,-0.240,-0.926
39.883,-0.105,-0.242,-0.928
39.893,-0.107,-0.240,-0.926
39.903,-0.105,-0.240,-0.928
39.913,-0.105,-0.240,-0.926
39.923,-0.104,-0.240,-0.928
39.933,-0.107,-0.240,-0.932
39.943,-0.104,-0.240,-0.932
39.953,-0.107,-0.242,-0.926
39.963,-0.105,-0.240,-0.928
39.973,-0.107,-0.240,-0.926
39.983,-0.105,-0.236,-0.926
39.993,-0.105,-0.240,-0.922
40.003,-0.105,-0.242,-0.924
40.013,-0.107,-0.240,-0.924
40.023,-0.109,-0.244,-0.928
40.033,-0.107,-0.240,-0.924
40.043,-0.109,-0.236,-0.928
40.053,-0.105,-0.240,-0.930
40.063,-0.104,-0.242,-0.928
40.073,-0.104,-0.242,-0.926
40.083,-0.105,-0.244,-0.926
40.093,-0.107,-0.240,-0.924
40.103,-0.105,-0.240,-0.926
40.113,-0.105,-0.242,-0.928
40.123,-0.104,-0.242,-0.928
40.133,-0.105,-0.242,-0.926
40.143,-0.105,-0.240,-0.926
40.153,-0.107,-0.242,-0.930
40.163,-0.104,-0.244,-0.926
40.173,-0.105,-0.244,-0.928
40.183,-0.107,-0.240,-0.928
40.193,-0.107,-0.240,-0.926
40.203,-0.107,-0.240,-0.926
40.213,-0.104,-0.242,-0.928
40.223,-0.105,-0.240,-0.926
40.233,-0.104,-0.238,-0.930
40.243,-0.105,-0.244,-0.926
40.253,-0.107,-0.242,-0.928
40.263,-0.107,-0.242,-0.928
40.273,-0.107,-0.240,-0.930
40.283,-0.105,-0.240,-0.926
40.293,-0.104,-0.240,-0.926
40.303,-0.104,-0.242,-0.926
40.313,-0.105,-0.240,-0.930
40.323,-0.105,-0.240,-0.924
40.333,-0.105,-0.240,-0.926
40.343,-0.109,-0.238,-0.928
40.353,-0.107,-0.242,-0.928
40.363,-0.107,-0.244,-0.932
40.373,-0.104,-0.242,-0.928
40.383,-0.105,-0.240,-0.926
40.393,-0.105,-0.242,-0.926
40.403,-0.107,-0.240,-0.926
40.413,-0.105,-0.240,-0.924
40.423,-0.107,-0.244,-0.922
40.433,-0.107,-0.244,-0.924
40.443,-0.105,-0.244,-0.934
40.453,-0.104,-0.240,-0.926
40.463,-0.107,-0.240,-0.922
40.473,-0.105,-0.238,-0.928
40.483,-0.107,-0.240,-0.924
40.493,-0.107,-0.244,-0.928
40.503,-0.109,-0.242,-0.928
40.513,-0.105,-0.242,-0.926
40.523,-0.105,-0.242,-0.928
40.533,-0.104,-0.242,-0.924
40.543,-0.104,-0.242,-0.926
40.553,-0.105,-0.240,-0.928
40.563,-0.107,-0.244,-0.930
40.573,-0.105,-0.240,-0.926
40.583,-0.105,-0.240,-0.926
40.593,-0.105,-0.238,-0.928
40.603,-0.107,-0.236,-0.926
40.613,-0.107,-0.242,-0.928
40.623,-0.104,-0.242,-0.926
40.633,-0.107,-0.240,-0.926
40.643,-0.107,-0.240,-0.926
40.653,-0.102,-0.240,-0.924
40.663,-0.102,-0.242,-0.928
40.673,-0.104,-0.244,-0.926
40.683,-0.109,-0.242,-0.926
40.693,-0.105,-0.242,-0.926
40.703,-0.109,-0.240,-0.926
40.713,-0.107,-0.242,-0.928
40.723,-0.105,-0.240,-0.924
40.733,-0.104,-0.242,-0.926
40.743,-0.104,-0.242,-0.928
40.753,-0.102,-0.246,-0.926
40.763,-0.104,-0.242,-0.928
40.773,-0.105,-0.240,-0.928
40.783,-0.105,-0.242,-0.928
40.793,-0.105,-0.244,-0.930
40.803,-0.107,-0.240,-0.924
40.813,-0.107,-0.242,-0.926
40.823,-0.105,-0.246,-0.928
40.833,-0.102,-0.242,-0.928
40.843,-0.104,-0.240,-0.924
40.853,-0.107,-0.240,-0.926
40.863,-0.105,-0.244,-0.924
40.873,-0.105,-0.242,-0.930
40.883,-0.105,-0.242,-0.928
40.893,-0.105,-0.244,-0.928
40.903,-0.107,-0.242,-0.926
40.913,-0.107,-0.238,-0.926
40.923,-0.105,-0.242,-0.926
40.933,-0.104,-0.242,-0.928
40.943,-0.105,-0.242,-0.926
40.953,-0.104,-0.242,-0.928
40.963,-0.105,-0.240,-0.930
40.973,-0.105,-0.242,-0.924
40.983,-0.105,-0.242,-0.928
40.993,-0.107,-0.244,-0.926
41.003,-0.104,-0.242,-0.926
41.013,-0.105,-0.240,-0.930
41.023,-0.105,-0.240,-0.928
41.033,-0.107,-0.240,-0.926
41.043,-0.105,-0.238,-0.926
41.053,-0.102,-0.238,-0.928
41.063,-0.102,-0.242,-0.928
41.073,-0.105,-0.242,-0.930
41.083,-0.105,-0.240,-0.924
41.093,-0.107,-0.240,-0.924
41.103,-0.104,-0.244,-0.926
41.113,-0.107,-0.238,-0.928
41.123,-0.105,-0.242,-0.924
41.133,-0.105,-0.240,-0.926
41.143,-0.105,-0.240,-0.924
41.153,-0.107,-0.240,-0.928
41.163,-0.105,-0.242,-0.930
41.173,-0.107,-0.242,-0.924
41.183,-0.105,-0.242,-0.930
41.193,-0.104,-0.242,-0.932
41.203,-0.105,-0.240,-0.928
41.213,-0.107,-0.242,-0.926
41.223,-0.105,-0.240,-0.928
41.233,-0.104,-0.240,-0.928
41.243,-0.104,-0.242,-0.928
41.253,-0.104,-0.242,-0.926
41.263,-0.105,-0.240,-0.928
41.273,-0.107,-0.240,-0.928
41.283,-0.107,-0.242,-0.928
41.293,-0.105,-0.240,-0.928
41.303,-0.105,-0.242,-0.930
41.313,-0.105,-0.240,-0.930
41.323,-0.102,-0.242,-0.926
41.333,-0.104,-0.238,-0.928
41.343,-0.105,-0.242,-0.924
41.353,-0.107,-0.240,-0.928
41.363,-0.105,-0.240,-0.928
41.373,-0.105,-0.242,-0.928
41.383,-0.107,-0.238,-0.926
41.393,-0.105,-0.240,-0.928
41.403,-0.109,-0.236,-0.928
41.413,-0.105,-0.242,-0.930
41.423,-0.104,-0.242,-0.928
41.433,-0.104,-0.242,-0.930
41.443,-0.105,-0.240,-0.926
41.453,-0.107,-0.240,-0.926
41.463,-0.107,-0.240,-0.926
41.473,-0.104,-0.242,-0.928
41.483,-0.104,-0.244,-0.926
41.493,-0.105,-0.240,-0.928
41.503,-0.105,-0.242,-0.920
41.513,-0.105,-0.240,-0.928
41.523,-0.104,-0.242,-0.928
41.533,-0.104,-0.240,-0.928
41.543,-0.104,-0.240,-0.926
41.553,-0.104,-0.240,-0.924
41.563,-0.105,-0.242,-0.926
41.573,-0.104,-0.242,-0.924
41.583,-0.105,-0.240,-0.926
41.593,-0.107,-0.240,-0.926
41.603,-0.105,-0.240,-0.928
41.613,-0.105,-0.242,-0.928
41.623,-0.107,-0.242,-0.928
41.633,-0.107,-0.240,-0.928
41.643,-0.104,-0.242,-0.928
41.653,-0.104,-0.242,-0.928
41.663,-0.104,-0.238,-0.928
41.673,-0.104,-0.242,-0.928
41.683,-0.105,-0.244,-0.932
41.693,-0.109,-0.242,-0.930
41.703,-0.107,-0.240,-0.934
41.713,-0.107,-0.240,-0.928
41.723,-0.105,-0.238,-0.924
41.733,-0.104,-0.242,-0.928
41.743,-0.102,-0.242,-0.926
41.753,-0.102,-0.244,-0.928
41.763,-0.107,-0.242,-0.928
41.773,-0.107,-0.242,-0.926
41.783,-0.109,-0.238,-0.930
41.793,-0.104,-0.240,-0.926
41.803,-0.104,-0.240,-0.928
41.813,-0.105,-0.240,-0.928
41.823,-0.107,-0.238,-0.928
41.833,-0.107,-0.242,-0.928
41.843,-0.107,-0.242,-0.926
41.853,-0.107,-0.240,-0.928
41.863,-0.105,-0.244,-0.926
41.873,-0.105,-0.240,-0.926
41.883,-0.102,-0.240,-0.928
41.893,-0.104,-0.240,-0.928
41.903,-0.104,-0.238,-0.928
41.913,-0.104,-0.242,-0.928
41.923,-0.105,-0.240,-0.926
41.933,-0.105,-0.242,-0.926
41.943,-0.105,-0.240,-0.924
41.953,-0.105,-0.240,-0.928
41.963,-0.104,-0.240,-0.926
41.973,-0.104,-0.240,-0.928
41.983,-0.105,-0.240,-0.926
41.993,-0.105,-0.240,-0.930
42.003,-0.105,-0.240,-0.926
42.013,-0.105,-0.242,-0.926
42.023,-0.107,-0.242,-0.930
42.033,-0.105,-0.242,-0.930
42.043,-0.102,-0.240,-0.928
42.053,-0.107,-0.240,-0.930
42.063,-0.104,-0.240,-0.934
42.073,-0.102,-0.242,-0.928
42.083,-0.102,-0.242,-0.926
42.093,-0.104,-0.242,-0.928
42.103,-0.104,-0.242,-0.928
42.113,-0.105,-0.240,-0.926
42.123,-0.109,-0.240,-0.926
42.133,-0.105,-0.240,-0.926
42.143,-0.107,-0.242,-0.926
42.153,-0.104,-0.240,-0.928
42.163,-0.104,-0.240,-0.928
42.173,-0.105,-0.240,-0.930
42.183,-0.105,-0.242,-0.928
42.193,-0.104,-0.240,-0.926
42.203,-0.107,-0.242,-0.928
42.213,-0.105,-0.242,-0.926
42.223,-0.105,-0.242,-0.926
42.233,-0.104,-0.242,-0.930
42.243,-0.104,-0.240,-0.928
42.253,-0.102,-0.242,-0.926
42.263,-0.105,-0.242,-0.928
42.273,-0.107,-0.240,-0.926
42.283,-0.104,-0.242,-0.928
42.293,-0.105,-0.240,-0.928
42.303,-0.107,-0.240,-0.924
42.313,-0.104,-0.240,-0.926
42.323,-0.105,-0.242,-0.928
42.333,-0.105,-0.240,-0.930
42.343,-0.107,-0.242,-0.928
42.353,-0.109,-0.240,-0.928
42.363,-0.109,-0.238,-0.928
42.373,-0.105,-0.240,-0.930
42.383,-0.104,-0.242,-0.930
42.393,-0.105,-0.240,-0.928
42.403,-0.104,-0.242,-0.930
42.413,-0.104,-0.240,-0.922
42.423,-0.102,-0.238,-0.928
42.433,-0.104,-0.238,-0.926
42.443,-0.105,-0.242,-0.924
42.453,-0.105,-0.244,-0.926
42.463,-0.105,-0.242,-0.928
42.473,-0.105,-0.242,-0.930
42.483,-0.104,-0.242,-0.928
42.493,-0.102,-0.240,-0.926
42.503,-0.105,-0.242,-0.928
42.513,-0.104,-0.240,-0.928
42.523,-0.102,-0.246,-0.926
42.533,-0.104,-0.240,-0.928
42.543,-0.107,-0.238,-0.926
42.553,-0.107,-0.242,-0.928
42.563,-0.107,-0.242,-0.926
42.573,-0.105,-0.242,-0.928
42.583,-0.104,-0.240,-0.926
42.593,-0.105,-0.244,-0.926
42.603,-0.104,-0.242,-0.926
42.613,-0.104,-0.240,-0.926
42.623,-0.104,-0.240,-0.928
42.633,-0.105,-0.240,-0.928
42.643,-0.105,-0.240,-0.930
42.653,-0.107,-0.238,-0.926
42.663,-0.102,-0.240,-0.926
42.673,-0.105,-0.244,-0.926
42.683,-0.105,-0.240,-0.924
42.693,-0.107,-0.240,-0.924
42.703,-0.105,-0.240,-0.924
42.713,-0.104,-0.240,-0.928
42.723,-0.104,-0.242,-0.928
42.733,-0.104,-0.242,-0.928
42.743,-0.107,-0.244,-0.928
42.753,-0.105,-0.242,-0.926
42.763,-0.107,-0.238,-0.928
42.773,-0.105,-0.238,-0.928
42.783,-0.104,-0.240,-0.926
42.793,-0.104,-0.242,-0.926
42.803,-0.102,-0.244,-0.926
42.813,-0.105,-0.242,-0.926
42.823,-0.105,-0.242,-0.926
42.833,-0.105,-0.236,-0.924
42.843,-0.107,-0.240,-0.924
42.853,-0.105,-0.240,-0.924
42.863,-0.104,-0.242,-0.924
42.873,-0.104,-0.242,-0.928
42.883,-0.102,-0.242,-0.930
42.893,-0.104,-0.244,-0.928
42.903,-0.104,-0.240,-0.926
42.913,-0.107,-0.238,-0.926
42.923,-0.109,-0.238,-0.930
42.933,-0.107,-0.244,-0.922
42.943,-0.104,-0.242,-0.926
42.953,-0.104,-0.242,-0.926
42.963,-0.102,-0.238,-0.928
42.973,-0.105,-0.240,-0.926
42.983,-0.107,-0.240,-0.926
42.993,-0.105,-0.242,-0.928
43.003,-0.105,-0.240,-0.932
43.013,-0.105,-0.240,-0.926
43.023,-0.107,-0.240,-0.928
43.033,-0.105,-0.238,-0.926
43.043,-0.105,-0.238,-0.928
43.053,-0.102,-0.242,-0.926
43.063,-0.102,-0.242,-0.926
43.073,-0.104,-0.244,-0.930
43.083,-0.107,-0.240,-0.930
43.093,-0.104,-0.238,-0.926
43.103,-0.104,-0.238,-0.926
43.113,-0.104,-0.240,-0.928
43.123,-0.102,-0.240,-0.928
43.133,-0.104,-0.240,-0.928
43.143,-0.104,-0.240,-0.924
43.153,-0.105,-0.240,-0.926
43.163,-0.104,-0.240,-0.926
43.173,-0.102,-0.240,-0.928
43.183,-0.102,-0.238,-0.926
43.193,-0.105,-0.242,-0.926
43.203,-0.104,-0.242,-0.928
43.213,-0.107,-0.240,-0.926
43.223,-0.105,-0.244,-0.928
43.233,-0.104,-0.240,-0.928
43.243,-0.104,-0.240,-0.924
43.253,-0.105,-0.240,-0.926
43.263,-0.105,-0.240,-0.928
43.273,-0.105,-0.240,-0.928
43.283,-0.102,-0.238,-0.926
43.293,-0.098,-0.240,-0.928
43.303,-0.104,-0.242,-0.930
43.313,-0.102,-0.240,-0.926
43.323,-0.104,-0.242,-0.928
43.333,-0.109,-0.242,-0.930
43.343,-0.107,-0.242,-0.930
43.353,-0.105,-0.240,-0.928
43.363,-0.104,-0.240,-0.928
43.373,-0.104,-0.242,-0.930
43.383,-0.102,-0.240,-0.926
43.393,-0.107,-0.240,-0.928
43.403,-0.105,-0.236,-0.926
43.413,-0.109,-0.238,-0.926
43.423,-0.104,-0.242,-0.932
43.433,-0.104,-0.242,-0.928
43.443,-0.104,-0.238,-0.926
43.453,-0.105,-0.242,-0.928
43.463,-0.105,-0.240,-0.928
43.473,-0.104,-0.240,-0.930
43.483,-0.104,-0.240,-0.926
43.493,-0.105,-0.242,-0.926
43.503,-0.105,-0.238,-0.926
43.513,-0.104,-0.242,-0.924
43.523,-0.105,-0.244,-0.928
43.533,-0.105,-0.242,-0.926
43.543,-0.105,-0.240,-0.926
43.553,-0.105,-0.238,-0.928
43.563,-0.104,-0.242,-0.928
43.573,-0.104,-0.244,-0.930
43.583,-0.104,-0.242,-0.928
43.593,-0.105,-0.242,-0.926
43.603,-0.105,-0.240,-0.928
43.613,-0.105,-0.240,-0.924
43.623,-0.104,-0.240,-0.928
43.633,-0.104,-0.242,-0.928
43.643,-0.100,-0.242,-0.926
43.653,-0.104,-0.242,-0.928
43.663,-0.105,-0.240,-0.926
43.673,-0.107,-0.240,-0.926
43.683,-0.105,-0.242,-0.924
43.693,-0.105,-0.240,-0.924
43.703,-0.105,-0.242,-0.930
43.713,-0.102,-0.242,-0.926
43.723,-0.102,-0.240,-0.926
43.733,-0.104,-0.240,-0.928
43.743,-0.104,-0.236,-0.924
43.753,-0.107,-0.238,-0.928
43.763,-0.107,-0.242,-0.928
43.773,-0.105,-0.240,-0.928
43.783,-0.105,-0.240,-0.924
43.793,-0.104,-0.238,-0.926
43.803,-0.105,-0.240,-0.926
43.813,-0.102,-0.242,-0.926
43.823,-0.102,-0.240,-0.928
43.833,-0.104,-0.242,-0.928
43.843,-0.102,-0.244,-0.924
43.853,-0.107,-0.240,-0.926
43.863,-0.107,-0.240,-0.924
43.873,-0.105,-0.240,-0.930
43.883,-0.104,-0.242,-0.926
43.893,-0.100,-0.240,-0.928
43.903,-0.104,-0.240,-0.930
43.913,-0.105,-0.238,-0.926
43.923,-0.105,-0.240,-0.926
43.933,-0.107,-0.238,-0.926
43.943,-0.105,-0.240,-0.928
43.953,-0.104,-0.240,-0.930
43.963,-0.104,-0.238,-0.926
43.973,-0.104,-0.242,-0.928
43.983,-0.104,-0.238,-0.928
43.993,-0.105,-0.240,-0.928
44.003,-0.105,-0.242,-0.926
44.013,-0.105,-0.240,-0.928
44.023,-0.105,-0.240,-0.928
44.033,-0.104,-0.246,-0.928
44.043,-0.104,-0.240,-0.926
44.053,-0.102,-0.242,-0.928
44.063,-0.105,-0.242,-0.926
44.073,-0.104,-0.240,-0.926
44.083,-0.105,-0.240,-0.930
44.093,-0.107,-0.240,-0.930
44.103,-0.105,-0.242,-0.930
44.113,-0.100,-0.238,-0.932
44.123,-0.104,-0.242,-0.924
44.133,-0.102,-0.242,-0.926
44.143,-0.104,-0.240,-0.926
44.153,-0.105,-0.238,-0.924
44.163,-0.104,-0.240,-0.928
44.173,-0.107,-0.240,-0.928
44.183,-0.104,-0.242,-0.926
44.193,-0.105,-0.240,-0.928
44.203,-0.107,-0.240,-0.926
44.213,-0.104,-0.240,-0.926
44.223,-0.105,-0.240,-0.926
44.233,-0.104,-0.244,-0.928
44.243,-0.104,-0.242,-0.928
44.253,-0.104,-0.240,-0.926
44.263,-0.102,-0.242,-0.928
44.273,-0.104,-0.240,-0.926
44.283,-0.102,-0.240,-0.928
44.293,-0.104,-0.242,-0.926
44.303,-0.102,-0.240,-0.928
44.313,-0.107,-0.242,-0.930
44.323,-0.105,-0.240,-0.928
44.333,-0.105,-0.238,-0.928
44.343,-0.105,-0.238,-0.930
44.353,-0.105,-0.240,-0.926
44.363,-0.104,-0.240,-0.930
44.373,-0.104,-0.242,-0.926
44.383,-0.104,-0.240,-0.928
44.393,-0.104,-0.240,-0.926
44.403,-0.104,-0.242,-0.926
44.413,-0.105,-0.238,-0.930
44.423,-0.104,-0.240,-0.930
44.433,-0.104,-0.240,-0.928
44.443,-0.104,-0.242,-0.926
44.453,-0.102,-0.242,-0.928
44.463,-0.105,-0.242,-0.926
44.473,-0.107,-0.240,-0.924
44.483,-0.105,-0.240,-0.930
44.493,-0.102,-0.240,-0.930
44.503,-0.102,-0.240,-0.928
44.513,-0.104,-0.244,-0.928
44.523,-0.104,-0.240,-0.926
44.533,-0.107,-0.238,-0.928
44.543,-0.105,-0.242,-0.926
44.553,-0.102,-0.242,-0.930
44.563,-0.104,-0.240,-0.928
44.573,-0.104,-0.238,-0.928
44.583,-0.105,-0.240,-0.926
44.593,-0.104,-0.240,-0.926
44.603,-0.107,-0.240,-0.928
44.613,-0.105,-0.238,-0.928
44.623,-0.105,-0.242,-0.930
44.633,-0.104,-0.242,-0.926
44.643,-0.105,-0.238,-0.926
44.653,-0.104,-0.240,-0.930
44.663,-0.104,-0.242,-0.930
44.673,-0.104,-0.240,-0.928
44.683,-0.104,-0.242,-0.928
44.693,-0.104,-0.240,-0.924
44.703,-0.102,-0.240,-0.928
44.713,-0.105,-0.240,-0.924
44.723,-0.107,-0.238,-0.928
44.733,-0.105,-0.238,-0.928
44.743,-0.107,-0.242,-0.928
44.753,-0.102,-0.242,-0.926
44.763,-0.105,-0.242,-0.930
44.773,-0.104,-0.242,-0.924
44.783,-0.104,-0.242,-0.926
44.793,-0.104,-0.240,-0.930
44.803,-0.105,-0.242,-0.928
44.813,-0.102,-0.240,-0.932
44.823,-0.105,-0.242,-0.926
44.833,-0.104,-0.242,-0.926
44.843,-0.104,-0.240,-0.926
44.853,-0.104,-0.240,-0.926
44.863,-0.102,-0.242,-0.928
44.873,-0.100,-0.242,-0.928
44.883,-0.102,-0.242,-0.926
44.893,-0.105,-0.240,-0.928
44.903,-0.107,-0.242,-0.928
44.913,-0.107,-0.242,-0.930
44.923,-0.104,-0.240,-0.926
44.933,-0.104,-0.240,-0.928
44.943,-0.102,-0.244,-0.928
44.953,-0.102,-0.238,-0.926
44.963,-0.104,-0.240,-0.928
44.973,-0.107,-0.238,-0.926
44.983,-0.107,-0.238,-0.928
44.993,-0.105,-0.238,-0.928
45.003,-0.102,-0.242,-0.928
45.013,-0.102,-0.240,-0.928
45.023,-0.102,-0.240,-0.926
45.033,-0.105,-0.240,-0.924
45.043,-0.105,-0.242,-0.922
45.053,-0.102,-0.240,-0.928
45.063,-0.104,-0.242,-0.924
45.073,-0.102,-0.242,-0.926
45.083,-0.104,-0.240,-0.926
45.093,-0.107,-0.240,-0.928
45.103,-0.107,-0.242,-0.928
45.113,-0.104,-0.240,-0.928
45.123,-0.104,-0.242,-0.928
45.133,-0.105,-0.242,-0.926
45.143,-0.104,-0.242,-0.926
45.153,-0.105,-0.242,-0.926
45.163,-0.105,-0.242,-0.928
45.173,-0.104,-0.240,-0.930
45.183,-0.102,-0.242,-0.926
45.193,-0.100,-0.240,-0.928
45.203,-0.104,-0.240,-0.926
45.213,-0.104,-0.240,-0.928
45.223,-0.105,-0.242,-0.928
45.233,-0.105,-0.238,-0.928
45.243,-0.104,-0.244,-0.930
45.253,-0.105,-0.240,-0.928
45.263,-0.102,-0.242,-0.926
45.273,-0.104,-0.242,-0.930
45.283,-0.104,-0.240,-0.928
45.293,-0.107,-0.240,-0.926
45.303,-0.100,-0.240,-0.926
45.313,-0.104,-0.242,-0.928
45.323,-0.105,-0.240,-0.926
45.333,-0.105,-0.240,-0.928
45.343,-0.107,-0.240,-0.926
45.353,-0.105,-0.240,-0.928
45.363,-0.104,-0.244,-0.928
45.373,-0.102,-0.240,-0.930
45.383,-0.104,-0.242,-0.926
45.393,-0.104,-0.240,-0.928
45.403,-0.105,-0.240,-0.924
45.413,-0.105,-0.242,-0.926
45.423,-0.105,-0.236,-0.928
45.433,-0.104,-0.236,-0.930
45.443,-0.102,-0.242,-0.930
45.453,-0.102,-0.242,-0.930
45.463,-0.102,-0.240,-0.926
45.473,-0.104,-0.240,-0.924
45.483,-0.102,-0.240,-0.928
45.493,-0.100,-0.240,-0.926
45.503,-0.105,-0.240,-0.928
45.513,-0.105,-0.244,-0.928
45.523,-0.104,-0.242,-0.924
45.533,-0.104,-0.240,-0.926
45.543,-0.104,-0.240,-0.926
45.553,-0.102,-0.242,-0.926
45.563,-0.102,-0.242,-0.926
45.573,-0.104,-0.242,-0.930
45.583,-0.107,-0.240,-0.932
45.593,-0.102,-0.240,-0.926
45.603,-0.104,-0.244,-0.926
45.613,-0.102,-0.244,-0.928
45.623,-0.104,-0.240,-0.926
45.633,-0.107,-0.238,-0.926
45.643,-0.105,-0.242,-0.926
45.653,-0.102,-0.240,-0.926
45.663,-0.102,-0.242,-0.928
45.673,-0.102,-0.238,-0.928
45.683,-0.107,-0.238,-0.924
45.693,-0.105,-0.238,-0.928
45.703,-0.104,-0.240,-0.924
45.713,-0.102,-0.244,-0.926
45.723,-0.102,-0.242,-0.930
45.733,-0.104,-0.240,-0.926
45.743,-0.104,-0.240,-0.930
45.753,-0.104,-0.240,-0.928
45.763,-0.104,-0.240,-0.930
45.773,-0.104,-0.242,-0.926
45.783,-0.105,-0.240,-0.928
45.793,-0.104,-0.240,-0.928
45.803,-0.104,-0.238,-0.926
45.813,-0.104,-0.238,-0.928
45.823,-0.104,-0.242,-0.928
45.833,-0.104,-0.240,-0.926
45.843,-0.104,-0.240,-0.928
45.853,-0.104,-0.238,-0.930
45.863,-0.104,-0.242,-0.928
45.873,-0.104,-0.242,-0.928
45.883,-0.102,-0.246,-0.930
45.893,-0.104,-0.240,-0.932
45.903,-0.102,-0.240,-0.928
45.913,-0.104,-0.238,-0.922
45.923,-0.102,-0.240,-0.930
45.933,-0.104,-0.242,-0.924
45.943,-0.104,-0.240,-0.926
45.953,-0.105,-0.242,-0.928
45.963,-0.105,-0.240,-0.930
45.973,-0.102,-0.240,-0.924
45.983,-0.104,-0.240,-0.928
45.993,-0.104,-0.238,-0.926
46.003,-0.104,-0.240,-0.930
46.013,-0.105,-0.242,-0.930
46.023,-0.105,-0.242,-0.924
46.033,-0.105,-0.240,-0.930
46.043,-0.104,-0.240,-0.928
46.053,-0.102,-0.240,-0.926
46.063,-0.104,-0.240,-0.924
46.073,-0.102,-0.240,-0.928
46.083,-0.102,-0.238,-0.926
46.093,-0.102,-0.240,-0.930
46.103,-0.104,-0.242,-0.928
46.113,-0.102,-0.240,-0.928
46.123,-0.104,-0.242,-0.926
46.133,-0.102,-0.238,-0.926
46.143,-0.104,-0.240,-0.926
46.153,-0.105,-0.240,-0.928
46.163,-0.104,-0.240,-0.924
46.173,-0.104,-0.240,-0.928
46.183,-0.102,-0.242,-0.926
46.193,-0.104,-0.238,-0.930
46.203,-0.102,-0.240,-0.926
46.213,-0.104,-0.240,-0.924
46.223,-0.104,-0.246,-0.930
46.233,-0.104,-0.242,-0.930
46.243,-0.104,-0.240,-0.930
46.253,-0.109,-0.236,-0.928
46.263,-0.105,-0.240,-0.932
46.273,-0.104,-0.242,-0.928
46.283,-0.100,-0.240,-0.928
46.293,-0.104,-0.242,-0.926
46.303,-0.102,-0.240,-0.928
46.313,-0.102,-0.240,-0.926
46.323,-0.105,-0.236,-0.926
46.333,-0.104,-0.242,-0.928
46.343,-0.105,-0.242,-0.928
46.353,-0.102,-0.242,-0.924
46.363,-0.102,-0.246,-0.930
46.373,-0.100,-0.242,-0.926
46.383,-0.104,-0.238,-0.926
46.393,-0.104,-0.238,-0.926
46.403,-0.104,-0.242,-0.926
46.413,-0.107,-0.240,-0.926
46.423,-0.102,-0.238,-0.928
46.433,-0.105,-0.240,-0.926
46.443,-0.105,-0.242,-0.928
46.453,-0.102,-0.238,-0.924
46.463,-0.104,-0.238,-0.926
46.473,-0.104,-0.238,-0.928
46.483,-0.104,-0.240,-0.928
46.493,-0.104,-0.242,-0.930
46.503,-0.104,-0.242,-0.928
46.513,-0.104,-0.240,-0.926
46.523,-0.104,-0.240,-0.926
46.533,-0.104,-0.244,-0.928
46.543,-0.102,-0.238,-0.926
46.553,-0.104,-0.238,-0.928
46.563,-0.102,-0.240,-0.924
46.573,-0.100,-0.240,-0.928
46.583,-0.102,-0.240,-0.924
46.593,-0.102,-0.242,-0.928
46.603,-0.105,-0.240,-0.926
46.613,-0.105,-0.240,-0.928
46.623,-0.105,-0.242,-0.926
46.633,-0.104,-0.238,-0.928
46.643,-0.102,-0.240,-0.928
46.653,-0.100,-0.240,-0.926
46.663,-0.104,-0.240,-0.926
46.673,-0.105,-0.240,-0.926
46.683,-0.104,-0.240,-0.930
46.693,-0.104,-0.242,-0.926
46.703,-0.104,-0.240,-0.926
46.713,-0.100,-0.240,-0.930
46.723,-0.100,-0.240,-0.932
46.733,-0.102,-0.238,-0.926
46.743,-0.104,-0.240,-0.928
46.753,-0.105,-0.238,-0.928
46.763,-0.104,-0.240,-0.932
46.773,-0.104,-0.240,-0.928
46.783,-0.104,-0.240,-0.924
46.793,-0.104,-0.238,-0.928
46.803,-0.104,-0.242,-0.926
46.813,-0.104,-0.242,-0.930
46.823,-0.104,-0.240,-0.926
46.833,-0.102,-0.240,-0.926
46.843,-0.104,-0.242,-0.928
46.853,-0.105,-0.240,-0.926
46.863,-0.105,-0.242,-0.928
46.873,-0.102,-0.242,-0.928
46.883,-0.102,-0.240,-0.930
46.893,-0.104,-0.238,-0.928
46.903,-0.104,-0.240,-0.926
46.913,-0.105,-0.242,-0.924
46.923,-0.102,-0.240,-0.928
46.933,-0.105,-0.240,-0.928
46.943,-0.104,-0.240,-0.928
46.953,-0.104,-0.242,-0.928
46.963,-0.100,-0.240,-0.930
46.973,-0.102,-0.242,-0.930
46.983,-0.104,-0.238,-0.924
46.993,-0.104,-0.240,-0.928
47.003,-0.104,-0.242,-0.932
47.013,-0.107,-0.240,-0.926
47.023,-0.109,-0.238,-0.926
47.033,-0.104,-0.238,-0.928
47.043,-0.100,-0.242,-0.928
47.053,-0.100,-0.242,-0.926
47.063,-0.100,-0.240,-0.928
47.073,-0.102,-0.240,-0.930
47.083,-0.104,-0.240,-0.928
47.093,-0.104,-0.244,-0.926
47.103,-0.104,-0.242,-0.926
47.113,-0.105,-0.242,-0.928
47.123,-0.102,-0.242,-0.926
47.133,-0.098,-0.240,-0.926
47.143,-0.100,-0.238,-0.926
47.153,-0.102,-0.240,-0.930
47.163,-0.102,-0.242,-0.926
47.173,-0.104,-0.242,-0.926
47.183,-0.105,-0.240,-0.930
47.193,-0.105,-0.242,-0.926
47.203,-0.104,-0.242,-0.926
47.213,-0.104,-0.240,-0.930
47.223,-0.104,-0.240,-0.928
47.233,-0.105,-0.242,-0.926
47.243,-0.104,-0.238,-0.926
47.253,-0.100,-0.242,-0.928
47.263,-0.104,-0.242,-0.928
47.273,-0.102,-0.242,-0.926
47.283,-0.104,-0.240,-0.924
47.293,-0.102,-0.240,-0.928
47.303,-0.104,-0.240,-0.930
47.313,-0.102,-0.242,-0.924
47.323,-0.102,-0.240,-0.926
47.333,-0.100,-0.240,-0.928
47.343,-0.104,-0.242,-0.928
47.353,-0.102,-0.238,-0.926
47.363,-0.107,-0.240,-0.926
47.373,-0.104,-0.240,-0.928
47.383,-0.100,-0.242,-0.928
47.393,-0.102,-0.242,-0.928
47.403,-0.104,-0.244,-0.926
47.413,-0.107,-0.240,-0.928
47.423,-0.104,-0.238,-0.928
47.433,-0.104,-0.236,-0.928
47.443,-0.102,-0.242,-0.928
47.453,-0.102,-0.240,-0.928
47.463,-0.102,-0.242,-0.928
47.473,-0.098,-0.242,-0.924
47.483,-0.100,-0.246,-0.928
47.493,-0.098,-0.246,-0.924
47.503,-0.105,-0.240,-0.928
47.513,-0.105,-0.236,-0.928
47.523,-0.107,-0.236,-0.928
47.533,-0.107,-0.240,-0.928
47.543,-0.104,-0.240,-0.926
47.553,-0.102,-0.244,-0.928
