df_hash,22ZHK4.D641S7
device,HZ2X61
project_hash,29R7
project_name,istanbul_aydin_university
person_hash,29R7.TFPA
person_label,v106
date_time_start,2026-03-02_13-35-48.770000_+03
date_time_start_unix,1772444148.77
date_time_end,2026-03-02_13-44-33.021000_+03
length_difference_noticed,no

time,acc_x,acc_y,acc_z
5.036,-0.504,0.852,-0.062
5.046,-0.504,0.852,-0.064
5.056,-0.504,0.854,-0.066
5.066,-0.504,0.854,-0.064
5.076,-0.508,0.842,-0.066
5.086,-0.504,0.842,-0.062
5.096,-0.498,0.850,-0.066
5.105,-0.498,0.854,-0.064
5.115,-0.500,0.850,-0.062
5.125,-0.500,0.857,-0.066
5.135,-0.498,0.861,-0.068
5.145,-0.502,0.857,-0.068
5.155,-0.506,0.854,-0.066
5.165,-0.508,0.852,-0.066
5.175,-0.506,0.852,-0.064
5.185,-0.506,0.850,-0.068
5.195,-0.504,0.850,-0.070
5.205,-0.502,0.852,-0.070
5.215,-0.502,0.846,-0.068
5.225,-0.502,0.850,-0.068
5.235,-0.504,0.846,-0.068
5.244,-0.506,0.848,-0.066
5.254,-0.508,0.852,-0.066
5.264,-0.506,0.852,-0.068
5.274,-0.506,0.848,-0.070
5.284,-0.502,0.850,-0.068
5.294,-0.502,0.850,-0.066
5.304,-0.504,0.850,-0.066
5.314,-0.502,0.852,-0.066
5.324,-0.502,0.852,-0.066
5.334,-0.502,0.850,-0.068
5.344,-0.504,0.850,-0.066
5.354,-0.506,0.848,-0.066
5.364,-0.506,0.855,-0.068
5.374,-0.508,0.852,-0.068
5.384,-0.510,0.850,-0.070
5.393,-0.510,0.844,-0.066
5.403,-0.508,0.846,-0.066
5.413,-0.504,0.852,-0.068
5.423,-0.504,0.857,-0.068
5.433,-0.502,0.854,-0.066
5.443,-0.500,0.852,-0.068
5.453,-0.500,0.854,-0.068
5.463,-0.504,0.852,-0.066
5.473,-0.500,0.850,-0.064
5.483,-0.500,0.850,-0.066
5.493,-0.502,0.850,-0.066
5.503,-0.500,0.850,-0.068
5.513,-0.498,0.848,-0.070
5.523,-0.498,0.852,-0.068
5.533,-0.498,0.852,-0.068
5.542,-0.502,0.852,-0.066
5.552,-0.504,0.852,-0.070
5.562,-0.504,0.852,-0.066
5.572,-0.506,0.852,-0.066
5.582,-0.506,0.852,-0.070
5.592,-0.504,0.854,-0.072
5.602,-0.504,0.852,-0.072
5.612,-0.502,0.852,-0.070
5.622,-0.500,0.854,-0.068
5.632,-0.502,0.850,-0.068
5.642,-0.502,0.854,-0.068
5.652,-0.500,0.854,-0.070
5.662,-0.502,0.852,-0.066
5.672,-0.502,0.850,-0.066
5.682,-0.504,0.850,-0.070
5.691,-0.506,0.850,-0.072
5.701,-0.506,0.852,-0.068
5.711,-0.504,0.854,-0.068
5.721,-0.506,0.852,-0.066
5.731,-0.506,0.854,-0.064
5.741,-0.506,0.854,-0.068
5.751,-0.504,0.852,-0.066
5.761,-0.506,0.852,-0.066
5.771,-0.502,0.850,-0.068
5.781,-0.504,0.852,-0.066
5.791,-0.500,0.852,-0.068
5.801,-0.502,0.854,-0.068
5.811,-0.500,0.850,-0.064
5.821,-0.500,0.852,-0.066
5.830,-0.502,0.855,-0.070
5.840,-0.504,0.854,-0.066
5.850,-0.502,0.852,-0.068
5.860,-0.504,0.854,-0.068
5.870,-0.504,0.850,-0.068
5.880,-0.502,0.850,-0.070
5.890,-0.504,0.850,-0.068
5.900,-0.500,0.852,-0.064
5.910,-0.502,0.854,-0.066
5.920,-0.500,0.854,-0.066
5.930,-0.498,0.854,-0.068
5.940,-0.502,0.857,-0.066
5.950,-0.506,0.852,-0.070
5.960,-0.502,0.842,-0.068
5.970,-0.500,0.848,-0.064
5.979,-0.502,0.850,-0.064
5.989,-0.502,0.852,-0.064
5.999,-0.504,0.857,-0.064
6.009,-0.504,0.863,-0.068
6.019,-0.502,0.859,-0.068
6.029,-0.500,0.857,-0.064
6.039,-0.504,0.852,-0.068
6.049,-0.504,0.850,-0.066
6.059,-0.504,0.852,-0.068
6.069,-0.500,0.852,-0.068
6.079,-0.500,0.850,-0.066
6.089,-0.502,0.848,-0.068
6.099,-0.498,0.850,-0.068
6.109,-0.502,0.854,-0.066
6.119,-0.502,0.854,-0.068
6.128,-0.500,0.852,-0.070
6.138,-0.502,0.854,-0.068
6.148,-0.504,0.852,-0.068
6.158,-0.504,0.854,-0.068
6.168,-0.500,0.850,-0.066
6.178,-0.498,0.854,-0.068
6.188,-0.498,0.852,-0.068
6.198,-0.500,0.855,-0.068
6.208,-0.500,0.854,-0.068
6.218,-0.502,0.850,-0.066
6.228,-0.502,0.855,-0.066
6.238,-0.502,0.854,-0.064
6.248,-0.504,0.852,-0.068
6.258,-0.502,0.850,-0.066
6.267,-0.506,0.852,-0.062
6.277,-0.506,0.844,-0.066
6.287,-0.504,0.855,-0.066
6.297,-0.500,0.859,-0.064
6.307,-0.500,0.855,-0.066
6.317,-0.500,0.850,-0.064
6.327,-0.500,0.852,-0.064
6.337,-0.500,0.850,-0.062
6.347,-0.496,0.854,-0.066
6.357,-0.498,0.852,-0.062
6.367,-0.498,0.850,-0.066
6.377,-0.498,0.852,-0.066
6.387,-0.500,0.854,-0.066
6.397,-0.498,0.854,-0.068
6.407,-0.502,0.852,-0.068
6.416,-0.504,0.852,-0.070
6.426,-0.504,0.852,-0.068
6.436,-0.504,0.850,-0.068
6.446,-0.504,0.852,-0.066
6.456,-0.502,0.852,-0.066
6.466,-0.502,0.854,-0.068
6.476,-0.502,0.854,-0.066
6.486,-0.500,0.852,-0.070
6.496,-0.498,0.852,-0.066
6.506,-0.502,0.850,-0.070
6.516,-0.504,0.852,-0.072
6.526,-0.504,0.850,-0.070
6.536,-0.502,0.852,-0.068
6.546,-0.502,0.854,-0.066
6.556,-0.498,0.850,-0.072
6.565,-0.502,0.854,-0.070
6.575,-0.502,0.852,-0.066
6.585,-0.504,0.855,-0.072
6.595,-0.504,0.852,-0.066
6.605,-0.502,0.854,-0.066
6.615,-0.504,0.850,-0.070
6.625,-0.506,0.850,-0.070
6.635,-0.504,0.854,-0.070
6.645,-0.504,0.855,-0.070
6.655,-0.504,0.854,-0.066
6.665,-0.502,0.852,-0.066
6.675,-0.500,0.854,-0.066
6.685,-0.502,0.852,-0.066
6.695,-0.500,0.852,-0.066
6.705,-0.500,0.852,-0.066
6.714,-0.498,0.852,-0.068
6.724,-0.500,0.854,-0.066
6.734,-0.500,0.854,-0.066
6.744,-0.502,0.852,-0.066
6.754,-0.502,0.854,-0.064
6.764,-0.502,0.854,-0.066
6.774,-0.500,0.852,-0.062
6.784,-0.502,0.852,-0.064
6.794,-0.502,0.852,-0.068
6.804,-0.506,0.854,-0.066
6.814,-0.504,0.854,-0.066
6.824,-0.504,0.855,-0.066
6.834,-0.504,0.852,-0.066
6.844,-0.504,0.854,-0.064
6.853,-0.498,0.852,-0.068
6.863,-0.502,0.852,-0.066
6.873,-0.502,0.850,-0.066
6.883,-0.502,0.852,-0.064
6.893,-0.500,0.850,-0.066
6.903,-0.500,0.854,-0.068
6.913,-0.504,0.855,-0.066
6.923,-0.502,0.852,-0.066
6.933,-0.504,0.854,-0.066
6.943,-0.504,0.850,-0.066
6.953,-0.502,0.852,-0.064
6.963,-0.502,0.852,-0.066
6.973,-0.502,0.852,-0.066
6.983,-0.502,0.854,-0.066
6.993,-0.500,0.855,-0.068
7.002,-0.506,0.850,-0.070
7.012,-0.500,0.846,-0.066
7.022,-0.500,0.852,-0.064
7.032,-0.500,0.850,-0.066
7.042,-0.496,0.855,-0.062
7.052,-0.500,0.863,-0.068
7.062,-0.500,0.861,-0.070
7.072,-0.498,0.857,-0.068
7.082,-0.502,0.854,-0.066
7.092,-0.506,0.852,-0.068
7.102,-0.504,0.852,-0.066
7.112,-0.506,0.852,-0.068
7.122,-0.502,0.850,-0.064
7.132,-0.502,0.855,-0.066
7.142,-0.500,0.850,-0.064
7.151,-0.498,0.850,-0.068
7.161,-0.500,0.850,-0.066
7.171,-0.500,0.852,-0.070
7.181,-0.500,0.854,-0.068
7.191,-0.500,0.850,-0.070
7.201,-0.498,0.852,-0.068
7.211,-0.498,0.852,-0.066
7.221,-0.502,0.852,-0.072
7.231,-0.500,0.850,-0.070
7.241,-0.500,0.852,-0.070
7.251,-0.504,0.850,-0.070
7.261,-0.502,0.854,-0.068
7.271,-0.502,0.855,-0.070
7.281,-0.504,0.854,-0.066
7.290,-0.506,0.855,-0.066
7.300,-0.504,0.857,-0.068
7.310,-0.502,0.852,-0.064
7.320,-0.502,0.852,-0.064
7.330,-0.504,0.848,-0.064
7.340,-0.500,0.854,-0.068
7.350,-0.498,0.861,-0.064
7.360,-0.496,0.857,-0.068
7.370,-0.498,0.854,-0.064
7.380,-0.502,0.854,-0.062
7.390,-0.500,0.852,-0.064
7.400,-0.500,0.852,-0.064
7.410,-0.498,0.854,-0.066
7.420,-0.498,0.854,-0.068
7.430,-0.500,0.852,-0.066
7.439,-0.498,0.855,-0.068
7.449,-0.500,0.855,-0.070
7.459,-0.500,0.854,-0.066
7.469,-0.500,0.850,-0.072
7.479,-0.500,0.852,-0.064
7.489,-0.500,0.854,-0.068
7.499,-0.498,0.854,-0.068
7.509,-0.500,0.855,-0.066
7.519,-0.504,0.854,-0.070
7.529,-0.502,0.855,-0.070
7.539,-0.502,0.855,-0.070
7.549,-0.502,0.852,-0.072
7.559,-0.500,0.852,-0.076
7.569,-0.504,0.855,-0.068
7.579,-0.500,0.852,-0.070
7.588,-0.502,0.852,-0.068
7.598,-0.500,0.854,-0.068
7.608,-0.502,0.854,-0.072
7.618,-0.504,0.855,-0.072
7.628,-0.500,0.855,-0.064
7.638,-0.502,0.854,-0.070
7.648,-0.504,0.852,-0.070
7.658,-0.502,0.855,-0.068
7.668,-0.502,0.852,-0.068
7.678,-0.502,0.854,-0.066
7.688,-0.500,0.854,-0.068
7.698,-0.502,0.852,-0.066
7.708,-0.502,0.850,-0.064
7.718,-0.502,0.852,-0.068
7.728,-0.500,0.850,-0.066
7.737,-0.500,0.854,-0.066
7.747,-0.498,0.852,-0.062
7.757,-0.500,0.854,-0.068
7.767,-0.500,0.852,-0.062
7.777,-0.500,0.854,-0.066
7.787,-0.498,0.852,-0.066
7.797,-0.504,0.852,-0.066
7.807,-0.504,0.854,-0.066
7.817,-0.502,0.855,-0.068
7.827,-0.506,0.854,-0.066
7.837,-0.502,0.852,-0.068
7.847,-0.502,0.854,-0.064
7.857,-0.502,0.850,-0.068
7.867,-0.500,0.854,-0.062
7.876,-0.500,0.852,-0.068
7.886,-0.498,0.854,-0.068
7.896,-0.500,0.852,-0.066
7.906,-0.502,0.852,-0.062
7.916,-0.498,0.854,-0.064
7.926,-0.502,0.854,-0.066
7.936,-0.502,0.854,-0.066
7.946,-0.502,0.850,-0.066
7.956,-0.500,0.855,-0.064
7.966,-0.500,0.854,-0.064
7.976,-0.500,0.854,-0.068
7.986,-0.502,0.852,-0.066
7.996,-0.502,0.850,-0.066
8.006,-0.502,0.852,-0.070
8.016,-0.502,0.848,-0.068
8.025,-0.502,0.850,-0.066
8.035,-0.504,0.852,-0.070
8.045,-0.504,0.857,-0.070
8.055,-0.504,0.855,-0.066
8.065,-0.504,0.846,-0.070
8.075,-0.500,0.848,-0.072
8.085,-0.498,0.852,-0.068
8.095,-0.500,0.854,-0.066
8.105,-0.498,0.854,-0.066
8.115,-0.500,0.859,-0.068
8.125,-0.498,0.861,-0.068
8.135,-0.500,0.857,-0.068
8.145,-0.502,0.854,-0.064
8.155,-0.504,0.850,-0.068
8.165,-0.504,0.848,-0.068
8.174,-0.508,0.848,-0.068
8.184,-0.504,0.852,-0.068
8.194,-0.502,0.850,-0.068
8.204,-0.502,0.855,-0.070
8.214,-0.498,0.852,-0.066
8.224,-0.502,0.852,-0.068
8.234,-0.500,0.850,-0.064
8.244,-0.498,0.852,-0.066
8.254,-0.502,0.854,-0.068
8.264,-0.500,0.850,-0.068
8.274,-0.498,0.850,-0.064
8.284,-0.500,0.852,-0.066
8.294,-0.498,0.852,-0.066
8.304,-0.504,0.854,-0.068
8.314,-0.504,0.855,-0.062
8.323,-0.502,0.855,-0.066
8.333,-0.506,0.857,-0.064
8.343,-0.506,0.857,-0.064
8.353,-0.508,0.854,-0.068
8.363,-0.504,0.852,-0.068
8.373,-0.504,0.850,-0.064
8.383,-0.504,0.844,-0.066
8.393,-0.504,0.854,-0.066
8.403,-0.500,0.857,-0.066
8.413,-0.498,0.859,-0.064
8.423,-0.498,0.855,-0.061
8.433,-0.498,0.854,-0.068
8.443,-0.498,0.852,-0.066
8.453,-0.498,0.852,-0.064
8.462,-0.500,0.854,-0.066
8.472,-0.498,0.852,-0.068
8.482,-0.502,0.854,-0.068
8.492,-0.504,0.852,-0.066
8.502,-0.504,0.854,-0.066
8.512,-0.504,0.852,-0.066
8.522,-0.504,0.855,-0.066
8.532,-0.506,0.852,-0.068
8.542,-0.502,0.852,-0.066
8.552,-0.504,0.854,-0.066
8.562,-0.502,0.854,-0.066
8.572,-0.502,0.852,-0.066
8.582,-0.500,0.850,-0.068
8.592,-0.502,0.854,-0.068
8.602,-0.500,0.852,-0.072
8.611,-0.502,0.854,-0.068
8.621,-0.502,0.852,-0.070
8.631,-0.504,0.852,-0.070
8.641,-0.502,0.852,-0.068
8.651,-0.504,0.854,-0.068
8.661,-0.504,0.850,-0.070
8.671,-0.504,0.852,-0.070
8.681,-0.500,0.850,-0.066
8.691,-0.502,0.852,-0.068
8.701,-0.504,0.854,-0.068
8.711,-0.502,0.852,-0.066
8.721,-0.502,0.855,-0.066
8.731,-0.502,0.854,-0.068
8.741,-0.502,0.852,-0.064
8.751,-0.502,0.854,-0.066
8.760,-0.502,0.852,-0.064
8.770,-0.502,0.854,-0.066
8.780,-0.502,0.854,-0.062
8.790,-0.500,0.852,-0.064
8.800,-0.502,0.852,-0.064
8.810,-0.504,0.854,-0.066
8.820,-0.502,0.854,-0.062
8.830,-0.502,0.854,-0.066
8.840,-0.500,0.855,-0.062
8.850,-0.502,0.855,-0.064
8.860,-0.502,0.855,-0.062
8.870,-0.502,0.854,-0.066
8.880,-0.502,0.855,-0.064
8.890,-0.502,0.852,-0.064
8.899,-0.504,0.852,-0.064
8.909,-0.502,0.852,-0.068
8.919,-0.500,0.850,-0.064
8.929,-0.500,0.850,-0.064
8.939,-0.502,0.850,-0.064
8.949,-0.498,0.850,-0.064
8.959,-0.504,0.854,-0.061
8.969,-0.502,0.854,-0.064
8.979,-0.502,0.854,-0.062
8.989,-0.504,0.852,-0.062
8.999,-0.506,0.852,-0.062
9.009,-0.504,0.848,-0.064
9.019,-0.506,0.850,-0.062
9.029,-0.506,0.854,-0.062
9.039,-0.504,0.852,-0.064
9.048,-0.508,0.852,-0.064
9.058,-0.506,0.855,-0.064
9.068,-0.508,0.854,-0.068
9.078,-0.510,0.850,-0.066
9.088,-0.504,0.846,-0.064
9.098,-0.506,0.848,-0.062
9.108,-0.502,0.852,-0.062
9.118,-0.502,0.854,-0.062
9.128,-0.502,0.857,-0.066
9.138,-0.502,0.861,-0.068
9.148,-0.502,0.861,-0.066
9.158,-0.508,0.855,-0.066
9.168,-0.508,0.854,-0.066
9.178,-0.510,0.850,-0.070
9.188,-0.508,0.850,-0.064
9.197,-0.506,0.848,-0.072
9.207,-0.506,0.846,-0.068
9.217,-0.506,0.848,-0.066
9.227,-0.502,0.848,-0.066
9.237,-0.506,0.852,-0.066
9.247,-0.502,0.852,-0.064
9.257,-0.502,0.854,-0.066
9.267,-0.502,0.852,-0.064
9.277,-0.502,0.852,-0.066
9.287,-0.504,0.846,-0.064
9.297,-0.504,0.852,-0.064
9.307,-0.504,0.848,-0.066
9.317,-0.506,0.852,-0.064
9.327,-0.506,0.854,-0.070
9.337,-0.506,0.854,-0.068
9.346,-0.508,0.852,-0.064
9.356,-0.510,0.854,-0.066
9.366,-0.508,0.850,-0.062
9.376,-0.510,0.852,-0.070
9.386,-0.510,0.848,-0.064
9.396,-0.508,0.844,-0.062
9.406,-0.506,0.852,-0.064
9.416,-0.506,0.857,-0.068
9.426,-0.504,0.859,-0.068
9.436,-0.506,0.852,-0.066
9.446,-0.504,0.852,-0.062
9.456,-0.506,0.850,-0.066
9.466,-0.504,0.850,-0.064
9.476,-0.502,0.848,-0.066
9.485,-0.502,0.846,-0.066
9.495,-0.504,0.850,-0.070
9.505,-0.504,0.850,-0.070
9.515,-0.504,0.850,-0.070
9.525,-0.508,0.848,-0.066
9.535,-0.508,0.848,-0.070
9.545,-0.506,0.850,-0.068
9.555,-0.508,0.850,-0.070
9.565,-0.508,0.846,-0.066
9.575,-0.504,0.848,-0.072
9.585,-0.506,0.850,-0.072
9.595,-0.506,0.852,-0.068
9.605,-0.506,0.850,-0.068
9.615,-0.504,0.850,-0.072
9.625,-0.504,0.852,-0.072
9.634,-0.504,0.850,-0.072
9.644,-0.506,0.850,-0.070
9.654,-0.506,0.850,-0.070
9.664,-0.508,0.850,-0.068
9.674,-0.508,0.848,-0.070
9.684,-0.508,0.848,-0.070
9.694,-0.508,0.852,-0.074
9.704,-0.508,0.854,-0.070
9.714,-0.508,0.848,-0.070
9.724,-0.510,0.850,-0.070
9.734,-0.510,0.850,-0.068
9.744,-0.508,0.848,-0.070
9.754,-0.508,0.852,-0.068
9.764,-0.506,0.852,-0.070
9.774,-0.506,0.850,-0.070
9.783,-0.508,0.850,-0.068
9.793,-0.504,0.850,-0.072
9.803,-0.506,0.852,-0.066
9.813,-0.506,0.852,-0.070
9.823,-0.506,0.852,-0.068
9.833,-0.508,0.850,-0.068
9.843,-0.506,0.852,-0.068
9.853,-0.506,0.850,-0.068
9.863,-0.504,0.850,-0.066
9.873,-0.504,0.848,-0.070
9.883,-0.504,0.854,-0.066
9.893,-0.508,0.848,-0.070
9.903,-0.508,0.850,-0.064
9.913,-0.506,0.852,-0.068
9.922,-0.508,0.848,-0.066
9.932,-0.508,0.850,-0.068
9.942,-0.508,0.850,-0.068
9.952,-0.508,0.852,-0.068
9.962,-0.508,0.854,-0.068
9.972,-0.508,0.852,-0.070
9.982,-0.506,0.852,-0.068
9.992,-0.508,0.850,-0.070
10.002,-0.512,0.842,-0.066
10.012,-0.506,0.842,-0.070
10.022,-0.504,0.852,-0.066
10.032,-0.502,0.855,-0.068
10.042,-0.506,0.852,-0.064
10.052,-0.508,0.857,-0.066
10.062,-0.508,0.861,-0.068
10.071,-0.510,0.859,-0.068
10.081,-0.510,0.854,-0.070
10.091,-0.510,0.848,-0.070
10.101,-0.512,0.842,-0.074
10.111,-0.510,0.844,-0.072
10.121,-0.510,0.846,-0.070
10.131,-0.508,0.850,-0.068
10.141,-0.506,0.844,-0.072
10.151,-0.506,0.848,-0.068
10.161,-0.508,0.848,-0.068
10.171,-0.510,0.846,-0.068
10.181,-0.506,0.850,-0.066
10.191,-0.508,0.850,-0.068
10.201,-0.508,0.850,-0.066
10.211,-0.506,0.852,-0.068
10.220,-0.506,0.852,-0.068
10.230,-0.506,0.850,-0.064
10.240,-0.508,0.850,-0.068
10.250,-0.510,0.848,-0.066
10.260,-0.508,0.850,-0.068
10.270,-0.512,0.852,-0.072
10.280,-0.512,0.852,-0.072
10.290,-0.512,0.846,-0.070
10.300,-0.510,0.844,-0.066
10.310,-0.512,0.848,-0.068
10.320,-0.506,0.857,-0.070
10.330,-0.506,0.857,-0.072
10.340,-0.506,0.852,-0.068
10.350,-0.504,0.848,-0.070
10.360,-0.504,0.852,-0.070
10.369,-0.504,0.850,-0.070
10.379,-0.504,0.848,-0.070
10.389,-0.508,0.848,-0.068
10.399,-0.506,0.852,-0.074
10.409,-0.506,0.848,-0.070
10.419,-0.506,0.850,-0.072
10.429,-0.508,0.852,-0.068
10.439,-0.508,0.848,-0.072
10.449,-0.508,0.846,-0.072
10.459,-0.506,0.846,-0.072
10.469,-0.512,0.848,-0.066
10.479,-0.510,0.850,-0.072
10.489,-0.510,0.852,-0.070
10.499,-0.508,0.852,-0.068
10.508,-0.508,0.854,-0.070
10.518,-0.506,0.852,-0.068
10.528,-0.506,0.854,-0.068
10.538,-0.502,0.850,-0.070
10.548,-0.506,0.850,-0.068
10.558,-0.508,0.850,-0.074
10.568,-0.506,0.848,-0.068
10.578,-0.506,0.848,-0.074
10.588,-0.508,0.848,-0.070
10.598,-0.512,0.848,-0.072
10.608,-0.512,0.846,-0.074
10.618,-0.510,0.854,-0.070
10.628,-0.510,0.854,-0.070
10.638,-0.510,0.850,-0.070
10.648,-0.508,0.848,-0.068
10.657,-0.506,0.852,-0.070
10.667,-0.506,0.850,-0.070
10.677,-0.504,0.850,-0.068
10.687,-0.506,0.850,-0.070
10.697,-0.506,0.848,-0.070
10.707,-0.506,0.850,-0.070
10.717,-0.508,0.850,-0.066
10.727,-0.506,0.852,-0.068
10.737,-0.506,0.848,-0.068
10.747,-0.502,0.852,-0.066
10.757,-0.502,0.852,-0.064
10.767,-0.502,0.854,-0.068
10.777,-0.506,0.850,-0.068
10.787,-0.506,0.852,-0.068
10.797,-0.508,0.848,-0.066
10.806,-0.510,0.850,-0.066
10.816,-0.506,0.848,-0.070
10.826,-0.508,0.850,-0.070
10.836,-0.508,0.852,-0.066
10.846,-0.512,0.852,-0.070
10.856,-0.506,0.854,-0.070
10.866,-0.508,0.852,-0.070
10.876,-0.508,0.844,-0.072
10.886,-0.504,0.840,-0.068
10.896,-0.500,0.850,-0.072
10.906,-0.502,0.850,-0.066
10.916,-0.504,0.850,-0.070
10.926,-0.504,0.859,-0.068
10.936,-0.502,0.861,-0.072
10.945,-0.504,0.861,-0.068
10.955,-0.510,0.852,-0.072
10.965,-0.510,0.850,-0.072
10.975,-0.512,0.848,-0.074
10.985,-0.512,0.848,-0.072
10.995,-0.512,0.846,-0.074
11.005,-0.514,0.844,-0.072
11.015,-0.508,0.846,-0.074
11.025,-0.508,0.846,-0.074
11.035,-0.504,0.848,-0.070
11.045,-0.500,0.848,-0.072
11.055,-0.504,0.852,-0.070
11.065,-0.502,0.852,-0.072
11.075,-0.504,0.850,-0.072
11.085,-0.506,0.852,-0.066
11.094,-0.506,0.850,-0.068
11.104,-0.508,0.848,-0.072
11.114,-0.504,0.850,-0.072
11.124,-0.504,0.850,-0.070
11.134,-0.508,0.852,-0.072
11.144,-0.510,0.854,-0.072
11.154,-0.508,0.852,-0.072
11.164,-0.510,0.855,-0.070
11.174,-0.512,0.852,-0.070
11.184,-0.510,0.842,-0.070
11.194,-0.510,0.844,-0.066
11.204,-0.508,0.852,-0.074
11.214,-0.506,0.855,-0.070
11.224,-0.506,0.854,-0.072
11.234,-0.504,0.850,-0.070
11.243,-0.500,0.850,-0.068
11.253,-0.506,0.852,-0.072
11.263,-0.504,0.855,-0.070
11.273,-0.504,0.850,-0.072
11.283,-0.502,0.852,-0.072
11.293,-0.506,0.846,-0.070
11.303,-0.508,0.846,-0.072
11.313,-0.516,0.840,-0.076
11.323,-0.523,0.842,-0.078
11.333,-0.525,0.848,-0.078
11.343,-0.520,0.852,-0.076
11.353,-0.520,0.854,-0.080
11.363,-0.518,0.855,-0.076
11.373,-0.514,0.861,-0.076
11.383,-0.508,0.861,-0.080
11.392,-0.508,0.859,-0.078
11.402,-0.510,0.857,-0.080
11.412,-0.508,0.861,-0.082
11.422,-0.506,0.859,-0.080
11.432,-0.508,0.859,-0.084
11.442,-0.508,0.855,-0.084
11.452,-0.506,0.848,-0.082
11.462,-0.504,0.848,-0.086
11.472,-0.500,0.848,-0.086
11.482,-0.496,0.852,-0.086
11.492,-0.486,0.852,-0.088
11.502,-0.484,0.855,-0.086
11.512,-0.484,0.852,-0.086
11.522,-0.484,0.852,-0.086
11.531,-0.479,0.852,-0.088
11.541,-0.479,0.854,-0.086
11.551,-0.482,0.855,-0.088
11.561,-0.480,0.855,-0.090
11.571,-0.479,0.857,-0.090
11.581,-0.480,0.857,-0.084
11.591,-0.475,0.855,-0.088
11.601,-0.475,0.857,-0.092
11.611,-0.473,0.857,-0.090
11.621,-0.479,0.855,-0.090
11.631,-0.477,0.854,-0.092
11.641,-0.475,0.855,-0.088
11.651,-0.475,0.855,-0.092
11.661,-0.477,0.859,-0.090
11.671,-0.479,0.855,-0.092
11.680,-0.477,0.857,-0.088
11.690,-0.477,0.861,-0.092
11.700,-0.479,0.857,-0.090
11.710,-0.479,0.859,-0.092
11.720,-0.480,0.863,-0.090
11.730,-0.479,0.861,-0.090
11.740,-0.484,0.863,-0.088
11.750,-0.486,0.859,-0.090
11.760,-0.486,0.859,-0.092
11.770,-0.486,0.859,-0.088
11.780,-0.486,0.857,-0.092
11.790,-0.486,0.859,-0.090
11.800,-0.486,0.859,-0.094
11.810,-0.484,0.861,-0.090
11.820,-0.482,0.865,-0.094
11.829,-0.484,0.859,-0.090
11.839,-0.480,0.855,-0.094
11.849,-0.482,0.854,-0.094
11.859,-0.480,0.857,-0.090
11.869,-0.477,0.854,-0.090
11.879,-0.480,0.859,-0.094
11.889,-0.480,0.865,-0.092
11.899,-0.482,0.871,-0.094
11.909,-0.480,0.863,-0.096
11.919,-0.484,0.861,-0.096
11.929,-0.484,0.859,-0.090
11.939,-0.486,0.857,-0.094
11.949,-0.488,0.857,-0.096
11.959,-0.486,0.855,-0.092
11.968,-0.486,0.855,-0.092
11.978,-0.482,0.855,-0.098
11.988,-0.480,0.855,-0.094
11.998,-0.480,0.859,-0.092
12.008,-0.480,0.859,-0.094
12.018,-0.480,0.857,-0.094
12.028,-0.482,0.861,-0.092
12.038,-0.482,0.865,-0.092
12.048,-0.480,0.861,-0.092
12.058,-0.480,0.859,-0.090
12.068,-0.482,0.857,-0.090
12.078,-0.480,0.859,-0.094
12.088,-0.480,0.857,-0.092
12.098,-0.479,0.857,-0.090
12.108,-0.482,0.857,-0.090
12.117,-0.482,0.861,-0.092
12.127,-0.482,0.863,-0.092
12.137,-0.482,0.861,-0.094
12.147,-0.480,0.861,-0.088
12.157,-0.484,0.859,-0.090
12.167,-0.482,0.859,-0.092
12.177,-0.480,0.861,-0.090
12.187,-0.479,0.867,-0.092
12.197,-0.475,0.869,-0.094
12.207,-0.477,0.861,-0.092
12.217,-0.479,0.861,-0.090
12.227,-0.479,0.859,-0.094
12.237,-0.480,0.861,-0.092
12.247,-0.480,0.859,-0.092
12.257,-0.479,0.857,-0.096
12.266,-0.479,0.857,-0.094
12.276,-0.484,0.859,-0.094
12.286,-0.482,0.859,-0.094
12.296,-0.480,0.857,-0.096
12.306,-0.482,0.859,-0.094
12.316,-0.480,0.859,-0.096
12.326,-0.480,0.857,-0.094
12.336,-0.484,0.859,-0.094
12.346,-0.482,0.861,-0.096
12.356,-0.482,0.863,-0.092
12.366,-0.482,0.863,-0.096
12.376,-0.480,0.861,-0.096
12.386,-0.482,0.863,-0.096
12.396,-0.480,0.857,-0.096
12.406,-0.484,0.859,-0.098
12.415,-0.482,0.857,-0.098
12.425,-0.488,0.859,-0.094
12.435,-0.484,0.859,-0.098
12.445,-0.488,0.861,-0.096
12.455,-0.484,0.859,-0.098
12.465,-0.482,0.855,-0.096
12.475,-0.484,0.855,-0.096
12.485,-0.480,0.855,-0.092
12.495,-0.482,0.857,-0.096
12.505,-0.484,0.855,-0.092
12.515,-0.484,0.859,-0.094
12.525,-0.479,0.865,-0.096
12.535,-0.482,0.861,-0.092
12.545,-0.480,0.861,-0.092
12.554,-0.482,0.859,-0.094
12.564,-0.482,0.861,-0.092
12.574,-0.482,0.859,-0.092
12.584,-0.482,0.859,-0.088
12.594,-0.484,0.857,-0.094
12.604,-0.484,0.859,-0.090
12.614,-0.482,0.861,-0.090
12.624,-0.484,0.859,-0.090
12.634,-0.480,0.859,-0.092
12.644,-0.484,0.863,-0.094
12.654,-0.480,0.859,-0.090
12.664,-0.480,0.861,-0.094
12.674,-0.477,0.863,-0.092
12.684,-0.480,0.857,-0.092
12.694,-0.482,0.857,-0.092
12.703,-0.484,0.857,-0.092
12.713,-0.484,0.857,-0.096
12.723,-0.484,0.861,-0.092
12.733,-0.480,0.857,-0.092
12.743,-0.482,0.857,-0.092
12.753,-0.479,0.859,-0.094
12.763,-0.479,0.857,-0.094
12.773,-0.480,0.857,-0.092
12.783,-0.480,0.857,-0.092
12.793,-0.482,0.859,-0.094
12.803,-0.484,0.861,-0.094
12.813,-0.486,0.859,-0.098
12.823,-0.488,0.861,-0.094
12.833,-0.490,0.857,-0.096
12.843,-0.486,0.857,-0.094
12.852,-0.488,0.859,-0.096
12.862,-0.482,0.857,-0.092
12.872,-0.484,0.857,-0.094
12.882,-0.484,0.863,-0.096
12.892,-0.482,0.867,-0.100
12.902,-0.482,0.865,-0.096
12.912,-0.484,0.855,-0.098
12.922,-0.486,0.855,-0.096
12.932,-0.486,0.855,-0.098
12.942,-0.488,0.857,-0.096
12.952,-0.486,0.855,-0.094
12.962,-0.486,0.857,-0.092
12.972,-0.484,0.859,-0.090
12.982,-0.484,0.861,-0.092
12.991,-0.484,0.859,-0.094
13.001,-0.484,0.859,-0.094
13.011,-0.486,0.857,-0.090
13.021,-0.482,0.857,-0.096
13.031,-0.482,0.855,-0.092
13.041,-0.482,0.855,-0.092
13.051,-0.482,0.854,-0.090
13.061,-0.480,0.861,-0.094
13.071,-0.482,0.859,-0.088
13.081,-0.482,0.861,-0.090
13.091,-0.484,0.857,-0.090
13.101,-0.486,0.863,-0.090
13.111,-0.486,0.859,-0.094
13.121,-0.486,0.861,-0.094
13.131,-0.486,0.861,-0.094
13.140,-0.484,0.861,-0.090
13.150,-0.488,0.857,-0.090
13.160,-0.484,0.854,-0.094
13.170,-0.482,0.857,-0.094
13.180,-0.482,0.861,-0.094
13.190,-0.480,0.859,-0.092
13.200,-0.482,0.859,-0.094
13.210,-0.482,0.855,-0.090
13.220,-0.488,0.861,-0.094
13.230,-0.486,0.859,-0.092
13.240,-0.484,0.861,-0.092
13.250,-0.486,0.857,-0.092
13.260,-0.484,0.859,-0.096
13.270,-0.486,0.859,-0.096
13.280,-0.484,0.855,-0.096
13.289,-0.484,0.857,-0.096
13.299,-0.488,0.854,-0.094
13.309,-0.488,0.855,-0.098
13.319,-0.490,0.857,-0.098
13.329,-0.490,0.855,-0.092
13.339,-0.490,0.857,-0.096
13.349,-0.490,0.859,-0.096
13.359,-0.490,0.857,-0.098
13.369,-0.488,0.861,-0.096
13.379,-0.490,0.855,-0.096
13.389,-0.486,0.854,-0.098
13.399,-0.486,0.854,-0.098
13.409,-0.484,0.855,-0.100
13.419,-0.482,0.855,-0.096
13.429,-0.486,0.854,-0.096
13.438,-0.486,0.855,-0.096
13.448,-0.488,0.859,-0.094
13.458,-0.486,0.859,-0.094
13.468,-0.482,0.857,-0.094
13.478,-0.480,0.852,-0.092
13.488,-0.480,0.846,-0.090
13.498,-0.475,0.844,-0.080
13.508,-0.467,0.840,-0.080
13.518,-0.463,0.850,-0.080
13.528,-0.465,0.861,-0.084
13.538,-0.475,0.871,-0.086
13.548,-0.482,0.875,-0.092
13.558,-0.482,0.871,-0.088
13.568,-0.473,0.863,-0.082
13.577,-0.473,0.857,-0.088
13.587,-0.486,0.854,-0.084
13.597,-0.492,0.852,-0.082
13.607,-0.492,0.855,-0.086
13.617,-0.490,0.861,-0.084
13.627,-0.492,0.869,-0.084
13.637,-0.494,0.875,-0.084
13.647,-0.494,0.879,-0.084
13.657,-0.488,0.879,-0.078
13.667,-0.477,0.879,-0.078
13.677,-0.473,0.881,-0.074
13.687,-0.469,0.877,-0.072
13.697,-0.461,0.881,-0.068
13.707,-0.457,0.875,-0.068
13.717,-0.451,0.865,-0.061
13.726,-0.453,0.859,-0.064
13.736,-0.459,0.861,-0.064
13.746,-0.469,0.861,-0.066
13.756,-0.473,0.867,-0.068
13.766,-0.473,0.869,-0.076
13.776,-0.475,0.871,-0.068
13.786,-0.471,0.875,-0.072
13.796,-0.471,0.875,-0.070
13.806,-0.475,0.879,-0.068
13.816,-0.473,0.875,-0.070
13.826,-0.471,0.869,-0.062
13.836,-0.465,0.867,-0.061
13.846,-0.465,0.871,-0.061
13.856,-0.459,0.873,-0.061
13.866,-0.461,0.875,-0.062
13.875,-0.463,0.879,-0.062
13.885,-0.459,0.879,-0.062
13.895,-0.457,0.871,-0.059
13.905,-0.463,0.869,-0.062
13.915,-0.467,0.863,-0.061
13.925,-0.465,0.861,-0.059
13.935,-0.471,0.861,-0.061
13.945,-0.473,0.863,-0.062
13.955,-0.473,0.867,-0.061
13.965,-0.471,0.865,-0.062
13.975,-0.477,0.863,-0.064
13.985,-0.475,0.865,-0.064
13.995,-0.473,0.863,-0.061
14.005,-0.477,0.859,-0.061
14.014,-0.475,0.861,-0.064
14.024,-0.477,0.863,-0.062
14.034,-0.482,0.857,-0.062
14.044,-0.484,0.859,-0.062
14.054,-0.482,0.863,-0.061
14.064,-0.479,0.865,-0.059
14.074,-0.477,0.859,-0.057
14.084,-0.475,0.859,-0.057
14.094,-0.482,0.854,-0.061
14.104,-0.488,0.857,-0.057
14.114,-0.488,0.859,-0.057
14.124,-0.484,0.865,-0.059
14.134,-0.480,0.865,-0.053
14.144,-0.480,0.863,-0.057
14.154,-0.488,0.863,-0.057
14.163,-0.500,0.869,-0.055
14.173,-0.504,0.867,-0.059
14.183,-0.506,0.865,-0.059
14.193,-0.510,0.865,-0.059
14.203,-0.516,0.863,-0.061
14.213,-0.514,0.863,-0.061
14.223,-0.521,0.855,-0.062
14.233,-0.523,0.863,-0.057
14.243,-0.518,0.855,-0.059
14.253,-0.506,0.842,-0.055
14.263,-0.506,0.850,-0.059
14.273,-0.502,0.854,-0.059
14.283,-0.506,0.852,-0.061
14.293,-0.508,0.857,-0.062
14.303,-0.510,0.857,-0.059
14.312,-0.510,0.854,-0.062
14.322,-0.508,0.854,-0.057
14.332,-0.506,0.848,-0.059
14.342,-0.498,0.848,-0.055
14.352,-0.494,0.846,-0.053
14.362,-0.492,0.842,-0.053
14.372,-0.492,0.842,-0.057
14.382,-0.498,0.848,-0.061
14.392,-0.504,0.848,-0.061
14.402,-0.510,0.846,-0.057
14.412,-0.512,0.842,-0.057
14.422,-0.510,0.842,-0.059
14.432,-0.514,0.844,-0.061
14.442,-0.514,0.844,-0.062
14.452,-0.512,0.848,-0.064
14.461,-0.514,0.852,-0.062
14.471,-0.516,0.850,-0.061
14.481,-0.516,0.848,-0.062
14.491,-0.518,0.850,-0.059
14.501,-0.518,0.846,-0.059
14.511,-0.525,0.844,-0.062
14.521,-0.525,0.842,-0.064
14.531,-0.523,0.846,-0.061
14.541,-0.520,0.844,-0.062
14.551,-0.521,0.846,-0.061
14.561,-0.521,0.846,-0.062
14.571,-0.527,0.852,-0.061
14.581,-0.521,0.852,-0.066
14.591,-0.525,0.850,-0.062
14.600,-0.525,0.850,-0.062
14.610,-0.525,0.844,-0.062
14.620,-0.525,0.838,-0.059
14.630,-0.523,0.838,-0.061
14.640,-0.520,0.836,-0.055
14.650,-0.518,0.838,-0.057
14.660,-0.518,0.838,-0.055
14.670,-0.523,0.840,-0.062
14.680,-0.523,0.840,-0.062
14.690,-0.525,0.840,-0.062
14.700,-0.529,0.842,-0.059
14.710,-0.527,0.844,-0.061
14.720,-0.527,0.838,-0.061
14.730,-0.529,0.838,-0.064
14.740,-0.533,0.840,-0.068
14.749,-0.537,0.834,-0.064
14.759,-0.531,0.832,-0.062
14.769,-0.533,0.834,-0.064
14.779,-0.537,0.830,-0.068
14.789,-0.541,0.834,-0.064
14.799,-0.541,0.836,-0.064
14.809,-0.539,0.838,-0.068
14.819,-0.541,0.840,-0.068
14.829,-0.541,0.838,-0.070
14.839,-0.549,0.836,-0.070
14.849,-0.549,0.830,-0.070
14.859,-0.551,0.828,-0.072
14.869,-0.551,0.828,-0.072
14.879,-0.553,0.828,-0.070
14.889,-0.549,0.828,-0.070
14.898,-0.551,0.824,-0.068
14.908,-0.553,0.824,-0.068
14.918,-0.551,0.828,-0.068
14.928,-0.547,0.834,-0.072
14.938,-0.551,0.836,-0.072
14.948,-0.549,0.836,-0.068
14.958,-0.547,0.832,-0.068
14.968,-0.545,0.828,-0.068
14.978,-0.547,0.822,-0.066
14.988,-0.547,0.820,-0.068
14.998,-0.547,0.824,-0.066
15.008,-0.547,0.830,-0.062
15.018,-0.547,0.830,-0.064
15.028,-0.551,0.832,-0.066
15.038,-0.547,0.838,-0.068
15.047,-0.553,0.832,-0.068
15.057,-0.559,0.824,-0.066
15.067,-0.553,0.816,-0.062
15.077,-0.549,0.824,-0.064
15.087,-0.549,0.832,-0.064
15.097,-0.547,0.834,-0.066
15.107,-0.547,0.832,-0.070
15.117,-0.549,0.826,-0.070
15.127,-0.553,0.824,-0.068
15.137,-0.551,0.826,-0.072
15.147,-0.553,0.822,-0.068
15.157,-0.551,0.822,-0.068
15.167,-0.549,0.828,-0.064
15.177,-0.551,0.828,-0.066
15.186,-0.551,0.826,-0.066
15.196,-0.551,0.828,-0.068
15.206,-0.551,0.828,-0.068
15.216,-0.551,0.828,-0.064
15.226,-0.553,0.826,-0.070
15.236,-0.553,0.822,-0.070
15.246,-0.555,0.830,-0.068
15.256,-0.553,0.830,-0.070
15.266,-0.551,0.828,-0.070
15.276,-0.551,0.826,-0.074
15.286,-0.551,0.826,-0.068
15.296,-0.549,0.822,-0.072
15.306,-0.553,0.820,-0.068
15.316,-0.555,0.822,-0.070
15.326,-0.551,0.824,-0.070
15.335,-0.551,0.828,-0.070
15.345,-0.549,0.826,-0.072
15.355,-0.551,0.828,-0.072
15.365,-0.553,0.828,-0.068
15.375,-0.555,0.826,-0.074
15.385,-0.553,0.826,-0.072
15.395,-0.555,0.822,-0.074
15.405,-0.553,0.822,-0.072
15.415,-0.553,0.824,-0.070
15.425,-0.551,0.824,-0.070
15.435,-0.553,0.824,-0.072
15.445,-0.555,0.820,-0.070
15.455,-0.553,0.822,-0.070
15.465,-0.553,0.826,-0.070
15.475,-0.553,0.824,-0.066
15.484,-0.555,0.826,-0.072
15.494,-0.555,0.820,-0.072
15.504,-0.559,0.824,-0.074
15.514,-0.557,0.828,-0.074
15.524,-0.557,0.830,-0.072
15.534,-0.555,0.824,-0.076
15.544,-0.551,0.824,-0.072
15.554,-0.551,0.824,-0.072
15.564,-0.555,0.818,-0.072
15.574,-0.557,0.812,-0.076
15.584,-0.553,0.816,-0.074
15.594,-0.555,0.826,-0.074
15.604,-0.555,0.824,-0.074
15.614,-0.555,0.822,-0.072
15.623,-0.553,0.826,-0.076
15.633,-0.555,0.830,-0.074
15.643,-0.553,0.830,-0.078
15.653,-0.555,0.822,-0.076
15.663,-0.557,0.816,-0.072
15.673,-0.557,0.818,-0.074
15.683,-0.557,0.820,-0.076
15.693,-0.559,0.822,-0.076
15.703,-0.559,0.824,-0.076
15.713,-0.559,0.824,-0.074
15.723,-0.557,0.824,-0.076
15.733,-0.559,0.818,-0.074
15.743,-0.557,0.818,-0.074
15.753,-0.557,0.820,-0.074
15.763,-0.559,0.820,-0.078
15.772,-0.557,0.824,-0.074
15.782,-0.557,0.818,-0.074
15.792,-0.557,0.818,-0.076
15.802,-0.559,0.820,-0.076
15.812,-0.561,0.824,-0.074
15.822,-0.557,0.822,-0.076
15.832,-0.561,0.822,-0.074
15.842,-0.561,0.820,-0.074
15.852,-0.562,0.816,-0.074
15.862,-0.564,0.816,-0.072
15.872,-0.564,0.824,-0.078
15.882,-0.562,0.828,-0.082
15.892,-0.561,0.824,-0.076
15.902,-0.561,0.820,-0.074
15.912,-0.559,0.818,-0.076
15.921,-0.557,0.822,-0.076
15.931,-0.561,0.818,-0.078
15.941,-0.559,0.814,-0.078
15.951,-0.564,0.818,-0.074
15.961,-0.559,0.818,-0.074
15.971,-0.559,0.820,-0.074
15.981,-0.559,0.822,-0.076
15.991,-0.559,0.820,-0.076
16.001,-0.557,0.824,-0.076
16.011,-0.557,0.816,-0.076
16.021,-0.559,0.814,-0.076
16.031,-0.559,0.814,-0.076
16.041,-0.561,0.816,-0.078
16.051,-0.562,0.816,-0.078
16.061,-0.566,0.818,-0.082
16.070,-0.562,0.818,-0.076
16.080,-0.564,0.820,-0.078
16.090,-0.564,0.822,-0.078
16.100,-0.562,0.818,-0.074
16.110,-0.559,0.818,-0.080
16.120,-0.557,0.812,-0.076
16.130,-0.559,0.816,-0.080
16.140,-0.561,0.816,-0.084
16.150,-0.562,0.814,-0.080
16.160,-0.562,0.816,-0.080
16.170,-0.564,0.814,-0.080
16.180,-0.566,0.816,-0.080
16.190,-0.564,0.814,-0.078
16.200,-0.566,0.818,-0.078
16.209,-0.566,0.816,-0.080
16.219,-0.562,0.818,-0.080
16.229,-0.562,0.814,-0.080
16.239,-0.566,0.816,-0.080
16.249,-0.566,0.807,-0.076
16.259,-0.562,0.812,-0.078
16.269,-0.564,0.814,-0.080
16.279,-0.561,0.816,-0.076
16.289,-0.564,0.814,-0.076
16.299,-0.562,0.820,-0.078
16.309,-0.561,0.824,-0.080
16.319,-0.562,0.826,-0.080
16.329,-0.568,0.822,-0.080
16.339,-0.572,0.814,-0.076
16.349,-0.570,0.812,-0.078
16.358,-0.568,0.811,-0.084
16.368,-0.568,0.812,-0.082
16.378,-0.568,0.814,-0.076
16.388,-0.566,0.812,-0.074
16.398,-0.566,0.814,-0.080
16.408,-0.564,0.812,-0.078
16.418,-0.562,0.812,-0.078
16.428,-0.566,0.814,-0.076
16.438,-0.568,0.814,-0.078
16.448,-0.566,0.811,-0.078
16.458,-0.564,0.816,-0.078
16.468,-0.568,0.814,-0.076
16.478,-0.570,0.816,-0.078
16.488,-0.566,0.816,-0.078
16.498,-0.568,0.818,-0.076
16.507,-0.566,0.818,-0.076
16.517,-0.566,0.814,-0.078
16.527,-0.566,0.812,-0.082
16.537,-0.568,0.807,-0.080
16.547,-0.566,0.809,-0.074
16.557,-0.564,0.818,-0.080
16.567,-0.570,0.822,-0.082
16.577,-0.572,0.818,-0.082
16.587,-0.570,0.816,-0.080
16.597,-0.562,0.816,-0.078
16.607,-0.564,0.818,-0.078
16.617,-0.564,0.818,-0.076
16.627,-0.562,0.816,-0.078
16.637,-0.562,0.809,-0.078
16.646,-0.564,0.811,-0.078
16.656,-0.562,0.811,-0.078
16.666,-0.562,0.809,-0.080
16.676,-0.566,0.816,-0.082
16.686,-0.564,0.814,-0.084
16.696,-0.568,0.812,-0.080
16.706,-0.570,0.812,-0.080
16.716,-0.568,0.811,-0.080
16.726,-0.570,0.811,-0.082
16.736,-0.570,0.812,-0.080
16.746,-0.570,0.816,-0.080
16.756,-0.568,0.814,-0.082
16.766,-0.566,0.816,-0.082
16.776,-0.566,0.816,-0.082
16.786,-0.564,0.814,-0.084
16.795,-0.566,0.811,-0.080
16.805,-0.566,0.812,-0.080
16.815,-0.566,0.812,-0.082
16.825,-0.566,0.812,-0.078
16.835,-0.570,0.811,-0.080
16.845,-0.570,0.814,-0.084
16.855,-0.570,0.812,-0.078
16.865,-0.568,0.816,-0.084
16.875,-0.568,0.814,-0.078
16.885,-0.566,0.812,-0.076
16.895,-0.570,0.816,-0.078
16.905,-0.570,0.818,-0.080
16.915,-0.564,0.816,-0.082
16.925,-0.568,0.814,-0.084
16.935,-0.572,0.807,-0.080
16.944,-0.564,0.805,-0.078
16.954,-0.564,0.809,-0.084
16.964,-0.566,0.812,-0.078
16.974,-0.570,0.814,-0.080
16.984,-0.570,0.818,-0.088
16.994,-0.570,0.820,-0.084
17.004,-0.568,0.820,-0.082
17.014,-0.574,0.814,-0.082
17.024,-0.574,0.811,-0.086
17.034,-0.570,0.809,-0.082
17.044,-0.568,0.812,-0.086
17.054,-0.570,0.811,-0.082
17.064,-0.570,0.809,-0.080
17.074,-0.572,0.809,-0.078
17.084,-0.570,0.807,-0.084
17.093,-0.570,0.811,-0.086
17.103,-0.572,0.812,-0.086
17.113,-0.572,0.814,-0.080
17.123,-0.572,0.811,-0.082
17.133,-0.570,0.811,-0.082
17.143,-0.570,0.811,-0.082
17.153,-0.570,0.811,-0.084
17.163,-0.570,0.812,-0.082
17.173,-0.570,0.812,-0.082
17.183,-0.570,0.811,-0.078
17.193,-0.570,0.809,-0.080
17.203,-0.570,0.812,-0.082
17.213,-0.572,0.814,-0.084
17.223,-0.572,0.809,-0.082
17.232,-0.572,0.807,-0.080
17.242,-0.574,0.803,-0.078
17.252,-0.572,0.811,-0.082
17.262,-0.568,0.816,-0.080
17.272,-0.568,0.818,-0.082
17.282,-0.570,0.814,-0.082
17.292,-0.568,0.812,-0.082
17.302,-0.572,0.812,-0.080
17.312,-0.572,0.812,-0.080
17.322,-0.572,0.812,-0.082
17.332,-0.570,0.811,-0.082
17.342,-0.572,0.807,-0.078
17.352,-0.574,0.809,-0.082
17.362,-0.570,0.812,-0.082
17.372,-0.574,0.809,-0.082
17.381,-0.572,0.814,-0.082
17.391,-0.568,0.812,-0.078
17.401,-0.572,0.816,-0.078
17.411,-0.572,0.814,-0.082
17.421,-0.570,0.816,-0.082
17.431,-0.564,0.818,-0.084
17.441,-0.562,0.818,-0.082
17.451,-0.561,0.820,-0.086
17.461,-0.562,0.820,-0.080
17.471,-0.559,0.818,-0.082
17.481,-0.555,0.818,-0.080
17.491,-0.549,0.820,-0.080
17.501,-0.543,0.814,-0.078
17.511,-0.539,0.820,-0.076
17.521,-0.537,0.822,-0.076
17.530,-0.539,0.820,-0.070
17.540,-0.543,0.809,-0.070
17.550,-0.549,0.795,-0.072
17.560,-0.555,0.779,-0.068
17.570,-0.568,0.785,-0.070
17.580,-0.578,0.777,-0.070
17.590,-0.586,0.779,-0.074
17.600,-0.594,0.777,-0.080
17.610,-0.605,0.771,-0.078
17.620,-0.619,0.762,-0.082
17.630,-0.631,0.754,-0.080
17.640,-0.641,0.752,-0.080
17.650,-0.645,0.758,-0.088
17.660,-0.650,0.770,-0.090
17.669,-0.654,0.768,-0.090
17.679,-0.656,0.768,-0.092
17.689,-0.664,0.756,-0.092
17.699,-0.672,0.754,-0.094
17.709,-0.682,0.734,-0.090
17.719,-0.684,0.727,-0.100
17.729,-0.689,0.717,-0.098
17.739,-0.691,0.721,-0.100
17.749,-0.693,0.719,-0.104
17.759,-0.695,0.725,-0.105
17.769,-0.699,0.717,-0.109
17.779,-0.701,0.723,-0.113
17.789,-0.707,0.719,-0.113
17.799,-0.711,0.709,-0.115
17.809,-0.707,0.713,-0.115
17.818,-0.709,0.713,-0.117
17.828,-0.711,0.707,-0.113
17.838,-0.711,0.701,-0.117
17.848,-0.709,0.703,-0.119
17.858,-0.717,0.705,-0.125
17.868,-0.723,0.701,-0.127
17.878,-0.725,0.701,-0.127
17.888,-0.719,0.703,-0.127
17.898,-0.715,0.701,-0.131
17.908,-0.713,0.689,-0.121
17.918,-0.709,0.693,-0.123
17.928,-0.707,0.697,-0.129
17.938,-0.709,0.699,-0.127
17.948,-0.713,0.689,-0.125
17.958,-0.717,0.689,-0.127
17.967,-0.717,0.691,-0.125
17.977,-0.719,0.689,-0.129
17.987,-0.725,0.689,-0.129
17.997,-0.727,0.688,-0.129
18.007,-0.729,0.688,-0.131
18.017,-0.725,0.688,-0.129
18.027,-0.725,0.684,-0.129
18.037,-0.727,0.684,-0.131
18.047,-0.729,0.682,-0.133
18.057,-0.725,0.684,-0.131
18.067,-0.734,0.680,-0.137
18.077,-0.738,0.672,-0.133
18.087,-0.736,0.666,-0.137
18.097,-0.740,0.664,-0.137
18.107,-0.746,0.662,-0.141
18.116,-0.744,0.670,-0.139
18.126,-0.746,0.668,-0.141
18.136,-0.744,0.668,-0.141
18.146,-0.740,0.666,-0.139
18.156,-0.740,0.670,-0.141
18.166,-0.742,0.674,-0.143
18.176,-0.738,0.668,-0.139
18.186,-0.734,0.676,-0.139
18.196,-0.738,0.658,-0.137
18.206,-0.744,0.668,-0.137
18.216,-0.748,0.662,-0.143
18.226,-0.744,0.670,-0.141
18.236,-0.738,0.668,-0.139
18.246,-0.740,0.666,-0.139
18.255,-0.742,0.668,-0.141
18.265,-0.742,0.676,-0.141
18.275,-0.740,0.672,-0.141
18.285,-0.740,0.672,-0.139
18.295,-0.742,0.668,-0.141
18.305,-0.746,0.664,-0.145
18.315,-0.748,0.658,-0.143
18.325,-0.744,0.656,-0.139
18.335,-0.742,0.656,-0.139
18.345,-0.744,0.664,-0.137
18.355,-0.744,0.672,-0.146
18.365,-0.738,0.678,-0.146
18.375,-0.736,0.678,-0.145
18.385,-0.736,0.674,-0.146
18.395,-0.734,0.668,-0.146
18.404,-0.738,0.664,-0.145
18.414,-0.738,0.658,-0.143
18.424,-0.742,0.658,-0.145
18.434,-0.738,0.658,-0.141
18.444,-0.732,0.660,-0.143
18.454,-0.734,0.660,-0.145
18.464,-0.734,0.662,-0.143
18.474,-0.738,0.662,-0.148
18.484,-0.740,0.664,-0.150
18.494,-0.740,0.666,-0.145
18.504,-0.740,0.670,-0.145
18.514,-0.734,0.666,-0.146
18.524,-0.732,0.666,-0.148
18.534,-0.734,0.666,-0.150
18.544,-0.732,0.664,-0.150
18.553,-0.727,0.664,-0.156
18.563,-0.734,0.660,-0.154
18.573,-0.738,0.660,-0.152
18.583,-0.738,0.658,-0.160
18.593,-0.734,0.658,-0.160
18.603,-0.736,0.662,-0.162
18.613,-0.740,0.656,-0.158
18.623,-0.740,0.660,-0.160
18.633,-0.740,0.662,-0.162
18.643,-0.740,0.662,-0.166
18.653,-0.740,0.658,-0.162
18.663,-0.744,0.660,-0.160
18.673,-0.746,0.658,-0.162
18.683,-0.744,0.662,-0.162
18.692,-0.742,0.666,-0.166
18.702,-0.742,0.662,-0.162
18.712,-0.742,0.666,-0.170
18.722,-0.736,0.658,-0.164
18.732,-0.732,0.658,-0.168
18.742,-0.734,0.656,-0.162
18.752,-0.738,0.654,-0.164
18.762,-0.738,0.652,-0.164
18.772,-0.740,0.658,-0.168
18.782,-0.740,0.656,-0.170
18.792,-0.738,0.660,-0.170
18.802,-0.738,0.660,-0.170
18.812,-0.738,0.664,-0.172
18.822,-0.738,0.662,-0.170
18.832,-0.732,0.652,-0.168
18.841,-0.732,0.654,-0.172
18.851,-0.732,0.652,-0.172
18.861,-0.736,0.654,-0.172
18.871,-0.736,0.652,-0.174
18.881,-0.740,0.650,-0.170
18.891,-0.740,0.656,-0.166
18.901,-0.744,0.652,-0.172
18.911,-0.742,0.652,-0.170
18.921,-0.742,0.656,-0.178
18.931,-0.740,0.654,-0.176
18.941,-0.738,0.656,-0.176
18.951,-0.740,0.656,-0.176
18.961,-0.740,0.662,-0.172
18.971,-0.742,0.656,-0.172
18.981,-0.738,0.654,-0.172
18.990,-0.742,0.656,-0.174
19.000,-0.736,0.648,-0.166
19.010,-0.740,0.646,-0.170
19.020,-0.740,0.648,-0.166
19.030,-0.736,0.648,-0.170
19.040,-0.738,0.654,-0.166
19.050,-0.738,0.658,-0.170
19.060,-0.736,0.662,-0.172
19.070,-0.740,0.660,-0.172
19.080,-0.742,0.658,-0.172
19.090,-0.742,0.650,-0.172
19.100,-0.738,0.650,-0.170
19.110,-0.740,0.648,-0.172
19.120,-0.740,0.645,-0.168
19.130,-0.746,0.646,-0.170
19.139,-0.748,0.652,-0.172
19.149,-0.748,0.656,-0.176
19.159,-0.748,0.656,-0.180
19.169,-0.746,0.654,-0.178
19.179,-0.746,0.654,-0.176
19.189,-0.746,0.652,-0.180
19.199,-0.748,0.652,-0.180
19.209,-0.748,0.650,-0.174
19.219,-0.744,0.646,-0.178
19.229,-0.746,0.643,-0.178
19.239,-0.744,0.648,-0.178
19.249,-0.746,0.645,-0.176
19.259,-0.746,0.645,-0.178
19.269,-0.748,0.645,-0.180
19.278,-0.748,0.646,-0.180
19.288,-0.748,0.646,-0.176
19.298,-0.750,0.646,-0.174
19.308,-0.752,0.648,-0.174
19.318,-0.752,0.648,-0.178
19.328,-0.752,0.648,-0.176
19.338,-0.754,0.646,-0.180
19.348,-0.754,0.648,-0.178
19.358,-0.752,0.648,-0.180
19.368,-0.750,0.646,-0.178
19.378,-0.748,0.646,-0.182
19.388,-0.750,0.646,-0.178
19.398,-0.748,0.641,-0.178
19.408,-0.748,0.639,-0.178
19.418,-0.748,0.643,-0.182
19.427,-0.746,0.645,-0.180
19.437,-0.750,0.643,-0.182
19.447,-0.750,0.643,-0.180
19.457,-0.748,0.645,-0.182
19.467,-0.746,0.648,-0.182
19.477,-0.748,0.648,-0.184
19.487,-0.744,0.648,-0.182
19.497,-0.744,0.648,-0.180
19.507,-0.746,0.648,-0.176
19.517,-0.742,0.645,-0.182
19.527,-0.742,0.645,-0.176
19.537,-0.742,0.645,-0.176
19.547,-0.742,0.643,-0.178
19.557,-0.744,0.645,-0.176
19.567,-0.742,0.646,-0.176
19.576,-0.740,0.648,-0.176
19.586,-0.742,0.648,-0.178
19.596,-0.742,0.648,-0.178
19.606,-0.742,0.652,-0.176
19.616,-0.746,0.650,-0.180
19.626,-0.744,0.650,-0.178
19.636,-0.744,0.652,-0.180
19.646,-0.744,0.648,-0.180
19.656,-0.746,0.643,-0.182
19.666,-0.746,0.645,-0.178
19.676,-0.746,0.641,-0.180
19.686,-0.748,0.645,-0.180
19.696,-0.746,0.645,-0.180
19.706,-0.742,0.646,-0.184
19.715,-0.742,0.646,-0.182
19.725,-0.742,0.650,-0.184
19.735,-0.744,0.652,-0.184
19.745,-0.744,0.650,-0.186
19.755,-0.742,0.648,-0.186
19.765,-0.742,0.648,-0.184
19.775,-0.744,0.645,-0.184
19.785,-0.742,0.646,-0.186
19.795,-0.746,0.645,-0.188
19.805,-0.744,0.645,-0.189
19.815,-0.748,0.645,-0.189
19.825,-0.748,0.650,-0.191
19.835,-0.748,0.645,-0.191
19.845,-0.746,0.643,-0.191
19.855,-0.746,0.643,-0.191
19.864,-0.748,0.645,-0.195
19.874,-0.750,0.637,-0.191
19.884,-0.750,0.643,-0.191
19.894,-0.748,0.645,-0.193
19.904,-0.750,0.646,-0.193
19.914,-0.746,0.637,-0.195
19.924,-0.744,0.635,-0.195
19.934,-0.748,0.641,-0.193
19.944,-0.744,0.639,-0.193
19.954,-0.746,0.639,-0.193
19.964,-0.750,0.648,-0.195
19.974,-0.746,0.646,-0.197
19.984,-0.744,0.646,-0.197
19.994,-0.742,0.643,-0.193
20.004,-0.742,0.643,-0.193
20.013,-0.748,0.641,-0.195
20.023,-0.748,0.641,-0.197
20.033,-0.748,0.641,-0.195
20.043,-0.744,0.641,-0.195
20.053,-0.746,0.637,-0.195
20.063,-0.748,0.641,-0.195
20.073,-0.746,0.643,-0.195
20.083,-0.742,0.641,-0.195
20.093,-0.744,0.643,-0.193
20.103,-0.744,0.645,-0.197
20.113,-0.740,0.645,-0.195
20.123,-0.746,0.645,-0.193
20.133,-0.742,0.645,-0.195
20.143,-0.742,0.646,-0.195
20.153,-0.742,0.643,-0.195
20.162,-0.744,0.637,-0.195
20.172,-0.746,0.643,-0.193
20.182,-0.744,0.643,-0.191
20.192,-0.742,0.641,-0.195
20.202,-0.742,0.643,-0.197
20.212,-0.746,0.637,-0.195
20.222,-0.746,0.635,-0.193
20.232,-0.746,0.643,-0.195
20.242,-0.744,0.648,-0.193
20.252,-0.748,0.646,-0.195
20.262,-0.746,0.646,-0.193
20.272,-0.742,0.645,-0.195
20.282,-0.740,0.639,-0.197
20.292,-0.746,0.641,-0.193
20.301,-0.746,0.637,-0.195
20.311,-0.742,0.637,-0.195
20.321,-0.746,0.637,-0.195
20.331,-0.744,0.639,-0.195
20.341,-0.748,0.643,-0.195
20.351,-0.752,0.645,-0.195
20.361,-0.750,0.641,-0.197
20.371,-0.748,0.641,-0.193
20.381,-0.748,0.641,-0.193
20.391,-0.750,0.641,-0.195
20.401,-0.750,0.637,-0.193
20.411,-0.746,0.639,-0.199
20.421,-0.748,0.639,-0.197
20.431,-0.746,0.637,-0.201
20.441,-0.748,0.639,-0.197
20.450,-0.750,0.637,-0.197
20.460,-0.752,0.637,-0.197
20.470,-0.752,0.637,-0.199
20.480,-0.754,0.633,-0.195
20.490,-0.754,0.639,-0.197
20.500,-0.752,0.637,-0.195
20.510,-0.756,0.639,-0.195
20.520,-0.752,0.637,-0.193
20.530,-0.748,0.643,-0.193
20.540,-0.746,0.637,-0.193
20.550,-0.750,0.639,-0.193
20.560,-0.744,0.639,-0.189
20.570,-0.746,0.641,-0.191
20.580,-0.746,0.639,-0.191
20.590,-0.750,0.641,-0.191
20.599,-0.746,0.641,-0.189
20.609,-0.748,0.639,-0.191
20.619,-0.752,0.639,-0.189
20.629,-0.750,0.635,-0.189
20.639,-0.748,0.637,-0.186
20.649,-0.752,0.645,-0.191
20.659,-0.748,0.641,-0.186
20.669,-0.748,0.645,-0.191
20.679,-0.750,0.643,-0.191
20.689,-0.750,0.639,-0.193
20.699,-0.746,0.629,-0.189
20.709,-0.748,0.633,-0.191
20.719,-0.750,0.637,-0.193
20.729,-0.750,0.639,-0.189
20.738,-0.746,0.643,-0.193
20.748,-0.748,0.648,-0.197
20.758,-0.754,0.648,-0.195
20.768,-0.752,0.643,-0.197
20.778,-0.756,0.639,-0.195
20.788,-0.754,0.633,-0.191
20.798,-0.754,0.633,-0.191
20.808,-0.750,0.633,-0.195
20.818,-0.752,0.637,-0.191
20.828,-0.750,0.637,-0.193
20.838,-0.748,0.637,-0.193
20.848,-0.750,0.637,-0.195
20.858,-0.748,0.637,-0.191
20.868,-0.750,0.637,-0.193
20.878,-0.748,0.637,-0.193
20.887,-0.752,0.635,-0.193
20.897,-0.750,0.637,-0.195
20.907,-0.750,0.637,-0.195
20.917,-0.748,0.639,-0.195
20.927,-0.748,0.639,-0.193
20.937,-0.748,0.639,-0.191
20.947,-0.748,0.639,-0.193
20.957,-0.750,0.635,-0.197
20.967,-0.754,0.633,-0.191
20.977,-0.756,0.625,-0.193
20.987,-0.752,0.633,-0.189
20.997,-0.754,0.641,-0.195
21.007,-0.758,0.646,-0.193
21.017,-0.758,0.645,-0.197
21.027,-0.756,0.641,-0.193
21.036,-0.752,0.639,-0.195
21.046,-0.752,0.639,-0.193
21.056,-0.750,0.635,-0.195
21.066,-0.750,0.637,-0.193
21.076,-0.750,0.639,-0.191
21.086,-0.750,0.635,-0.197
21.096,-0.750,0.635,-0.195
21.106,-0.750,0.635,-0.193
21.116,-0.750,0.635,-0.195
21.126,-0.750,0.637,-0.195
21.136,-0.748,0.635,-0.193
21.146,-0.748,0.639,-0.191
21.156,-0.748,0.637,-0.191
21.166,-0.750,0.635,-0.195
21.176,-0.750,0.637,-0.191
21.185,-0.750,0.635,-0.195
21.195,-0.750,0.635,-0.193
21.205,-0.754,0.639,-0.193
21.215,-0.752,0.637,-0.195
21.225,-0.752,0.635,-0.191
21.235,-0.754,0.635,-0.193
21.245,-0.752,0.637,-0.193
21.255,-0.754,0.641,-0.195
21.265,-0.754,0.641,-0.191
21.275,-0.754,0.639,-0.195
21.285,-0.752,0.641,-0.191
21.295,-0.750,0.641,-0.193
21.305,-0.750,0.637,-0.189
21.315,-0.750,0.637,-0.195
21.324,-0.748,0.639,-0.195
21.334,-0.752,0.639,-0.195
21.344,-0.750,0.637,-0.193
21.354,-0.752,0.641,-0.191
21.364,-0.752,0.639,-0.195
21.374,-0.756,0.631,-0.189
21.384,-0.752,0.627,-0.191
21.394,-0.748,0.633,-0.191
21.404,-0.750,0.643,-0.191
21.414,-0.750,0.641,-0.195
21.424,-0.750,0.643,-0.191
21.434,-0.752,0.650,-0.193
21.444,-0.750,0.645,-0.195
21.454,-0.752,0.639,-0.193
21.464,-0.750,0.633,-0.193
21.473,-0.748,0.631,-0.195
21.483,-0.752,0.627,-0.195
21.493,-0.752,0.631,-0.193
21.503,-0.754,0.633,-0.195
21.513,-0.754,0.635,-0.197
21.523,-0.756,0.633,-0.193
21.533,-0.758,0.635,-0.193
21.543,-0.754,0.635,-0.193
21.553,-0.756,0.641,-0.195
21.563,-0.754,0.639,-0.195
21.573,-0.752,0.639,-0.193
21.583,-0.746,0.633,-0.193
21.593,-0.742,0.637,-0.191
21.603,-0.744,0.639,-0.193
21.613,-0.746,0.641,-0.195
21.622,-0.752,0.637,-0.191
21.632,-0.752,0.643,-0.197
21.642,-0.750,0.637,-0.199
21.652,-0.754,0.631,-0.195
21.662,-0.756,0.625,-0.191
21.672,-0.756,0.633,-0.195
21.682,-0.756,0.646,-0.197
21.692,-0.760,0.643,-0.193
21.702,-0.758,0.639,-0.197
21.712,-0.752,0.641,-0.197
21.722,-0.752,0.639,-0.197
21.732,-0.750,0.631,-0.195
21.742,-0.748,0.633,-0.195
21.752,-0.746,0.637,-0.195
21.762,-0.746,0.633,-0.193
21.771,-0.744,0.633,-0.195
21.781,-0.742,0.637,-0.195
21.791,-0.746,0.641,-0.197
21.801,-0.750,0.641,-0.197
21.811,-0.750,0.639,-0.195
21.821,-0.752,0.637,-0.199
21.831,-0.754,0.635,-0.195
21.841,-0.754,0.635,-0.195
21.851,-0.752,0.633,-0.195
21.861,-0.754,0.637,-0.201
21.871,-0.748,0.637,-0.193
21.881,-0.750,0.639,-0.197
21.891,-0.750,0.641,-0.195
21.901,-0.746,0.637,-0.197
21.910,-0.744,0.641,-0.197
21.920,-0.744,0.637,-0.193
21.930,-0.744,0.637,-0.195
21.940,-0.740,0.635,-0.199
21.950,-0.746,0.637,-0.197
21.960,-0.748,0.631,-0.195
21.970,-0.752,0.635,-0.195
21.980,-0.752,0.635,-0.199
21.990,-0.754,0.637,-0.199
22.000,-0.754,0.635,-0.195
22.010,-0.748,0.635,-0.197
22.020,-0.752,0.637,-0.195
22.030,-0.758,0.633,-0.193
22.040,-0.750,0.637,-0.197
22.050,-0.746,0.639,-0.197
22.059,-0.750,0.635,-0.195
22.069,-0.750,0.635,-0.199
22.079,-0.750,0.645,-0.195
22.089,-0.754,0.645,-0.197
22.099,-0.754,0.637,-0.197
22.109,-0.756,0.635,-0.193
22.119,-0.754,0.629,-0.191
22.129,-0.756,0.631,-0.193
22.139,-0.752,0.635,-0.193
22.149,-0.754,0.629,-0.193
22.159,-0.750,0.637,-0.197
22.169,-0.752,0.635,-0.195
22.179,-0.750,0.639,-0.197
22.189,-0.752,0.639,-0.193
22.199,-0.754,0.641,-0.195
22.208,-0.750,0.637,-0.195
22.218,-0.746,0.635,-0.195
22.228,-0.746,0.635,-0.195
22.238,-0.746,0.631,-0.193
22.248,-0.752,0.629,-0.193
22.258,-0.750,0.635,-0.191
22.268,-0.748,0.637,-0.193
22.278,-0.752,0.646,-0.193
22.288,-0.754,0.637,-0.193
22.298,-0.752,0.635,-0.191
22.308,-0.748,0.639,-0.193
22.318,-0.752,0.645,-0.197
22.328,-0.754,0.643,-0.199
22.338,-0.754,0.637,-0.195
22.347,-0.752,0.629,-0.193
22.357,-0.750,0.633,-0.195
22.367,-0.752,0.635,-0.195
22.377,-0.756,0.633,-0.195
22.387,-0.754,0.631,-0.193
22.397,-0.752,0.637,-0.195
22.407,-0.756,0.637,-0.193
22.417,-0.756,0.641,-0.193
22.427,-0.750,0.641,-0.193
22.437,-0.748,0.643,-0.195
22.447,-0.750,0.643,-0.193
22.457,-0.746,0.639,-0.193
22.467,-0.750,0.635,-0.193
22.477,-0.742,0.635,-0.193
22.487,-0.746,0.635,-0.195
22.496,-0.744,0.637,-0.199
22.506,-0.754,0.629,-0.197
22.516,-0.758,0.629,-0.197
22.526,-0.760,0.631,-0.193
22.536,-0.760,0.635,-0.195
22.546,-0.758,0.635,-0.195
22.556,-0.756,0.641,-0.199
22.566,-0.758,0.635,-0.199
22.576,-0.754,0.629,-0.197
22.586,-0.756,0.633,-0.193
22.596,-0.760,0.635,-0.193
22.606,-0.754,0.633,-0.193
22.616,-0.752,0.631,-0.191
22.626,-0.756,0.629,-0.189
22.636,-0.754,0.621,-0.188
22.645,-0.764,0.627,-0.188
22.655,-0.756,0.635,-0.191
22.665,-0.752,0.641,-0.191
22.675,-0.756,0.641,-0.189
22.685,-0.758,0.635,-0.189
22.695,-0.754,0.645,-0.193
22.705,-0.758,0.641,-0.195
22.715,-0.760,0.631,-0.191
22.725,-0.764,0.629,-0.191
22.735,-0.758,0.625,-0.193
22.745,-0.756,0.633,-0.191
22.755,-0.758,0.631,-0.195
22.765,-0.760,0.631,-0.193
22.775,-0.760,0.629,-0.193
22.785,-0.758,0.631,-0.195
22.794,-0.756,0.631,-0.193
22.804,-0.758,0.633,-0.191
22.814,-0.758,0.637,-0.191
22.824,-0.758,0.639,-0.189
22.834,-0.754,0.635,-0.191
22.844,-0.756,0.635,-0.193
22.854,-0.756,0.633,-0.189
22.864,-0.756,0.627,-0.193
22.874,-0.754,0.627,-0.191
22.884,-0.754,0.631,-0.191
22.894,-0.758,0.627,-0.193
22.904,-0.760,0.619,-0.191
22.914,-0.758,0.627,-0.195
22.924,-0.762,0.641,-0.195
22.933,-0.764,0.643,-0.199
22.943,-0.762,0.629,-0.197
22.953,-0.760,0.629,-0.197
22.963,-0.758,0.633,-0.197
22.973,-0.758,0.631,-0.199
22.983,-0.756,0.633,-0.197
22.993,-0.754,0.631,-0.199
23.003,-0.754,0.627,-0.199
23.013,-0.756,0.625,-0.195
23.023,-0.758,0.625,-0.191
23.033,-0.762,0.627,-0.195
23.043,-0.760,0.631,-0.193
23.053,-0.762,0.629,-0.193
23.063,-0.764,0.635,-0.197
23.073,-0.764,0.633,-0.189
23.082,-0.760,0.635,-0.191
23.092,-0.758,0.635,-0.191
23.102,-0.756,0.637,-0.191
23.112,-0.750,0.637,-0.189
23.122,-0.752,0.637,-0.191
23.132,-0.752,0.635,-0.191
23.142,-0.756,0.639,-0.189
23.152,-0.756,0.633,-0.193
23.162,-0.756,0.631,-0.193
23.172,-0.754,0.627,-0.195
23.182,-0.756,0.631,-0.195
23.192,-0.754,0.629,-0.199
23.202,-0.750,0.631,-0.199
23.212,-0.760,0.633,-0.197
23.222,-0.754,0.633,-0.195
23.231,-0.754,0.631,-0.193
23.241,-0.754,0.631,-0.197
23.251,-0.754,0.625,-0.193
23.261,-0.754,0.629,-0.193
23.271,-0.752,0.631,-0.191
23.281,-0.754,0.635,-0.191
23.291,-0.758,0.643,-0.193
23.301,-0.756,0.646,-0.195
23.311,-0.752,0.648,-0.193
23.321,-0.754,0.643,-0.189
23.331,-0.756,0.637,-0.195
23.341,-0.754,0.633,-0.191
23.351,-0.750,0.635,-0.193
23.361,-0.754,0.633,-0.193
23.370,-0.752,0.631,-0.195
23.380,-0.750,0.629,-0.195
23.390,-0.754,0.631,-0.191
23.400,-0.754,0.635,-0.197
23.410,-0.752,0.635,-0.197
23.420,-0.750,0.641,-0.195
23.430,-0.754,0.635,-0.191
23.440,-0.752,0.639,-0.195
23.450,-0.754,0.635,-0.193
23.460,-0.754,0.635,-0.193
23.470,-0.756,0.633,-0.191
23.480,-0.754,0.631,-0.193
23.490,-0.748,0.635,-0.195
23.500,-0.754,0.637,-0.195
23.510,-0.752,0.635,-0.199
23.519,-0.752,0.637,-0.195
23.529,-0.754,0.629,-0.195
23.539,-0.756,0.627,-0.193
23.549,-0.752,0.631,-0.191
23.559,-0.752,0.641,-0.195
23.569,-0.754,0.639,-0.193
23.579,-0.756,0.635,-0.193
23.589,-0.750,0.635,-0.195
23.599,-0.750,0.633,-0.195
23.609,-0.754,0.635,-0.195
23.619,-0.752,0.633,-0.195
23.629,-0.750,0.635,-0.193
23.639,-0.752,0.637,-0.193
23.649,-0.752,0.639,-0.191
23.659,-0.750,0.635,-0.195
23.668,-0.750,0.633,-0.193
23.678,-0.750,0.637,-0.191
23.688,-0.752,0.633,-0.193
23.698,-0.750,0.629,-0.193
23.708,-0.758,0.631,-0.193
23.718,-0.756,0.637,-0.193
23.728,-0.758,0.639,-0.195
23.738,-0.762,0.639,-0.197
23.748,-0.756,0.639,-0.195
23.758,-0.754,0.641,-0.195
23.768,-0.754,0.635,-0.199
23.778,-0.750,0.635,-0.189
23.788,-0.748,0.637,-0.195
23.798,-0.750,0.637,-0.193
23.808,-0.748,0.637,-0.189
23.817,-0.746,0.637,-0.193
23.827,-0.750,0.635,-0.197
23.837,-0.752,0.639,-0.193
23.847,-0.754,0.633,-0.193
23.857,-0.752,0.629,-0.195
23.867,-0.752,0.631,-0.193
23.877,-0.756,0.635,-0.197
23.887,-0.756,0.641,-0.195
23.897,-0.754,0.639,-0.195
23.907,-0.758,0.641,-0.195
23.917,-0.756,0.637,-0.191
23.927,-0.756,0.631,-0.191
23.937,-0.752,0.629,-0.188
23.947,-0.750,0.637,-0.189
23.956,-0.754,0.643,-0.189
23.966,-0.754,0.646,-0.195
23.976,-0.752,0.643,-0.195
23.986,-0.754,0.639,-0.191
23.996,-0.750,0.637,-0.193
24.006,-0.750,0.637,-0.189
24.016,-0.752,0.635,-0.193
24.026,-0.752,0.635,-0.195
24.036,-0.754,0.637,-0.193
24.046,-0.756,0.633,-0.191
24.056,-0.752,0.633,-0.193
24.066,-0.750,0.633,-0.193
24.076,-0.746,0.639,-0.191
24.086,-0.748,0.639,-0.193
24.096,-0.750,0.635,-0.189
24.105,-0.748,0.633,-0.188
24.115,-0.746,0.637,-0.189
24.125,-0.752,0.643,-0.191
24.135,-0.752,0.641,-0.193
24.145,-0.754,0.641,-0.189
24.155,-0.752,0.639,-0.191
24.165,-0.750,0.639,-0.193
24.175,-0.754,0.635,-0.189
24.185,-0.752,0.635,-0.193
24.195,-0.756,0.635,-0.193
24.205,-0.754,0.637,-0.197
24.215,-0.756,0.633,-0.195
24.225,-0.758,0.633,-0.189
24.235,-0.752,0.641,-0.189
24.245,-0.748,0.646,-0.193
24.254,-0.748,0.645,-0.193
24.264,-0.748,0.639,-0.191
24.274,-0.744,0.639,-0.191
24.284,-0.744,0.639,-0.191
24.294,-0.746,0.641,-0.195
24.304,-0.742,0.637,-0.197
24.314,-0.744,0.635,-0.191
24.324,-0.746,0.633,-0.189
24.334,-0.748,0.637,-0.191
24.344,-0.750,0.641,-0.195
24.354,-0.750,0.641,-0.195
24.364,-0.756,0.639,-0.193
24.374,-0.756,0.639,-0.193
24.384,-0.750,0.639,-0.195
24.393,-0.748,0.639,-0.195
24.403,-0.748,0.637,-0.195
24.413,-0.746,0.637,-0.191
24.423,-0.748,0.637,-0.193
24.433,-0.748,0.641,-0.195
24.443,-0.750,0.639,-0.195
24.453,-0.752,0.633,-0.193
24.463,-0.752,0.633,-0.195
24.473,-0.752,0.635,-0.193
24.483,-0.754,0.637,-0.189
24.493,-0.754,0.637,-0.193
24.503,-0.752,0.641,-0.193
24.513,-0.750,0.643,-0.191
24.523,-0.750,0.639,-0.195
24.533,-0.752,0.639,-0.197
24.542,-0.752,0.641,-0.191
24.552,-0.750,0.635,-0.189
24.562,-0.752,0.635,-0.191
24.572,-0.748,0.635,-0.193
24.582,-0.748,0.635,-0.195
24.592,-0.752,0.635,-0.191
24.602,-0.750,0.641,-0.195
24.612,-0.752,0.645,-0.193
24.622,-0.758,0.641,-0.195
24.632,-0.756,0.635,-0.191
24.642,-0.748,0.637,-0.195
24.652,-0.752,0.639,-0.195
24.662,-0.750,0.633,-0.189
24.672,-0.750,0.637,-0.189
24.682,-0.746,0.646,-0.193
24.691,-0.748,0.650,-0.193
24.701,-0.752,0.646,-0.193
24.711,-0.748,0.643,-0.189
24.721,-0.750,0.637,-0.191
24.731,-0.752,0.633,-0.193
24.741,-0.754,0.635,-0.193
24.751,-0.752,0.635,-0.193
24.761,-0.752,0.635,-0.195
24.771,-0.756,0.639,-0.195
24.781,-0.754,0.635,-0.193
24.791,-0.752,0.639,-0.193
24.801,-0.752,0.639,-0.197
24.811,-0.750,0.639,-0.191
24.821,-0.750,0.635,-0.193
24.831,-0.748,0.637,-0.193
24.840,-0.746,0.637,-0.191
24.850,-0.748,0.637,-0.195
24.860,-0.744,0.641,-0.193
24.870,-0.750,0.637,-0.191
24.880,-0.750,0.637,-0.191
24.890,-0.754,0.639,-0.191
24.900,-0.754,0.635,-0.191
24.910,-0.754,0.639,-0.193
24.920,-0.752,0.639,-0.193
24.930,-0.752,0.633,-0.193
24.940,-0.752,0.631,-0.193
24.950,-0.754,0.635,-0.195
24.960,-0.750,0.639,-0.193
24.970,-0.750,0.643,-0.195
24.979,-0.750,0.645,-0.189
24.989,-0.752,0.645,-0.193
24.999,-0.746,0.645,-0.193
25.009,-0.748,0.641,-0.195
25.019,-0.748,0.639,-0.195
25.029,-0.746,0.637,-0.191
25.039,-0.746,0.631,-0.191
25.049,-0.752,0.635,-0.193
25.059,-0.750,0.635,-0.193
25.069,-0.748,0.641,-0.191
25.079,-0.754,0.637,-0.191
25.089,-0.752,0.637,-0.191
25.099,-0.752,0.641,-0.191
25.109,-0.752,0.639,-0.193
25.119,-0.752,0.637,-0.191
25.128,-0.750,0.639,-0.191
25.138,-0.748,0.639,-0.191
25.148,-0.752,0.637,-0.195
25.158,-0.748,0.637,-0.195
25.168,-0.750,0.633,-0.195
25.178,-0.752,0.639,-0.195
25.188,-0.752,0.641,-0.195
25.198,-0.754,0.635,-0.193
25.208,-0.752,0.637,-0.191
25.218,-0.754,0.639,-0.191
25.228,-0.754,0.637,-0.189
25.238,-0.752,0.639,-0.189
25.248,-0.754,0.641,-0.191
25.258,-0.752,0.639,-0.191
25.268,-0.752,0.641,-0.189
25.277,-0.752,0.639,-0.189
25.287,-0.750,0.639,-0.191
25.297,-0.750,0.639,-0.189
25.307,-0.750,0.639,-0.188
25.317,-0.750,0.637,-0.188
25.327,-0.750,0.633,-0.191
25.337,-0.754,0.637,-0.189
25.347,-0.752,0.641,-0.189
25.357,-0.746,0.639,-0.188
25.367,-0.752,0.639,-0.188
25.377,-0.754,0.637,-0.188
25.387,-0.752,0.641,-0.189
25.397,-0.746,0.641,-0.188
25.407,-0.750,0.639,-0.189
25.416,-0.748,0.641,-0.191
25.426,-0.750,0.639,-0.191
25.436,-0.748,0.641,-0.189
25.446,-0.750,0.639,-0.188
25.456,-0.750,0.639,-0.191
25.466,-0.752,0.637,-0.189
25.476,-0.752,0.635,-0.189
25.486,-0.754,0.641,-0.195
25.496,-0.756,0.635,-0.193
25.506,-0.758,0.633,-0.189
25.516,-0.752,0.631,-0.195
25.526,-0.750,0.633,-0.193
25.536,-0.752,0.635,-0.188
25.546,-0.750,0.641,-0.191
25.556,-0.750,0.648,-0.189
25.565,-0.750,0.648,-0.191
25.575,-0.750,0.645,-0.193
25.585,-0.752,0.639,-0.191
25.595,-0.750,0.633,-0.193
25.605,-0.752,0.635,-0.195
25.615,-0.752,0.633,-0.193
25.625,-0.754,0.637,-0.191
25.635,-0.752,0.633,-0.193
25.645,-0.750,0.635,-0.197
25.655,-0.756,0.637,-0.191
25.665,-0.758,0.635,-0.191
25.675,-0.758,0.635,-0.195
25.685,-0.760,0.633,-0.193
25.695,-0.758,0.633,-0.197
25.705,-0.758,0.631,-0.195
25.714,-0.754,0.635,-0.195
25.724,-0.752,0.635,-0.189
25.734,-0.748,0.633,-0.193
25.744,-0.748,0.639,-0.189
25.754,-0.744,0.641,-0.193
25.764,-0.746,0.639,-0.193
25.774,-0.746,0.643,-0.193
25.784,-0.750,0.641,-0.193
25.794,-0.748,0.637,-0.193
25.804,-0.750,0.633,-0.195
25.814,-0.752,0.633,-0.191
25.824,-0.754,0.633,-0.191
25.834,-0.754,0.639,-0.193
25.844,-0.752,0.645,-0.195
25.854,-0.758,0.643,-0.197
25.863,-0.750,0.639,-0.191
25.873,-0.748,0.635,-0.195
25.883,-0.746,0.637,-0.195
25.893,-0.748,0.637,-0.191
25.903,-0.746,0.637,-0.193
25.913,-0.744,0.635,-0.193
25.923,-0.744,0.637,-0.191
25.933,-0.744,0.639,-0.193
25.943,-0.748,0.635,-0.193
25.953,-0.752,0.641,-0.195
25.963,-0.754,0.637,-0.199
25.973,-0.754,0.637,-0.191
25.983,-0.754,0.635,-0.193
25.993,-0.754,0.633,-0.195
26.002,-0.754,0.637,-0.197
26.012,-0.754,0.635,-0.197
26.022,-0.754,0.639,-0.195
26.032,-0.754,0.635,-0.193
26.042,-0.756,0.637,-0.193
26.052,-0.754,0.637,-0.197
26.062,-0.752,0.637,-0.197
26.072,-0.752,0.637,-0.195
26.082,-0.752,0.635,-0.195
26.092,-0.752,0.637,-0.193
26.102,-0.754,0.637,-0.195
26.112,-0.758,0.631,-0.195
26.122,-0.756,0.633,-0.195
26.132,-0.756,0.635,-0.191
26.142,-0.758,0.633,-0.195
26.151,-0.758,0.639,-0.195
26.161,-0.760,0.639,-0.191
26.171,-0.756,0.639,-0.193
26.181,-0.756,0.639,-0.189
26.191,-0.752,0.637,-0.195
26.201,-0.750,0.639,-0.193
26.211,-0.750,0.635,-0.191
26.221,-0.746,0.635,-0.195
26.231,-0.744,0.639,-0.191
26.241,-0.746,0.635,-0.191
26.251,-0.748,0.635,-0.191
26.261,-0.752,0.639,-0.191
26.271,-0.752,0.637,-0.191
26.281,-0.756,0.641,-0.189
26.291,-0.754,0.641,-0.193
26.300,-0.756,0.635,-0.191
26.310,-0.752,0.635,-0.193
26.320,-0.750,0.635,-0.193
26.330,-0.752,0.635,-0.195
26.340,-0.752,0.635,-0.191
26.350,-0.754,0.637,-0.189
26.360,-0.752,0.635,-0.188
26.370,-0.752,0.637,-0.191
26.380,-0.752,0.637,-0.188
26.390,-0.752,0.637,-0.193
26.400,-0.752,0.639,-0.193
26.410,-0.750,0.641,-0.193
26.420,-0.752,0.639,-0.195
26.430,-0.754,0.635,-0.197
26.439,-0.754,0.631,-0.197
26.449,-0.752,0.631,-0.193
26.459,-0.752,0.631,-0.193
26.469,-0.760,0.631,-0.193
26.479,-0.756,0.639,-0.195
26.489,-0.754,0.645,-0.197
26.499,-0.756,0.641,-0.199
26.509,-0.754,0.641,-0.195
26.519,-0.754,0.635,-0.191
26.529,-0.754,0.635,-0.197
26.539,-0.756,0.631,-0.197
26.549,-0.752,0.635,-0.195
26.559,-0.754,0.633,-0.199
26.569,-0.752,0.631,-0.197
26.579,-0.752,0.631,-0.195
26.588,-0.754,0.631,-0.195
26.598,-0.752,0.635,-0.195
26.608,-0.754,0.637,-0.193
26.618,-0.752,0.637,-0.195
26.628,-0.752,0.637,-0.193
26.638,-0.754,0.635,-0.195
26.648,-0.748,0.635,-0.195
26.658,-0.750,0.637,-0.197
26.668,-0.752,0.637,-0.197
26.678,-0.752,0.633,-0.193
26.688,-0.750,0.633,-0.195
26.698,-0.752,0.635,-0.197
26.708,-0.756,0.635,-0.195
26.718,-0.756,0.635,-0.193
26.728,-0.756,0.635,-0.195
26.737,-0.758,0.631,-0.189
26.747,-0.760,0.631,-0.189
26.757,-0.754,0.639,-0.193
26.767,-0.754,0.641,-0.195
26.777,-0.750,0.643,-0.195
26.787,-0.746,0.641,-0.191
26.797,-0.744,0.639,-0.195
26.807,-0.744,0.635,-0.193
26.817,-0.746,0.637,-0.197
26.827,-0.744,0.633,-0.197
26.837,-0.744,0.635,-0.195
26.847,-0.750,0.633,-0.195
26.857,-0.752,0.633,-0.195
26.867,-0.756,0.635,-0.195
26.877,-0.758,0.637,-0.197
26.886,-0.762,0.635,-0.197
26.896,-0.764,0.633,-0.195
26.906,-0.760,0.633,-0.195
26.916,-0.758,0.635,-0.195
26.926,-0.752,0.637,-0.193
26.936,-0.750,0.637,-0.195
26.946,-0.750,0.635,-0.195
26.956,-0.746,0.633,-0.195
26.966,-0.746,0.635,-0.195
26.976,-0.746,0.635,-0.193
26.986,-0.748,0.635,-0.195
26.996,-0.752,0.635,-0.195
27.006,-0.754,0.635,-0.195
27.016,-0.756,0.635,-0.193
27.025,-0.760,0.635,-0.195
27.035,-0.758,0.637,-0.197
27.045,-0.760,0.635,-0.193
27.055,-0.754,0.637,-0.195
27.065,-0.752,0.635,-0.195
27.075,-0.754,0.637,-0.195
27.085,-0.750,0.633,-0.195
27.095,-0.750,0.633,-0.193
27.105,-0.750,0.633,-0.195
27.115,-0.750,0.637,-0.195
27.125,-0.752,0.633,-0.195
27.135,-0.750,0.635,-0.193
27.145,-0.752,0.639,-0.189
27.155,-0.752,0.637,-0.193
27.165,-0.750,0.641,-0.193
27.174,-0.750,0.637,-0.193
27.184,-0.750,0.639,-0.191
27.194,-0.752,0.639,-0.193
27.204,-0.754,0.635,-0.191
27.214,-0.748,0.635,-0.191
27.224,-0.754,0.635,-0.195
27.234,-0.752,0.635,-0.193
27.244,-0.756,0.635,-0.197
27.254,-0.754,0.635,-0.193
27.264,-0.752,0.637,-0.191
27.274,-0.756,0.637,-0.193
27.284,-0.750,0.635,-0.191
27.294,-0.754,0.635,-0.195
27.304,-0.752,0.637,-0.191
27.314,-0.752,0.635,-0.193
27.323,-0.754,0.633,-0.197
27.333,-0.754,0.635,-0.195
27.343,-0.756,0.635,-0.193
27.353,-0.756,0.637,-0.197
27.363,-0.758,0.635,-0.199
27.373,-0.756,0.629,-0.195
27.383,-0.754,0.633,-0.193
27.393,-0.750,0.631,-0.195
27.403,-0.752,0.633,-0.193
27.413,-0.754,0.635,-0.191
27.423,-0.754,0.645,-0.197
27.433,-0.756,0.645,-0.197
27.443,-0.754,0.645,-0.197
27.453,-0.752,0.637,-0.197
27.462,-0.754,0.629,-0.193
27.472,-0.754,0.631,-0.193
27.482,-0.754,0.635,-0.197
27.492,-0.752,0.635,-0.197
27.502,-0.752,0.633,-0.195
27.512,-0.752,0.635,-0.195
27.522,-0.752,0.637,-0.195
27.532,-0.752,0.635,-0.193
27.542,-0.752,0.635,-0.197
27.552,-0.754,0.635,-0.195
27.562,-0.752,0.635,-0.197
27.572,-0.748,0.633,-0.191
27.582,-0.744,0.635,-0.193
27.592,-0.746,0.635,-0.191
27.602,-0.748,0.635,-0.195
27.611,-0.750,0.637,-0.195
27.621,-0.748,0.639,-0.195
27.631,-0.750,0.639,-0.193
27.641,-0.752,0.639,-0.195
27.651,-0.752,0.637,-0.195
27.661,-0.754,0.637,-0.195
27.671,-0.754,0.633,-0.191
27.681,-0.754,0.637,-0.193
27.691,-0.750,0.641,-0.197
27.701,-0.752,0.645,-0.195
27.711,-0.750,0.643,-0.195
27.721,-0.750,0.641,-0.197
27.731,-0.750,0.637,-0.195
27.741,-0.752,0.637,-0.193
27.751,-0.748,0.633,-0.191
27.760,-0.746,0.635,-0.197
27.770,-0.750,0.637,-0.195
27.780,-0.748,0.637,-0.193
27.790,-0.748,0.637,-0.195
27.800,-0.752,0.639,-0.193
27.810,-0.752,0.637,-0.193
27.820,-0.752,0.639,-0.195
27.830,-0.756,0.639,-0.191
27.840,-0.756,0.637,-0.195
27.850,-0.756,0.631,-0.195
27.860,-0.754,0.637,-0.195
27.870,-0.752,0.635,-0.195
27.880,-0.752,0.637,-0.193
27.890,-0.756,0.641,-0.195
27.900,-0.752,0.639,-0.193
27.909,-0.750,0.637,-0.195
27.919,-0.748,0.637,-0.197
27.929,-0.750,0.635,-0.195
27.939,-0.750,0.637,-0.193
27.949,-0.750,0.637,-0.195
27.959,-0.752,0.633,-0.195
27.969,-0.752,0.635,-0.195
27.979,-0.756,0.639,-0.193
27.989,-0.754,0.637,-0.191
27.999,-0.752,0.639,-0.193
28.009,-0.752,0.637,-0.191
28.019,-0.752,0.639,-0.191
28.029,-0.754,0.635,-0.191
28.039,-0.750,0.635,-0.191
28.048,-0.750,0.635,-0.193
28.058,-0.752,0.641,-0.193
28.068,-0.750,0.639,-0.189
28.078,-0.750,0.639,-0.191
28.088,-0.748,0.641,-0.191
28.098,-0.754,0.637,-0.191
28.108,-0.754,0.635,-0.189
28.118,-0.752,0.637,-0.193
28.128,-0.754,0.635,-0.189
28.138,-0.752,0.635,-0.191
28.148,-0.754,0.637,-0.191
28.158,-0.754,0.637,-0.191
28.168,-0.752,0.639,-0.193
28.178,-0.754,0.643,-0.191
28.188,-0.750,0.639,-0.193
28.197,-0.748,0.637,-0.191
28.207,-0.750,0.637,-0.188
28.217,-0.748,0.635,-0.191
28.227,-0.748,0.637,-0.195
28.237,-0.750,0.635,-0.191
28.247,-0.752,0.633,-0.195
28.257,-0.754,0.635,-0.191
28.267,-0.756,0.635,-0.191
28.277,-0.758,0.637,-0.191
28.287,-0.758,0.639,-0.193
28.297,-0.756,0.635,-0.195
28.307,-0.756,0.639,-0.193
28.317,-0.756,0.629,-0.191
28.327,-0.752,0.631,-0.191
28.337,-0.748,0.635,-0.191
28.346,-0.750,0.631,-0.189
28.356,-0.750,0.639,-0.189
28.366,-0.750,0.641,-0.195
28.376,-0.750,0.645,-0.195
28.386,-0.752,0.639,-0.195
28.396,-0.754,0.635,-0.195
28.406,-0.760,0.631,-0.193
28.416,-0.758,0.629,-0.195
28.426,-0.760,0.631,-0.195
28.436,-0.758,0.633,-0.195
28.446,-0.756,0.635,-0.193
28.456,-0.754,0.635,-0.191
28.466,-0.750,0.637,-0.191
28.476,-0.752,0.637,-0.191
28.485,-0.752,0.637,-0.191
28.495,-0.750,0.635,-0.191
28.505,-0.750,0.633,-0.193
28.515,-0.750,0.635,-0.189
28.525,-0.748,0.637,-0.191
28.535,-0.752,0.637,-0.191
28.545,-0.752,0.635,-0.189
28.555,-0.752,0.637,-0.193
28.565,-0.752,0.639,-0.189
28.575,-0.754,0.639,-0.189
28.585,-0.756,0.641,-0.193
28.595,-0.756,0.637,-0.195
28.605,-0.758,0.637,-0.189
28.615,-0.758,0.631,-0.188
28.625,-0.756,0.635,-0.188
28.634,-0.752,0.639,-0.195
28.644,-0.754,0.643,-0.193
28.654,-0.750,0.639,-0.191
28.664,-0.744,0.639,-0.195
28.674,-0.750,0.637,-0.195
28.684,-0.750,0.633,-0.193
28.694,-0.746,0.633,-0.191
28.704,-0.748,0.633,-0.191
28.714,-0.748,0.633,-0.189
28.724,-0.748,0.639,-0.195
28.734,-0.754,0.639,-0.195
28.744,-0.756,0.635,-0.191
28.754,-0.756,0.637,-0.195
28.764,-0.754,0.637,-0.195
28.774,-0.756,0.635,-0.193
28.783,-0.756,0.635,-0.189
28.793,-0.754,0.635,-0.193
28.803,-0.752,0.635,-0.193
28.813,-0.754,0.633,-0.195
28.823,-0.752,0.633,-0.197
28.833,-0.754,0.639,-0.195
28.843,-0.750,0.633,-0.193
28.853,-0.756,0.635,-0.195
28.863,-0.754,0.637,-0.193
28.873,-0.750,0.635,-0.191
28.883,-0.756,0.635,-0.191
28.893,-0.754,0.637,-0.193
28.903,-0.754,0.637,-0.191
28.913,-0.754,0.633,-0.191
28.923,-0.756,0.635,-0.193
28.932,-0.756,0.637,-0.193
28.942,-0.758,0.635,-0.193
28.952,-0.754,0.633,-0.195
28.962,-0.756,0.633,-0.191
28.972,-0.756,0.635,-0.191
28.982,-0.756,0.637,-0.193
28.992,-0.754,0.635,-0.189
29.002,-0.756,0.637,-0.193
29.012,-0.754,0.637,-0.191
29.022,-0.752,0.639,-0.188
29.032,-0.752,0.637,-0.195
29.042,-0.754,0.637,-0.191
29.052,-0.754,0.633,-0.189
29.062,-0.754,0.637,-0.191
29.071,-0.756,0.635,-0.191
29.081,-0.756,0.637,-0.191
29.091,-0.756,0.633,-0.193
29.101,-0.756,0.633,-0.191
29.111,-0.760,0.635,-0.189
29.121,-0.758,0.635,-0.193
29.131,-0.756,0.633,-0.193
29.141,-0.756,0.635,-0.193
29.151,-0.754,0.633,-0.193
29.161,-0.756,0.635,-0.191
29.171,-0.754,0.637,-0.189
29.181,-0.752,0.635,-0.193
29.191,-0.750,0.635,-0.193
29.201,-0.754,0.635,-0.193
29.211,-0.754,0.633,-0.191
29.220,-0.756,0.637,-0.191
29.230,-0.756,0.637,-0.191
29.240,-0.756,0.635,-0.195
29.250,-0.756,0.637,-0.197
29.260,-0.760,0.631,-0.189
29.270,-0.756,0.629,-0.191
29.280,-0.752,0.631,-0.193
29.290,-0.752,0.633,-0.191
29.300,-0.752,0.633,-0.189
29.310,-0.750,0.641,-0.191
29.320,-0.754,0.645,-0.191
29.330,-0.754,0.643,-0.193
29.340,-0.754,0.639,-0.197
29.350,-0.754,0.633,-0.191
29.360,-0.756,0.629,-0.191
29.369,-0.758,0.631,-0.195
29.379,-0.760,0.633,-0.195
29.389,-0.756,0.633,-0.191
29.399,-0.758,0.637,-0.197
29.409,-0.756,0.637,-0.195
29.419,-0.754,0.637,-0.191
29.429,-0.756,0.635,-0.193
29.439,-0.752,0.635,-0.193
29.449,-0.754,0.633,-0.191
29.459,-0.752,0.633,-0.191
29.469,-0.752,0.633,-0.193
29.479,-0.748,0.637,-0.193
29.489,-0.748,0.635,-0.193
29.499,-0.754,0.633,-0.193
29.509,-0.754,0.633,-0.195
29.518,-0.756,0.637,-0.191
29.528,-0.758,0.635,-0.189
29.538,-0.760,0.639,-0.195
29.548,-0.758,0.631,-0.193
29.558,-0.766,0.629,-0.193
29.568,-0.760,0.631,-0.191
29.578,-0.756,0.639,-0.191
29.588,-0.756,0.641,-0.191
29.598,-0.754,0.641,-0.188
29.608,-0.748,0.637,-0.191
29.618,-0.748,0.635,-0.193
29.628,-0.746,0.633,-0.191
29.638,-0.746,0.633,-0.189
29.648,-0.750,0.635,-0.195
29.657,-0.750,0.633,-0.191
29.667,-0.752,0.635,-0.191
29.677,-0.756,0.637,-0.195
29.687,-0.758,0.637,-0.191
29.697,-0.762,0.635,-0.193
29.707,-0.760,0.633,-0.193
29.717,-0.760,0.635,-0.191
29.727,-0.760,0.631,-0.193
29.737,-0.754,0.631,-0.193
29.747,-0.754,0.627,-0.195
29.757,-0.754,0.631,-0.191
29.767,-0.756,0.633,-0.188
29.777,-0.754,0.635,-0.193
29.787,-0.754,0.637,-0.197
29.797,-0.754,0.633,-0.191
29.806,-0.754,0.635,-0.193
29.816,-0.754,0.633,-0.195
29.826,-0.756,0.633,-0.193
29.836,-0.758,0.631,-0.191
29.846,-0.754,0.633,-0.193
29.856,-0.756,0.637,-0.191
29.866,-0.758,0.633,-0.197
29.876,-0.756,0.633,-0.189
29.886,-0.756,0.633,-0.191
29.896,-0.756,0.637,-0.191
29.906,-0.756,0.635,-0.195
29.916,-0.756,0.635,-0.193
29.926,-0.754,0.633,-0.193
29.936,-0.754,0.633,-0.193
29.946,-0.756,0.635,-0.188
29.955,-0.756,0.633,-0.191
29.965,-0.754,0.633,-0.188
29.975,-0.752,0.633,-0.189
29.985,-0.752,0.635,-0.189
29.995,-0.752,0.635,-0.189
30.005,-0.752,0.633,-0.193
30.015,-0.756,0.635,-0.193
30.025,-0.754,0.639,-0.191
30.035,-0.758,0.635,-0.189
30.045,-0.756,0.633,-0.193
30.055,-0.756,0.635,-0.191
30.065,-0.756,0.635,-0.193
30.075,-0.760,0.637,-0.193
30.085,-0.756,0.635,-0.195
30.094,-0.760,0.633,-0.193
30.104,-0.756,0.633,-0.191
30.114,-0.756,0.633,-0.195
30.124,-0.758,0.635,-0.189
30.134,-0.758,0.637,-0.193
30.144,-0.754,0.633,-0.195
30.154,-0.756,0.637,-0.193
30.164,-0.758,0.629,-0.197
30.174,-0.756,0.623,-0.195
30.184,-0.754,0.623,-0.191
30.194,-0.756,0.631,-0.193
30.204,-0.754,0.629,-0.191
30.214,-0.754,0.639,-0.191
30.224,-0.754,0.645,-0.193
30.234,-0.752,0.646,-0.193
30.243,-0.752,0.643,-0.193
30.253,-0.754,0.635,-0.195
30.263,-0.754,0.629,-0.197
30.273,-0.756,0.631,-0.195
30.283,-0.760,0.629,-0.197
30.293,-0.758,0.633,-0.197
30.303,-0.758,0.629,-0.195
30.313,-0.758,0.631,-0.193
30.323,-0.758,0.635,-0.193
30.333,-0.758,0.635,-0.193
30.343,-0.756,0.637,-0.191
30.353,-0.752,0.635,-0.191
30.363,-0.754,0.635,-0.193
30.373,-0.750,0.633,-0.188
30.383,-0.748,0.631,-0.195
30.392,-0.750,0.631,-0.191
30.402,-0.752,0.631,-0.193
30.412,-0.754,0.633,-0.197
30.422,-0.756,0.637,-0.191
30.432,-0.756,0.633,-0.195
30.442,-0.758,0.635,-0.189
30.452,-0.760,0.633,-0.195
30.462,-0.760,0.629,-0.191
30.472,-0.762,0.629,-0.191
30.482,-0.760,0.633,-0.193
30.492,-0.760,0.641,-0.193
30.502,-0.756,0.637,-0.197
30.512,-0.756,0.633,-0.195
30.522,-0.754,0.635,-0.189
30.532,-0.754,0.635,-0.191
30.541,-0.756,0.633,-0.191
30.551,-0.752,0.633,-0.191
30.561,-0.752,0.633,-0.195
30.571,-0.752,0.631,-0.191
30.581,-0.754,0.633,-0.193
30.591,-0.754,0.635,-0.191
30.601,-0.754,0.637,-0.193
30.611,-0.758,0.635,-0.193
30.621,-0.758,0.637,-0.195
30.631,-0.760,0.635,-0.195
30.641,-0.756,0.637,-0.191
30.651,-0.758,0.635,-0.197
30.661,-0.756,0.631,-0.193
30.671,-0.758,0.633,-0.193
30.680,-0.754,0.631,-0.195
30.690,-0.754,0.629,-0.195
30.700,-0.758,0.631,-0.195
30.710,-0.758,0.635,-0.193
30.720,-0.758,0.631,-0.197
30.730,-0.758,0.633,-0.199
30.740,-0.754,0.633,-0.193
30.750,-0.756,0.629,-0.193
30.760,-0.758,0.631,-0.195
30.770,-0.756,0.633,-0.201
30.780,-0.758,0.631,-0.197
30.790,-0.758,0.633,-0.197
30.800,-0.758,0.631,-0.193
30.810,-0.760,0.635,-0.197
30.820,-0.760,0.633,-0.197
30.829,-0.756,0.633,-0.193
30.839,-0.758,0.633,-0.193
30.849,-0.760,0.635,-0.199
30.859,-0.754,0.635,-0.193
30.869,-0.754,0.633,-0.193
30.879,-0.752,0.633,-0.191
30.889,-0.750,0.633,-0.191
30.899,-0.752,0.633,-0.193
30.909,-0.754,0.635,-0.189
30.919,-0.750,0.637,-0.191
30.929,-0.752,0.637,-0.191
30.939,-0.754,0.633,-0.193
30.949,-0.752,0.631,-0.195
30.959,-0.756,0.633,-0.193
30.969,-0.754,0.633,-0.191
30.978,-0.754,0.633,-0.193
30.988,-0.756,0.631,-0.193
30.998,-0.758,0.633,-0.193
31.008,-0.754,0.635,-0.193
31.018,-0.756,0.635,-0.191
31.028,-0.760,0.631,-0.195
31.038,-0.756,0.629,-0.193
31.048,-0.756,0.627,-0.193
31.058,-0.752,0.635,-0.195
31.068,-0.754,0.635,-0.195
31.078,-0.756,0.637,-0.193
31.088,-0.754,0.639,-0.195
31.098,-0.754,0.641,-0.193
31.108,-0.754,0.641,-0.197
31.117,-0.760,0.635,-0.197
31.127,-0.760,0.627,-0.193
31.137,-0.760,0.623,-0.197
31.147,-0.760,0.625,-0.195
31.157,-0.762,0.627,-0.195
31.167,-0.760,0.627,-0.191
31.177,-0.762,0.631,-0.193
31.187,-0.758,0.633,-0.191
31.197,-0.760,0.631,-0.191
31.207,-0.760,0.631,-0.193
31.217,-0.758,0.633,-0.191
31.227,-0.758,0.629,-0.191
31.237,-0.756,0.629,-0.191
31.247,-0.756,0.627,-0.189
31.257,-0.758,0.627,-0.189
31.266,-0.756,0.629,-0.193
31.276,-0.754,0.629,-0.195
31.286,-0.756,0.633,-0.188
31.296,-0.754,0.635,-0.191
31.306,-0.756,0.635,-0.193
31.316,-0.760,0.633,-0.193
31.326,-0.758,0.635,-0.195
31.336,-0.758,0.629,-0.193
31.346,-0.760,0.627,-0.191
31.356,-0.754,0.637,-0.195
31.366,-0.756,0.639,-0.197
31.376,-0.756,0.637,-0.195
31.386,-0.752,0.637,-0.197
31.396,-0.752,0.633,-0.195
31.406,-0.754,0.635,-0.195
31.415,-0.754,0.633,-0.195
31.425,-0.754,0.631,-0.193
31.435,-0.754,0.629,-0.195
31.445,-0.754,0.633,-0.195
31.455,-0.758,0.631,-0.199
31.465,-0.758,0.629,-0.195
31.475,-0.760,0.631,-0.193
31.485,-0.760,0.629,-0.191
31.495,-0.760,0.629,-0.193
31.505,-0.760,0.631,-0.193
31.515,-0.754,0.631,-0.193
31.525,-0.756,0.631,-0.193
31.535,-0.756,0.631,-0.195
31.545,-0.754,0.635,-0.191
31.555,-0.754,0.633,-0.189
31.564,-0.754,0.633,-0.189
31.574,-0.754,0.633,-0.193
31.584,-0.752,0.631,-0.193
31.594,-0.756,0.629,-0.193
31.604,-0.756,0.633,-0.195
31.614,-0.762,0.633,-0.197
31.624,-0.760,0.631,-0.197
31.634,-0.760,0.633,-0.195
31.644,-0.758,0.631,-0.195
31.654,-0.756,0.635,-0.197
31.664,-0.758,0.633,-0.195
31.674,-0.756,0.633,-0.193
31.684,-0.756,0.631,-0.197
31.694,-0.756,0.631,-0.197
31.703,-0.758,0.633,-0.195
31.713,-0.754,0.629,-0.193
31.723,-0.756,0.631,-0.189
31.733,-0.754,0.631,-0.193
31.743,-0.762,0.631,-0.193
31.753,-0.758,0.633,-0.193
31.763,-0.756,0.631,-0.193
31.773,-0.754,0.631,-0.193
31.783,-0.754,0.631,-0.195
31.793,-0.750,0.633,-0.191
31.803,-0.756,0.631,-0.195
31.813,-0.754,0.635,-0.191
31.823,-0.756,0.631,-0.197
31.833,-0.756,0.629,-0.193
31.843,-0.762,0.627,-0.197
31.852,-0.760,0.629,-0.191
31.862,-0.760,0.635,-0.193
31.872,-0.762,0.635,-0.195
31.882,-0.760,0.635,-0.195
31.892,-0.758,0.635,-0.195
31.902,-0.762,0.627,-0.191
31.912,-0.754,0.627,-0.189
31.922,-0.754,0.629,-0.193
31.932,-0.754,0.631,-0.189
31.942,-0.756,0.633,-0.191
31.952,-0.756,0.641,-0.193
31.962,-0.756,0.637,-0.195
31.972,-0.758,0.637,-0.195
31.982,-0.760,0.633,-0.193
31.992,-0.762,0.629,-0.195
32.001,-0.764,0.629,-0.195
32.011,-0.762,0.629,-0.197
32.021,-0.758,0.633,-0.197
32.031,-0.756,0.633,-0.193
32.041,-0.754,0.629,-0.193
32.051,-0.752,0.635,-0.193
32.061,-0.756,0.633,-0.193
32.071,-0.752,0.631,-0.195
32.081,-0.756,0.631,-0.195
32.091,-0.756,0.627,-0.193
32.101,-0.756,0.627,-0.193
32.111,-0.758,0.631,-0.189
32.121,-0.758,0.631,-0.189
32.131,-0.762,0.631,-0.191
32.140,-0.758,0.631,-0.191
32.150,-0.756,0.633,-0.193
32.160,-0.758,0.633,-0.193
32.170,-0.756,0.635,-0.195
32.180,-0.756,0.631,-0.195
32.190,-0.756,0.629,-0.195
32.200,-0.756,0.625,-0.189
32.210,-0.756,0.631,-0.189
32.220,-0.754,0.637,-0.195
32.230,-0.760,0.639,-0.197
32.240,-0.756,0.633,-0.193
32.250,-0.756,0.633,-0.195
32.260,-0.760,0.631,-0.193
32.270,-0.760,0.631,-0.193
32.280,-0.758,0.633,-0.195
32.289,-0.754,0.629,-0.193
32.299,-0.752,0.631,-0.197
32.309,-0.752,0.629,-0.197
32.319,-0.756,0.631,-0.197
32.329,-0.754,0.633,-0.193
32.339,-0.756,0.633,-0.195
32.349,-0.756,0.633,-0.193
32.359,-0.754,0.633,-0.191
32.369,-0.756,0.631,-0.193
32.379,-0.758,0.633,-0.195
32.389,-0.756,0.629,-0.197
32.399,-0.758,0.629,-0.199
32.409,-0.760,0.627,-0.193
32.419,-0.764,0.631,-0.195
32.429,-0.760,0.629,-0.195
32.438,-0.762,0.625,-0.197
32.448,-0.764,0.631,-0.199
32.458,-0.760,0.631,-0.197
32.468,-0.760,0.633,-0.195
32.478,-0.756,0.631,-0.197
32.488,-0.756,0.631,-0.191
32.498,-0.754,0.635,-0.195
32.508,-0.756,0.631,-0.197
32.518,-0.758,0.629,-0.195
32.528,-0.756,0.627,-0.193
32.538,-0.762,0.627,-0.193
32.548,-0.762,0.631,-0.191
32.558,-0.762,0.631,-0.197
32.568,-0.764,0.631,-0.195
32.578,-0.762,0.633,-0.191
32.587,-0.760,0.631,-0.191
32.597,-0.760,0.633,-0.191
32.607,-0.756,0.631,-0.197
32.617,-0.756,0.635,-0.193
32.627,-0.750,0.633,-0.191
32.637,-0.752,0.631,-0.195
32.647,-0.756,0.631,-0.191
32.657,-0.754,0.629,-0.195
32.667,-0.758,0.629,-0.191
32.677,-0.758,0.629,-0.193
32.687,-0.758,0.631,-0.191
32.697,-0.758,0.635,-0.191
32.707,-0.754,0.631,-0.195
32.717,-0.760,0.633,-0.191
32.726,-0.758,0.633,-0.195
32.736,-0.760,0.633,-0.195
32.746,-0.760,0.635,-0.191
32.756,-0.758,0.633,-0.195
32.766,-0.762,0.629,-0.193
32.776,-0.756,0.627,-0.191
32.786,-0.754,0.625,-0.193
32.796,-0.758,0.629,-0.193
32.806,-0.758,0.629,-0.195
32.816,-0.756,0.637,-0.195
32.826,-0.760,0.637,-0.195
32.836,-0.760,0.637,-0.197
32.846,-0.764,0.629,-0.197
32.856,-0.764,0.627,-0.195
32.866,-0.762,0.623,-0.197
32.875,-0.760,0.629,-0.193
32.885,-0.758,0.629,-0.195
32.895,-0.756,0.627,-0.197
32.905,-0.758,0.629,-0.195
32.915,-0.756,0.627,-0.193
32.925,-0.758,0.629,-0.193
32.935,-0.760,0.625,-0.191
32.945,-0.760,0.629,-0.191
32.955,-0.762,0.629,-0.191
32.965,-0.758,0.631,-0.191
32.975,-0.758,0.631,-0.193
32.985,-0.760,0.629,-0.195
32.995,-0.758,0.633,-0.193
33.005,-0.756,0.631,-0.195
33.015,-0.756,0.633,-0.193
33.024,-0.758,0.633,-0.195
33.034,-0.758,0.631,-0.195
33.044,-0.756,0.633,-0.197
33.054,-0.758,0.633,-0.195
33.064,-0.760,0.627,-0.195
33.074,-0.760,0.627,-0.193
33.084,-0.760,0.635,-0.197
33.094,-0.762,0.635,-0.197
33.104,-0.760,0.635,-0.193
33.114,-0.758,0.633,-0.195
33.124,-0.754,0.629,-0.197
33.134,-0.756,0.627,-0.193
33.144,-0.756,0.629,-0.193
33.154,-0.752,0.627,-0.193
33.163,-0.754,0.629,-0.195
33.173,-0.754,0.631,-0.195
33.183,-0.758,0.631,-0.195
33.193,-0.758,0.625,-0.197
33.203,-0.762,0.629,-0.197
33.213,-0.760,0.629,-0.193
33.223,-0.762,0.627,-0.193
33.233,-0.762,0.627,-0.193
33.243,-0.762,0.629,-0.197
33.253,-0.764,0.633,-0.195
33.263,-0.756,0.627,-0.193
33.273,-0.758,0.631,-0.197
33.283,-0.758,0.631,-0.195
33.293,-0.758,0.631,-0.195
33.303,-0.756,0.629,-0.197
33.312,-0.758,0.627,-0.195
33.322,-0.764,0.623,-0.195
33.332,-0.760,0.629,-0.195
33.342,-0.760,0.629,-0.199
33.352,-0.758,0.629,-0.197
33.362,-0.758,0.631,-0.193
33.372,-0.758,0.635,-0.195
33.382,-0.754,0.631,-0.197
33.392,-0.758,0.631,-0.197
33.402,-0.758,0.631,-0.199
33.412,-0.758,0.627,-0.195
33.422,-0.756,0.627,-0.197
33.432,-0.754,0.627,-0.193
33.442,-0.760,0.627,-0.199
33.452,-0.758,0.625,-0.197
33.461,-0.758,0.629,-0.193
33.471,-0.760,0.631,-0.195
33.481,-0.760,0.629,-0.193
33.491,-0.760,0.629,-0.199
33.501,-0.760,0.629,-0.197
33.511,-0.762,0.629,-0.199
33.521,-0.764,0.629,-0.193
33.531,-0.758,0.627,-0.193
33.541,-0.762,0.627,-0.195
33.551,-0.762,0.629,-0.193
33.561,-0.760,0.629,-0.197
33.571,-0.760,0.625,-0.199
33.581,-0.760,0.625,-0.195
33.591,-0.762,0.629,-0.195
33.601,-0.762,0.627,-0.193
33.610,-0.760,0.629,-0.195
33.620,-0.764,0.631,-0.197
33.630,-0.768,0.629,-0.199
33.640,-0.768,0.621,-0.195
33.650,-0.760,0.619,-0.191
33.660,-0.762,0.627,-0.195
33.670,-0.764,0.625,-0.191
33.680,-0.758,0.629,-0.193
33.690,-0.756,0.637,-0.197
33.700,-0.756,0.639,-0.199
33.710,-0.758,0.639,-0.197
33.720,-0.756,0.629,-0.195
33.730,-0.760,0.623,-0.197
33.740,-0.758,0.623,-0.201
33.749,-0.758,0.623,-0.195
33.759,-0.762,0.623,-0.197
33.769,-0.758,0.623,-0.199
33.779,-0.762,0.625,-0.197
33.789,-0.762,0.627,-0.195
33.799,-0.764,0.627,-0.197
33.809,-0.762,0.627,-0.197
33.819,-0.760,0.627,-0.197
33.829,-0.760,0.629,-0.193
33.839,-0.756,0.627,-0.199
33.849,-0.760,0.625,-0.193
33.859,-0.760,0.627,-0.197
33.869,-0.758,0.629,-0.195
33.879,-0.754,0.629,-0.195
33.889,-0.760,0.629,-0.197
33.898,-0.758,0.627,-0.193
33.908,-0.762,0.627,-0.197
33.918,-0.762,0.627,-0.197
33.928,-0.762,0.627,-0.195
33.938,-0.766,0.625,-0.191
33.948,-0.764,0.625,-0.191
33.958,-0.764,0.631,-0.199
33.968,-0.764,0.637,-0.199
33.978,-0.764,0.631,-0.197
33.988,-0.758,0.629,-0.197
33.998,-0.756,0.627,-0.199
34.008,-0.760,0.629,-0.195
34.018,-0.758,0.627,-0.199
34.028,-0.758,0.623,-0.199
34.038,-0.758,0.629,-0.197
34.047,-0.756,0.629,-0.195
34.057,-0.756,0.631,-0.195
34.067,-0.756,0.631,-0.199
34.077,-0.762,0.627,-0.197
34.087,-0.762,0.631,-0.195
34.097,-0.762,0.625,-0.195
34.107,-0.766,0.623,-0.199
34.117,-0.766,0.625,-0.199
34.127,-0.764,0.625,-0.199
34.137,-0.764,0.627,-0.197
34.147,-0.764,0.627,-0.201
34.157,-0.762,0.627,-0.197
34.167,-0.762,0.629,-0.199
34.177,-0.762,0.623,-0.199
34.186,-0.758,0.625,-0.197
34.196,-0.756,0.627,-0.201
34.206,-0.758,0.625,-0.197
34.216,-0.760,0.627,-0.199
34.226,-0.760,0.627,-0.197
34.236,-0.760,0.629,-0.199
34.246,-0.764,0.623,-0.201
34.256,-0.762,0.627,-0.203
34.266,-0.764,0.629,-0.197
34.276,-0.762,0.629,-0.201
34.286,-0.758,0.629,-0.199
34.296,-0.762,0.625,-0.195
34.306,-0.758,0.631,-0.197
34.316,-0.760,0.627,-0.197
34.326,-0.762,0.627,-0.197
34.335,-0.760,0.627,-0.195
34.345,-0.762,0.627,-0.199
34.355,-0.760,0.629,-0.197
34.365,-0.760,0.629,-0.195
34.375,-0.760,0.625,-0.195
34.385,-0.760,0.629,-0.195
34.395,-0.760,0.625,-0.193
34.405,-0.762,0.627,-0.199
34.415,-0.760,0.625,-0.193
34.425,-0.762,0.629,-0.201
34.435,-0.764,0.629,-0.199
34.445,-0.760,0.627,-0.199
34.455,-0.762,0.627,-0.195
34.465,-0.760,0.625,-0.193
34.475,-0.758,0.627,-0.195
34.484,-0.760,0.629,-0.195
34.494,-0.762,0.627,-0.195
34.504,-0.760,0.629,-0.197
34.514,-0.764,0.627,-0.199
34.524,-0.764,0.619,-0.197
34.534,-0.758,0.625,-0.195
34.544,-0.762,0.625,-0.195
34.554,-0.762,0.627,-0.195
34.564,-0.758,0.629,-0.197
34.574,-0.760,0.637,-0.197
34.584,-0.760,0.639,-0.197
34.594,-0.760,0.633,-0.195
34.604,-0.762,0.627,-0.197
34.614,-0.764,0.625,-0.199
34.624,-0.766,0.623,-0.199
34.633,-0.762,0.621,-0.197
34.643,-0.762,0.625,-0.199
34.653,-0.764,0.625,-0.199
34.663,-0.762,0.625,-0.195
34.673,-0.762,0.629,-0.197
34.683,-0.760,0.629,-0.195
34.693,-0.762,0.625,-0.193
34.703,-0.762,0.625,-0.197
34.713,-0.762,0.623,-0.197
34.723,-0.762,0.623,-0.199
34.733,-0.760,0.623,-0.199
34.743,-0.758,0.625,-0.201
34.753,-0.760,0.627,-0.195
34.763,-0.762,0.627,-0.197
34.772,-0.760,0.627,-0.195
34.782,-0.762,0.627,-0.195
34.792,-0.764,0.631,-0.201
34.802,-0.764,0.627,-0.203
34.812,-0.764,0.625,-0.199
34.822,-0.764,0.625,-0.197
34.832,-0.764,0.621,-0.195
34.842,-0.762,0.629,-0.199
34.852,-0.758,0.633,-0.201
34.862,-0.762,0.631,-0.199
34.872,-0.758,0.625,-0.199
34.882,-0.758,0.625,-0.199
34.892,-0.758,0.623,-0.201
34.902,-0.756,0.621,-0.197
34.912,-0.760,0.623,-0.201
34.921,-0.756,0.621,-0.199
34.931,-0.760,0.625,-0.201
34.941,-0.762,0.625,-0.199
34.951,-0.760,0.627,-0.199
34.961,-0.766,0.625,-0.201
34.971,-0.762,0.623,-0.201
34.981,-0.764,0.625,-0.199
34.991,-0.762,0.625,-0.199
35.001,-0.760,0.627,-0.197
35.011,-0.760,0.629,-0.199
35.021,-0.758,0.627,-0.199
35.031,-0.758,0.623,-0.201
35.041,-0.758,0.623,-0.199
35.051,-0.760,0.625,-0.199
35.061,-0.764,0.623,-0.199
35.070,-0.764,0.625,-0.203
35.080,-0.762,0.627,-0.205
35.090,-0.766,0.629,-0.199
35.100,-0.764,0.623,-0.199
35.110,-0.760,0.625,-0.199
35.120,-0.760,0.623,-0.199
35.130,-0.760,0.625,-0.199
35.140,-0.762,0.623,-0.197
35.150,-0.762,0.623,-0.197
35.160,-0.762,0.627,-0.199
35.170,-0.764,0.625,-0.197
35.180,-0.762,0.625,-0.197
35.190,-0.764,0.627,-0.195
35.200,-0.760,0.625,-0.195
35.210,-0.760,0.625,-0.197
35.219,-0.758,0.629,-0.195
35.229,-0.758,0.629,-0.195
35.239,-0.760,0.627,-0.199
35.249,-0.758,0.625,-0.197
35.259,-0.760,0.625,-0.201
35.269,-0.762,0.625,-0.199
35.279,-0.762,0.625,-0.201
35.289,-0.762,0.627,-0.197
35.299,-0.766,0.623,-0.197
35.309,-0.762,0.623,-0.205
35.319,-0.766,0.629,-0.197
35.329,-0.766,0.625,-0.197
35.339,-0.758,0.627,-0.197
35.349,-0.758,0.627,-0.197
35.358,-0.760,0.625,-0.199
35.368,-0.758,0.621,-0.197
35.378,-0.758,0.623,-0.199
35.388,-0.760,0.627,-0.199
35.398,-0.760,0.623,-0.197
35.408,-0.760,0.627,-0.199
35.418,-0.764,0.627,-0.203
35.428,-0.768,0.621,-0.199
35.438,-0.762,0.619,-0.197
35.448,-0.762,0.625,-0.195
35.458,-0.764,0.625,-0.201
35.468,-0.764,0.627,-0.197
35.478,-0.760,0.631,-0.199
35.488,-0.762,0.633,-0.203
35.498,-0.764,0.631,-0.199
35.507,-0.762,0.627,-0.201
35.517,-0.762,0.623,-0.201
35.527,-0.764,0.621,-0.201
35.537,-0.762,0.619,-0.201
35.547,-0.762,0.621,-0.197
35.557,-0.762,0.625,-0.199
35.567,-0.760,0.625,-0.199
35.577,-0.760,0.625,-0.201
35.587,-0.760,0.625,-0.201
35.597,-0.764,0.623,-0.199
35.607,-0.764,0.623,-0.199
35.617,-0.764,0.623,-0.195
35.627,-0.762,0.623,-0.197
35.637,-0.760,0.623,-0.195
35.647,-0.760,0.625,-0.201
35.656,-0.760,0.631,-0.199
35.666,-0.758,0.629,-0.197
35.676,-0.758,0.625,-0.197
35.686,-0.758,0.625,-0.201
35.696,-0.760,0.629,-0.199
35.706,-0.764,0.627,-0.201
35.716,-0.762,0.625,-0.201
35.726,-0.768,0.623,-0.193
35.736,-0.766,0.623,-0.195
35.746,-0.766,0.623,-0.193
35.756,-0.764,0.631,-0.199
35.766,-0.762,0.631,-0.199
35.776,-0.766,0.627,-0.199
35.786,-0.760,0.623,-0.201
35.795,-0.756,0.623,-0.199
35.805,-0.760,0.621,-0.199
35.815,-0.756,0.621,-0.197
35.825,-0.756,0.621,-0.195
35.835,-0.756,0.623,-0.197
35.845,-0.762,0.625,-0.197
35.855,-0.762,0.623,-0.201
35.865,-0.762,0.627,-0.203
35.875,-0.762,0.625,-0.197
35.885,-0.766,0.625,-0.199
35.895,-0.764,0.625,-0.197
35.905,-0.766,0.623,-0.199
35.915,-0.764,0.621,-0.199
35.925,-0.764,0.621,-0.201
35.935,-0.764,0.621,-0.197
35.944,-0.764,0.625,-0.203
35.954,-0.764,0.627,-0.199
35.964,-0.762,0.627,-0.201
35.974,-0.758,0.627,-0.199
35.984,-0.758,0.623,-0.201
35.994,-0.758,0.623,-0.201
36.004,-0.758,0.623,-0.203
36.014,-0.760,0.627,-0.201
36.024,-0.760,0.621,-0.201
36.034,-0.762,0.621,-0.203
36.044,-0.764,0.623,-0.201
36.054,-0.764,0.625,-0.199
36.064,-0.766,0.625,-0.199
36.074,-0.766,0.623,-0.201
36.084,-0.764,0.625,-0.197
36.093,-0.764,0.625,-0.201
36.103,-0.764,0.625,-0.203
36.113,-0.762,0.625,-0.197
36.123,-0.762,0.625,-0.195
36.133,-0.760,0.623,-0.197
36.143,-0.762,0.623,-0.195
36.153,-0.758,0.625,-0.199
36.163,-0.760,0.627,-0.197
36.173,-0.760,0.627,-0.197
36.183,-0.762,0.625,-0.199
36.193,-0.760,0.625,-0.197
36.203,-0.764,0.623,-0.197
36.213,-0.760,0.623,-0.197
36.223,-0.764,0.621,-0.199
36.233,-0.764,0.623,-0.199
36.242,-0.764,0.625,-0.199
36.252,-0.764,0.621,-0.199
36.262,-0.762,0.623,-0.197
36.272,-0.764,0.623,-0.203
36.282,-0.762,0.621,-0.199
36.292,-0.760,0.623,-0.195
36.302,-0.764,0.627,-0.203
36.312,-0.764,0.627,-0.199
36.322,-0.762,0.625,-0.195
36.332,-0.766,0.625,-0.203
36.342,-0.768,0.619,-0.203
36.352,-0.764,0.615,-0.199
36.362,-0.762,0.621,-0.197
36.372,-0.762,0.623,-0.197
36.381,-0.766,0.623,-0.197
36.391,-0.766,0.629,-0.201
36.401,-0.762,0.633,-0.199
36.411,-0.762,0.633,-0.199
36.421,-0.766,0.627,-0.201
36.431,-0.762,0.617,-0.199
36.441,-0.768,0.619,-0.197
36.451,-0.766,0.617,-0.203
36.461,-0.766,0.621,-0.201
36.471,-0.766,0.623,-0.203
36.481,-0.762,0.625,-0.199
36.491,-0.762,0.625,-0.199
36.501,-0.764,0.625,-0.201
36.511,-0.764,0.623,-0.199
36.521,-0.762,0.619,-0.201
36.530,-0.760,0.621,-0.201
36.540,-0.760,0.623,-0.199
36.550,-0.758,0.623,-0.197
36.560,-0.760,0.623,-0.199
36.570,-0.764,0.623,-0.197
36.580,-0.760,0.627,-0.199
36.590,-0.762,0.625,-0.199
36.600,-0.764,0.625,-0.203
36.610,-0.764,0.625,-0.201
36.620,-0.768,0.629,-0.203
36.630,-0.766,0.625,-0.201
36.640,-0.768,0.627,-0.203
36.650,-0.770,0.619,-0.199
36.660,-0.766,0.623,-0.199
36.670,-0.760,0.629,-0.203
36.679,-0.766,0.631,-0.203
36.689,-0.762,0.625,-0.199
36.699,-0.762,0.623,-0.201
36.709,-0.760,0.627,-0.199
36.719,-0.758,0.623,-0.197
36.729,-0.760,0.621,-0.203
36.739,-0.760,0.623,-0.197
36.749,-0.760,0.623,-0.197
36.759,-0.762,0.623,-0.203
36.769,-0.764,0.625,-0.201
36.779,-0.764,0.625,-0.197
36.789,-0.766,0.621,-0.201
36.799,-0.768,0.623,-0.199
36.809,-0.768,0.621,-0.203
36.818,-0.768,0.623,-0.197
36.828,-0.770,0.623,-0.197
36.838,-0.766,0.623,-0.199
36.848,-0.766,0.625,-0.199
36.858,-0.766,0.623,-0.203
36.868,-0.760,0.625,-0.201
36.878,-0.760,0.625,-0.197
36.888,-0.764,0.623,-0.199
36.898,-0.762,0.621,-0.203
36.908,-0.762,0.623,-0.201
36.918,-0.768,0.621,-0.203
36.928,-0.764,0.621,-0.199
36.938,-0.766,0.625,-0.201
36.948,-0.766,0.621,-0.201
36.958,-0.766,0.625,-0.197
36.967,-0.766,0.625,-0.199
36.977,-0.766,0.627,-0.199
36.987,-0.762,0.625,-0.203
36.997,-0.762,0.627,-0.199
37.007,-0.762,0.625,-0.199
37.017,-0.762,0.623,-0.201
37.027,-0.760,0.623,-0.201
37.037,-0.758,0.623,-0.197
37.047,-0.760,0.623,-0.199
37.057,-0.764,0.625,-0.199
37.067,-0.764,0.623,-0.199
37.077,-0.758,0.625,-0.199
37.087,-0.762,0.627,-0.197
37.097,-0.760,0.625,-0.199
37.107,-0.758,0.625,-0.201
37.116,-0.762,0.625,-0.197
37.126,-0.758,0.625,-0.203
37.136,-0.762,0.623,-0.199
37.146,-0.764,0.621,-0.199
37.156,-0.764,0.623,-0.199
37.166,-0.762,0.623,-0.205
37.176,-0.764,0.627,-0.199
37.186,-0.760,0.623,-0.197
37.196,-0.760,0.621,-0.199
37.206,-0.762,0.623,-0.203
37.216,-0.762,0.629,-0.203
37.226,-0.762,0.625,-0.197
37.236,-0.764,0.627,-0.205
37.246,-0.764,0.623,-0.201
37.256,-0.764,0.621,-0.199
37.265,-0.758,0.619,-0.199
37.275,-0.760,0.625,-0.199
37.285,-0.762,0.623,-0.201
37.295,-0.760,0.631,-0.201
37.305,-0.764,0.633,-0.201
37.315,-0.764,0.631,-0.203
37.325,-0.766,0.629,-0.201
37.335,-0.766,0.625,-0.203
37.345,-0.766,0.619,-0.201
37.355,-0.766,0.617,-0.205
37.365,-0.764,0.621,-0.201
37.375,-0.764,0.623,-0.201
37.385,-0.762,0.623,-0.199
37.395,-0.760,0.625,-0.197
37.404,-0.760,0.625,-0.203
37.414,-0.764,0.623,-0.201
37.424,-0.762,0.625,-0.199
37.434,-0.760,0.625,-0.201
37.444,-0.760,0.623,-0.199
37.454,-0.760,0.623,-0.201
37.464,-0.764,0.625,-0.199
37.474,-0.764,0.621,-0.201
37.484,-0.758,0.625,-0.199
37.494,-0.762,0.625,-0.201
37.504,-0.762,0.627,-0.201
37.514,-0.762,0.629,-0.201
37.524,-0.762,0.627,-0.199
37.534,-0.762,0.625,-0.201
37.544,-0.762,0.627,-0.201
37.553,-0.764,0.623,-0.199
37.563,-0.764,0.621,-0.199
37.573,-0.764,0.627,-0.201
37.583,-0.764,0.631,-0.203
37.593,-0.760,0.627,-0.197
37.603,-0.764,0.627,-0.203
37.613,-0.758,0.623,-0.203
37.623,-0.760,0.625,-0.201
37.633,-0.760,0.623,-0.199
37.643,-0.760,0.623,-0.201
37.653,-0.762,0.623,-0.201
37.663,-0.760,0.623,-0.203
37.673,-0.758,0.625,-0.201
37.683,-0.760,0.621,-0.201
37.693,-0.758,0.625,-0.201
37.702,-0.760,0.625,-0.201
37.712,-0.760,0.621,-0.203
37.722,-0.764,0.625,-0.199
37.732,-0.762,0.623,-0.205
37.742,-0.762,0.625,-0.201
37.752,-0.762,0.625,-0.203
37.762,-0.760,0.623,-0.203
37.772,-0.762,0.625,-0.203
37.782,-0.762,0.627,-0.203
37.792,-0.760,0.625,-0.203
37.802,-0.760,0.627,-0.201
37.812,-0.760,0.625,-0.197
37.822,-0.760,0.623,-0.201
37.832,-0.760,0.623,-0.205
37.841,-0.762,0.625,-0.201
37.851,-0.762,0.627,-0.203
37.861,-0.762,0.623,-0.203
37.871,-0.762,0.623,-0.201
37.881,-0.760,0.625,-0.201
37.891,-0.766,0.623,-0.201
37.901,-0.764,0.625,-0.203
37.911,-0.764,0.623,-0.199
37.921,-0.768,0.623,-0.203
37.931,-0.760,0.623,-0.201
37.941,-0.764,0.627,-0.201
37.951,-0.762,0.627,-0.203
37.961,-0.760,0.629,-0.201
37.971,-0.758,0.627,-0.199
37.981,-0.758,0.625,-0.197
37.990,-0.758,0.625,-0.195
38.000,-0.760,0.623,-0.195
38.010,-0.762,0.625,-0.195
38.020,-0.762,0.627,-0.199
38.030,-0.766,0.621,-0.193
38.040,-0.764,0.627,-0.201
38.050,-0.766,0.627,-0.197
38.060,-0.766,0.625,-0.197
38.070,-0.766,0.625,-0.199
38.080,-0.766,0.623,-0.199
38.090,-0.764,0.623,-0.201
38.100,-0.764,0.625,-0.199
38.110,-0.760,0.625,-0.197
38.120,-0.760,0.623,-0.201
38.130,-0.762,0.625,-0.197
38.139,-0.758,0.627,-0.197
38.149,-0.758,0.623,-0.199
38.159,-0.764,0.627,-0.199
38.169,-0.766,0.621,-0.197
38.179,-0.762,0.619,-0.197
38.189,-0.760,0.625,-0.197
38.199,-0.764,0.625,-0.195
38.209,-0.762,0.623,-0.197
38.219,-0.764,0.627,-0.197
38.229,-0.760,0.633,-0.203
38.239,-0.760,0.633,-0.203
38.249,-0.760,0.631,-0.197
38.259,-0.760,0.623,-0.199
38.269,-0.764,0.617,-0.199
38.279,-0.764,0.621,-0.201
38.288,-0.764,0.619,-0.201
38.298,-0.764,0.625,-0.203
38.308,-0.762,0.623,-0.199
38.318,-0.760,0.627,-0.205
38.328,-0.764,0.625,-0.203
38.338,-0.762,0.623,-0.203
38.348,-0.764,0.623,-0.201
38.358,-0.762,0.621,-0.201
38.368,-0.764,0.625,-0.201
38.378,-0.760,0.621,-0.201
38.388,-0.762,0.619,-0.199
38.398,-0.762,0.625,-0.203
38.408,-0.760,0.625,-0.199
38.418,-0.762,0.623,-0.199
38.427,-0.762,0.625,-0.199
38.437,-0.762,0.625,-0.201
38.447,-0.764,0.627,-0.201
38.457,-0.762,0.623,-0.201
38.467,-0.766,0.627,-0.203
38.477,-0.766,0.623,-0.197
38.487,-0.766,0.621,-0.199
38.497,-0.764,0.629,-0.197
38.507,-0.760,0.629,-0.201
38.517,-0.762,0.629,-0.199
38.527,-0.760,0.627,-0.197
38.537,-0.762,0.627,-0.199
38.547,-0.762,0.623,-0.197
38.557,-0.762,0.625,-0.199
38.567,-0.760,0.623,-0.195
38.576,-0.758,0.625,-0.201
38.586,-0.764,0.623,-0.199
38.596,-0.764,0.625,-0.201
38.606,-0.760,0.627,-0.199
38.616,-0.766,0.623,-0.199
38.626,-0.766,0.625,-0.199
38.636,-0.764,0.623,-0.197
38.646,-0.762,0.627,-0.199
38.656,-0.764,0.625,-0.201
38.666,-0.768,0.625,-0.199
38.676,-0.762,0.627,-0.197
38.686,-0.762,0.623,-0.201
38.696,-0.758,0.625,-0.197
38.706,-0.760,0.623,-0.197
38.716,-0.762,0.623,-0.199
38.725,-0.762,0.621,-0.201
38.735,-0.762,0.623,-0.199
38.745,-0.762,0.623,-0.199
38.755,-0.762,0.623,-0.205
38.765,-0.764,0.623,-0.203
38.775,-0.768,0.623,-0.201
38.785,-0.764,0.623,-0.195
38.795,-0.764,0.623,-0.199
38.805,-0.768,0.623,-0.199
38.815,-0.764,0.625,-0.197
38.825,-0.762,0.623,-0.197
38.835,-0.764,0.625,-0.197
38.845,-0.760,0.627,-0.197
38.855,-0.760,0.623,-0.197
38.864,-0.762,0.623,-0.199
38.874,-0.760,0.625,-0.199
38.884,-0.764,0.621,-0.199
38.894,-0.764,0.625,-0.197
38.904,-0.760,0.623,-0.197
38.914,-0.762,0.623,-0.195
38.924,-0.764,0.623,-0.195
38.934,-0.764,0.627,-0.197
38.944,-0.764,0.627,-0.199
38.954,-0.764,0.623,-0.199
38.964,-0.764,0.623,-0.201
38.974,-0.764,0.621,-0.197
38.984,-0.762,0.623,-0.201
38.994,-0.764,0.623,-0.201
39.004,-0.766,0.623,-0.199
39.013,-0.766,0.619,-0.197
39.023,-0.766,0.621,-0.201
39.033,-0.764,0.617,-0.201
39.043,-0.764,0.621,-0.199
39.053,-0.764,0.625,-0.199
39.063,-0.766,0.625,-0.199
39.073,-0.762,0.625,-0.199
39.083,-0.768,0.627,-0.201
39.093,-0.766,0.617,-0.199
39.103,-0.762,0.619,-0.197
39.113,-0.762,0.625,-0.197
39.123,-0.764,0.621,-0.197
39.133,-0.762,0.627,-0.197
39.143,-0.762,0.627,-0.197
39.153,-0.762,0.633,-0.199
39.162,-0.762,0.631,-0.199
39.172,-0.766,0.629,-0.201
39.182,-0.764,0.623,-0.199
39.192,-0.766,0.617,-0.197
39.202,-0.764,0.619,-0.201
39.212,-0.766,0.623,-0.201
39.222,-0.766,0.621,-0.197
39.232,-0.764,0.623,-0.199
39.242,-0.766,0.625,-0.197
39.252,-0.764,0.625,-0.199
39.262,-0.766,0.623,-0.201
39.272,-0.766,0.621,-0.199
39.282,-0.766,0.623,-0.201
39.292,-0.764,0.621,-0.199
39.302,-0.762,0.621,-0.199
39.311,-0.766,0.619,-0.195
39.321,-0.766,0.623,-0.197
39.331,-0.762,0.623,-0.203
39.341,-0.768,0.621,-0.195
39.351,-0.766,0.625,-0.199
39.361,-0.764,0.623,-0.201
39.371,-0.768,0.625,-0.201
39.381,-0.764,0.621,-0.199
39.391,-0.764,0.621,-0.197
39.401,-0.768,0.619,-0.199
39.411,-0.766,0.621,-0.197
39.421,-0.768,0.627,-0.201
39.431,-0.762,0.629,-0.197
39.441,-0.764,0.623,-0.197
39.450,-0.762,0.621,-0.201
39.460,-0.766,0.621,-0.199
39.470,-0.762,0.619,-0.197
39.480,-0.760,0.621,-0.199
39.490,-0.762,0.621,-0.199
39.500,-0.762,0.621,-0.203
39.510,-0.766,0.623,-0.199
39.520,-0.764,0.621,-0.199
39.530,-0.764,0.625,-0.201
39.540,-0.766,0.623,-0.199
39.550,-0.766,0.621,-0.201
39.560,-0.770,0.619,-0.199
39.570,-0.766,0.621,-0.203
39.580,-0.764,0.623,-0.199
39.590,-0.764,0.619,-0.201
39.599,-0.768,0.621,-0.199
39.609,-0.766,0.617,-0.199
39.619,-0.764,0.619,-0.203
39.629,-0.766,0.617,-0.203
39.639,-0.764,0.617,-0.201
39.649,-0.768,0.619,-0.201
39.659,-0.768,0.621,-0.199
39.669,-0.764,0.619,-0.205
39.679,-0.764,0.625,-0.201
39.689,-0.764,0.621,-0.201
39.699,-0.768,0.623,-0.203
39.709,-0.766,0.623,-0.195
39.719,-0.766,0.623,-0.199
39.729,-0.764,0.623,-0.203
39.739,-0.764,0.619,-0.197
39.748,-0.764,0.619,-0.199
39.758,-0.766,0.619,-0.201
39.768,-0.766,0.621,-0.199
39.778,-0.766,0.621,-0.199
39.788,-0.768,0.623,-0.199
39.798,-0.764,0.623,-0.195
39.808,-0.762,0.625,-0.199
39.818,-0.762,0.623,-0.199
39.828,-0.762,0.623,-0.199
39.838,-0.766,0.627,-0.197
39.848,-0.762,0.621,-0.201
39.858,-0.760,0.621,-0.197
39.868,-0.766,0.619,-0.199
39.878,-0.764,0.623,-0.195
39.887,-0.768,0.623,-0.199
39.897,-0.766,0.623,-0.201
39.907,-0.766,0.623,-0.199
39.917,-0.766,0.621,-0.197
39.927,-0.766,0.621,-0.201
39.937,-0.768,0.621,-0.197
39.947,-0.764,0.621,-0.197
39.957,-0.766,0.623,-0.199
39.967,-0.764,0.625,-0.197
39.977,-0.762,0.621,-0.195
39.987,-0.764,0.625,-0.197
39.997,-0.766,0.623,-0.203
40.007,-0.764,0.619,-0.199
40.017,-0.762,0.615,-0.199
40.027,-0.764,0.619,-0.199
40.036,-0.766,0.621,-0.197
40.046,-0.768,0.623,-0.195
40.056,-0.768,0.625,-0.199
40.066,-0.768,0.627,-0.201
40.076,-0.770,0.627,-0.199
40.086,-0.768,0.625,-0.203
40.096,-0.770,0.621,-0.199
40.106,-0.771,0.617,-0.203
40.116,-0.766,0.617,-0.201
40.126,-0.766,0.615,-0.197
40.136,-0.764,0.615,-0.201
40.146,-0.764,0.617,-0.197
40.156,-0.764,0.619,-0.197
40.166,-0.766,0.617,-0.199
40.176,-0.764,0.619,-0.193
40.185,-0.768,0.621,-0.197
40.195,-0.768,0.623,-0.199
40.205,-0.768,0.619,-0.201
40.215,-0.770,0.619,-0.199
40.225,-0.768,0.621,-0.197
40.235,-0.766,0.621,-0.201
40.245,-0.764,0.619,-0.201
40.255,-0.764,0.623,-0.197
40.265,-0.764,0.621,-0.197
40.275,-0.766,0.619,-0.201
40.285,-0.768,0.621,-0.203
40.295,-0.768,0.623,-0.199
40.305,-0.766,0.617,-0.197
40.315,-0.768,0.617,-0.197
40.325,-0.768,0.621,-0.199
40.334,-0.768,0.627,-0.203
40.344,-0.770,0.625,-0.199
40.354,-0.766,0.627,-0.195
40.364,-0.766,0.621,-0.195
40.374,-0.768,0.621,-0.201
40.384,-0.766,0.619,-0.201
40.394,-0.764,0.621,-0.197
40.404,-0.762,0.617,-0.197
40.414,-0.764,0.621,-0.197
40.424,-0.764,0.617,-0.197
40.434,-0.764,0.617,-0.197
40.444,-0.766,0.621,-0.199
40.454,-0.768,0.621,-0.197
40.464,-0.766,0.621,-0.195
40.473,-0.770,0.619,-0.199
40.483,-0.770,0.621,-0.199
40.493,-0.770,0.621,-0.197
40.503,-0.770,0.621,-0.199
40.513,-0.770,0.619,-0.199
40.523,-0.770,0.619,-0.197
40.533,-0.770,0.619,-0.201
40.543,-0.770,0.619,-0.203
40.553,-0.768,0.617,-0.197
40.563,-0.768,0.617,-0.199
40.573,-0.771,0.619,-0.201
40.583,-0.770,0.619,-0.201
40.593,-0.770,0.619,-0.201
40.603,-0.770,0.619,-0.203
40.613,-0.773,0.619,-0.197
40.622,-0.770,0.619,-0.199
40.632,-0.770,0.619,-0.201
40.642,-0.770,0.621,-0.195
40.652,-0.768,0.617,-0.197
40.662,-0.768,0.621,-0.199
40.672,-0.768,0.619,-0.197
40.682,-0.764,0.617,-0.197
40.692,-0.766,0.617,-0.199
40.702,-0.764,0.621,-0.197
40.712,-0.766,0.617,-0.197
40.722,-0.768,0.621,-0.195
40.732,-0.766,0.619,-0.199
40.742,-0.768,0.621,-0.197
40.752,-0.770,0.621,-0.197
40.762,-0.766,0.621,-0.199
40.771,-0.770,0.619,-0.199
40.781,-0.766,0.617,-0.195
40.791,-0.768,0.617,-0.197
40.801,-0.768,0.617,-0.197
40.811,-0.768,0.619,-0.197
40.821,-0.768,0.615,-0.201
40.831,-0.771,0.621,-0.195
40.841,-0.771,0.623,-0.197
40.851,-0.768,0.621,-0.199
40.861,-0.768,0.623,-0.199
40.871,-0.771,0.617,-0.197
40.881,-0.770,0.605,-0.199
40.891,-0.766,0.609,-0.197
40.901,-0.770,0.619,-0.199
40.910,-0.770,0.615,-0.197
40.920,-0.771,0.619,-0.197
40.930,-0.768,0.625,-0.199
40.940,-0.771,0.629,-0.201
40.950,-0.775,0.625,-0.203
40.960,-0.775,0.617,-0.201
40.970,-0.775,0.611,-0.201
40.980,-0.773,0.613,-0.201
40.990,-0.771,0.609,-0.201
41.000,-0.773,0.611,-0.199
41.010,-0.771,0.617,-0.203
41.020,-0.768,0.613,-0.199
41.030,-0.768,0.615,-0.199
41.040,-0.764,0.617,-0.199
41.050,-0.770,0.615,-0.199
41.059,-0.771,0.617,-0.201
41.069,-0.773,0.615,-0.199
41.079,-0.771,0.617,-0.201
41.089,-0.771,0.615,-0.203
41.099,-0.771,0.615,-0.199
41.109,-0.770,0.615,-0.199
41.119,-0.768,0.615,-0.199
41.129,-0.766,0.621,-0.203
41.139,-0.768,0.623,-0.201
41.149,-0.770,0.619,-0.201
41.159,-0.768,0.617,-0.201
41.169,-0.768,0.613,-0.199
41.179,-0.771,0.609,-0.195
41.189,-0.764,0.621,-0.199
41.199,-0.768,0.623,-0.203
41.208,-0.773,0.619,-0.203
41.218,-0.770,0.615,-0.199
41.228,-0.766,0.617,-0.201
41.238,-0.770,0.617,-0.201
41.248,-0.770,0.613,-0.197
41.258,-0.768,0.613,-0.199
41.268,-0.766,0.615,-0.199
41.278,-0.768,0.615,-0.203
41.288,-0.766,0.615,-0.201
41.298,-0.764,0.613,-0.199
41.308,-0.768,0.613,-0.201
41.318,-0.771,0.615,-0.197
41.328,-0.771,0.619,-0.199
41.338,-0.771,0.619,-0.197
41.348,-0.771,0.617,-0.201
41.357,-0.770,0.613,-0.201
41.367,-0.771,0.611,-0.203
41.377,-0.771,0.611,-0.199
41.387,-0.773,0.613,-0.199
41.397,-0.779,0.615,-0.203
41.407,-0.777,0.611,-0.205
41.417,-0.781,0.609,-0.201
41.427,-0.777,0.611,-0.199
41.437,-0.775,0.613,-0.201
41.447,-0.773,0.607,-0.201
41.457,-0.771,0.613,-0.195
41.467,-0.771,0.617,-0.199
41.477,-0.773,0.617,-0.197
41.487,-0.771,0.613,-0.199
41.496,-0.773,0.605,-0.201
41.506,-0.773,0.609,-0.199
41.516,-0.773,0.609,-0.199
41.526,-0.773,0.604,-0.197
41.536,-0.777,0.609,-0.201
41.546,-0.777,0.613,-0.199
41.556,-0.777,0.613,-0.199
41.566,-0.777,0.613,-0.199
41.576,-0.777,0.613,-0.199
41.586,-0.775,0.607,-0.195
41.596,-0.775,0.609,-0.197
41.606,-0.777,0.609,-0.197
41.616,-0.771,0.605,-0.197
41.626,-0.770,0.605,-0.195
41.636,-0.773,0.607,-0.197
41.645,-0.777,0.602,-0.197
41.655,-0.773,0.600,-0.197
41.665,-0.775,0.605,-0.201
41.675,-0.773,0.611,-0.199
41.685,-0.775,0.613,-0.199
41.695,-0.777,0.615,-0.195
41.705,-0.779,0.615,-0.203
41.715,-0.779,0.617,-0.205
41.725,-0.783,0.609,-0.203
41.735,-0.779,0.602,-0.201
41.745,-0.783,0.598,-0.201
41.755,-0.783,0.596,-0.201
41.765,-0.789,0.600,-0.201
41.775,-0.793,0.607,-0.205
41.785,-0.779,0.604,-0.201
41.794,-0.781,0.605,-0.201
41.804,-0.781,0.604,-0.201
41.814,-0.777,0.602,-0.201
41.824,-0.777,0.602,-0.199
41.834,-0.777,0.600,-0.197
41.844,-0.777,0.602,-0.201
41.854,-0.775,0.600,-0.197
41.864,-0.783,0.602,-0.199
41.874,-0.783,0.605,-0.199
41.884,-0.779,0.602,-0.201
41.894,-0.785,0.607,-0.203
41.904,-0.785,0.604,-0.205
41.914,-0.785,0.605,-0.205
41.924,-0.785,0.604,-0.203
41.933,-0.783,0.604,-0.201
41.943,-0.787,0.596,-0.195
41.953,-0.785,0.600,-0.197
41.963,-0.781,0.609,-0.201
41.973,-0.787,0.611,-0.203
41.983,-0.785,0.605,-0.197
41.993,-0.783,0.604,-0.197
42.003,-0.779,0.604,-0.197
42.013,-0.779,0.602,-0.199
42.023,-0.779,0.600,-0.195
42.033,-0.779,0.604,-0.199
42.043,-0.779,0.602,-0.195
42.053,-0.779,0.605,-0.197
42.063,-0.779,0.609,-0.197
42.073,-0.779,0.607,-0.201
42.082,-0.783,0.604,-0.197
42.092,-0.779,0.605,-0.201
42.102,-0.783,0.604,-0.199
42.112,-0.783,0.607,-0.201
42.122,-0.779,0.604,-0.199
42.132,-0.783,0.602,-0.201
42.142,-0.781,0.605,-0.197
42.152,-0.781,0.607,-0.199
42.162,-0.779,0.605,-0.197
42.172,-0.777,0.602,-0.199
42.182,-0.779,0.604,-0.199
42.192,-0.777,0.602,-0.201
42.202,-0.781,0.604,-0.203
42.212,-0.783,0.605,-0.205
42.222,-0.781,0.605,-0.201
42.231,-0.785,0.604,-0.205
42.241,-0.781,0.602,-0.203
42.251,-0.781,0.602,-0.201
42.261,-0.781,0.604,-0.207
42.271,-0.779,0.605,-0.205
42.281,-0.777,0.605,-0.201
42.291,-0.777,0.605,-0.203
42.301,-0.783,0.604,-0.205
42.311,-0.781,0.602,-0.203
42.321,-0.777,0.600,-0.203
42.331,-0.775,0.605,-0.205
42.341,-0.777,0.605,-0.199
42.351,-0.777,0.604,-0.203
42.361,-0.785,0.605,-0.203
42.371,-0.781,0.611,-0.207
42.380,-0.779,0.611,-0.203
42.390,-0.787,0.605,-0.203
42.400,-0.787,0.596,-0.205
42.410,-0.783,0.598,-0.203
42.420,-0.781,0.598,-0.203
42.430,-0.783,0.602,-0.203
42.440,-0.781,0.598,-0.201
42.450,-0.781,0.600,-0.203
42.460,-0.783,0.598,-0.205
42.470,-0.779,0.600,-0.201
42.480,-0.781,0.604,-0.199
42.490,-0.785,0.605,-0.203
42.500,-0.785,0.604,-0.199
42.510,-0.783,0.602,-0.201
42.519,-0.783,0.604,-0.203
42.529,-0.779,0.602,-0.203
42.539,-0.783,0.604,-0.203
42.549,-0.779,0.605,-0.203
42.559,-0.781,0.605,-0.205
42.569,-0.783,0.604,-0.201
42.579,-0.783,0.605,-0.205
42.589,-0.777,0.602,-0.203
42.599,-0.779,0.600,-0.203
42.609,-0.785,0.594,-0.207
42.619,-0.783,0.598,-0.199
42.629,-0.779,0.604,-0.203
42.639,-0.781,0.609,-0.205
42.649,-0.781,0.613,-0.203
42.659,-0.777,0.607,-0.203
42.668,-0.777,0.605,-0.203
42.678,-0.775,0.605,-0.201
42.688,-0.775,0.600,-0.201
42.698,-0.777,0.600,-0.203
42.708,-0.773,0.600,-0.203
42.718,-0.771,0.602,-0.199
42.728,-0.781,0.604,-0.203
42.738,-0.779,0.605,-0.205
42.748,-0.781,0.605,-0.201
42.758,-0.783,0.611,-0.203
42.768,-0.777,0.605,-0.203
42.778,-0.777,0.605,-0.203
42.788,-0.779,0.604,-0.205
42.798,-0.775,0.605,-0.201
42.808,-0.773,0.602,-0.205
42.817,-0.773,0.605,-0.203
42.827,-0.775,0.604,-0.205
42.837,-0.775,0.604,-0.209
42.847,-0.779,0.607,-0.205
42.857,-0.779,0.605,-0.209
42.867,-0.779,0.602,-0.209
42.877,-0.779,0.602,-0.211
42.887,-0.777,0.600,-0.207
42.897,-0.783,0.600,-0.209
42.907,-0.785,0.604,-0.209
42.917,-0.783,0.605,-0.207
42.927,-0.781,0.602,-0.209
42.937,-0.783,0.607,-0.209
42.947,-0.787,0.611,-0.215
42.957,-0.773,0.598,-0.205
42.966,-0.775,0.605,-0.209
42.976,-0.779,0.604,-0.203
42.986,-0.777,0.607,-0.207
42.996,-0.773,0.607,-0.203
43.006,-0.775,0.602,-0.209
43.016,-0.783,0.600,-0.207
43.026,-0.779,0.596,-0.203
43.036,-0.779,0.604,-0.207
43.046,-0.783,0.602,-0.205
43.056,-0.783,0.602,-0.205
43.066,-0.781,0.609,-0.209
43.076,-0.779,0.611,-0.207
43.086,-0.781,0.609,-0.209
43.096,-0.777,0.607,-0.207
43.105,-0.779,0.602,-0.207
43.115,-0.777,0.600,-0.205
43.125,-0.779,0.596,-0.205
43.135,-0.781,0.598,-0.209
43.145,-0.777,0.604,-0.205
43.155,-0.777,0.600,-0.207
43.165,-0.779,0.604,-0.209
43.175,-0.777,0.602,-0.209
43.185,-0.781,0.600,-0.205
43.195,-0.779,0.604,-0.209
43.205,-0.779,0.605,-0.207
43.215,-0.775,0.604,-0.207
43.225,-0.775,0.602,-0.207
43.235,-0.779,0.602,-0.207
43.245,-0.777,0.602,-0.205
43.254,-0.783,0.604,-0.207
43.264,-0.783,0.609,-0.209
43.274,-0.787,0.605,-0.205
43.284,-0.783,0.605,-0.205
43.294,-0.787,0.609,-0.211
43.304,-0.781,0.604,-0.205
43.314,-0.781,0.605,-0.211
43.324,-0.781,0.605,-0.209
43.334,-0.781,0.596,-0.205
43.344,-0.775,0.602,-0.209
43.354,-0.775,0.605,-0.211
43.364,-0.777,0.604,-0.211
43.374,-0.775,0.602,-0.207
43.384,-0.775,0.602,-0.207
43.394,-0.781,0.604,-0.205
43.403,-0.779,0.604,-0.207
43.413,-0.777,0.600,-0.209
43.423,-0.777,0.600,-0.209
43.433,-0.775,0.600,-0.205
43.443,-0.783,0.598,-0.213
43.453,-0.779,0.600,-0.209
43.463,-0.779,0.598,-0.213
43.473,-0.783,0.602,-0.211
43.483,-0.781,0.598,-0.213
43.493,-0.779,0.600,-0.211
43.503,-0.779,0.602,-0.211
43.513,-0.779,0.600,-0.213
43.523,-0.781,0.604,-0.211
43.533,-0.783,0.602,-0.213
43.542,-0.781,0.602,-0.211
43.552,-0.777,0.602,-0.213
43.562,-0.779,0.604,-0.209
43.572,-0.781,0.602,-0.211
43.582,-0.783,0.602,-0.213
43.592,-0.781,0.600,-0.211
43.602,-0.781,0.596,-0.211
43.612,-0.779,0.596,-0.209
43.622,-0.781,0.600,-0.209
43.632,-0.785,0.604,-0.209
43.642,-0.779,0.605,-0.209
43.652,-0.785,0.605,-0.209
43.662,-0.781,0.605,-0.207
43.672,-0.779,0.604,-0.213
43.682,-0.783,0.602,-0.209
43.691,-0.779,0.596,-0.207
43.701,-0.779,0.598,-0.209
43.711,-0.779,0.592,-0.209
43.721,-0.779,0.596,-0.207
43.731,-0.779,0.598,-0.207
43.741,-0.777,0.604,-0.213
43.751,-0.783,0.602,-0.213
43.761,-0.785,0.598,-0.211
43.771,-0.783,0.596,-0.213
43.781,-0.781,0.594,-0.207
43.791,-0.781,0.596,-0.209
43.801,-0.783,0.602,-0.209
43.811,-0.783,0.605,-0.211
43.821,-0.779,0.607,-0.209
43.831,-0.779,0.611,-0.209
43.840,-0.779,0.607,-0.209
43.850,-0.779,0.602,-0.213
43.860,-0.779,0.600,-0.209
43.870,-0.779,0.602,-0.211
43.880,-0.773,0.596,-0.207
43.890,-0.781,0.598,-0.209
43.900,-0.779,0.596,-0.209
43.910,-0.781,0.600,-0.209
43.920,-0.785,0.602,-0.209
43.930,-0.783,0.604,-0.211
43.940,-0.783,0.605,-0.215
43.950,-0.781,0.602,-0.209
43.960,-0.777,0.602,-0.211
43.970,-0.775,0.598,-0.213
43.980,-0.775,0.596,-0.211
43.989,-0.773,0.600,-0.213
43.999,-0.775,0.598,-0.209
44.009,-0.779,0.600,-0.215
44.019,-0.781,0.600,-0.215
44.029,-0.783,0.600,-0.213
44.039,-0.785,0.598,-0.211
44.049,-0.787,0.598,-0.215
44.059,-0.781,0.605,-0.213
44.069,-0.785,0.600,-0.213
44.079,-0.781,0.598,-0.211
44.089,-0.779,0.600,-0.215
44.099,-0.775,0.605,-0.215
44.109,-0.777,0.604,-0.215
44.119,-0.770,0.604,-0.219
44.128,-0.773,0.600,-0.213
44.138,-0.775,0.598,-0.217
44.148,-0.775,0.598,-0.217
44.158,-0.779,0.594,-0.217
44.168,-0.779,0.598,-0.213
44.178,-0.781,0.596,-0.215
44.188,-0.785,0.598,-0.217
44.198,-0.785,0.598,-0.211
44.208,-0.787,0.598,-0.215
44.218,-0.785,0.598,-0.213
44.228,-0.783,0.602,-0.215
44.238,-0.781,0.602,-0.217
44.248,-0.779,0.600,-0.215
44.258,-0.783,0.598,-0.215
44.268,-0.777,0.598,-0.213
44.277,-0.777,0.596,-0.215
44.287,-0.781,0.598,-0.217
44.297,-0.779,0.592,-0.217
44.307,-0.783,0.594,-0.215
44.317,-0.781,0.598,-0.217
44.327,-0.785,0.598,-0.217
44.337,-0.783,0.600,-0.215
44.347,-0.781,0.600,-0.215
44.357,-0.781,0.598,-0.215
44.367,-0.781,0.596,-0.215
44.377,-0.781,0.596,-0.217
44.387,-0.779,0.596,-0.215
44.397,-0.783,0.598,-0.213
44.407,-0.781,0.598,-0.217
44.417,-0.781,0.598,-0.215
44.426,-0.779,0.598,-0.215
44.436,-0.779,0.598,-0.215
44.446,-0.777,0.600,-0.217
44.456,-0.779,0.600,-0.215
44.466,-0.781,0.596,-0.217
44.476,-0.777,0.594,-0.215
44.486,-0.779,0.596,-0.215
44.496,-0.777,0.600,-0.215
44.506,-0.779,0.598,-0.215
44.516,-0.783,0.602,-0.215
44.526,-0.783,0.600,-0.213
44.536,-0.787,0.598,-0.215
44.546,-0.785,0.600,-0.219
44.556,-0.779,0.596,-0.215
44.565,-0.783,0.594,-0.221
44.575,-0.779,0.592,-0.217
44.585,-0.781,0.596,-0.217
44.595,-0.777,0.596,-0.217
44.605,-0.781,0.598,-0.217
44.615,-0.781,0.600,-0.221
44.625,-0.785,0.592,-0.219
44.635,-0.781,0.590,-0.219
44.645,-0.779,0.594,-0.217
44.655,-0.781,0.594,-0.215
44.665,-0.781,0.594,-0.215
44.675,-0.779,0.598,-0.217
44.685,-0.781,0.605,-0.219
44.695,-0.781,0.607,-0.221
44.705,-0.781,0.602,-0.219
44.714,-0.781,0.596,-0.223
44.724,-0.783,0.592,-0.221
44.734,-0.781,0.590,-0.219
44.744,-0.781,0.586,-0.219
44.754,-0.785,0.590,-0.217
44.764,-0.783,0.592,-0.217
44.774,-0.785,0.592,-0.217
44.784,-0.785,0.598,-0.217
44.794,-0.787,0.598,-0.217
44.804,-0.787,0.598,-0.217
44.814,-0.783,0.598,-0.215
44.824,-0.785,0.598,-0.211
44.834,-0.781,0.598,-0.215
44.844,-0.787,0.594,-0.215
44.854,-0.785,0.594,-0.217
44.863,-0.785,0.596,-0.213
44.873,-0.785,0.594,-0.217
44.883,-0.785,0.596,-0.217
44.893,-0.785,0.596,-0.215
44.903,-0.783,0.600,-0.215
44.913,-0.785,0.594,-0.217
44.923,-0.785,0.596,-0.213
44.933,-0.787,0.594,-0.211
44.943,-0.785,0.594,-0.215
44.953,-0.783,0.602,-0.213
44.963,-0.783,0.600,-0.213
44.973,-0.783,0.605,-0.211
44.983,-0.779,0.602,-0.215
44.993,-0.779,0.598,-0.213
45.003,-0.781,0.596,-0.215
45.012,-0.779,0.594,-0.211
45.022,-0.777,0.596,-0.211
45.032,-0.781,0.602,-0.213
45.042,-0.779,0.602,-0.213
45.052,-0.779,0.600,-0.211
45.062,-0.777,0.598,-0.213
45.072,-0.779,0.600,-0.211
45.082,-0.781,0.598,-0.213
45.092,-0.785,0.598,-0.213
45.102,-0.783,0.596,-0.213
45.112,-0.785,0.596,-0.219
45.122,-0.783,0.598,-0.215
45.132,-0.785,0.596,-0.215
45.142,-0.781,0.596,-0.217
45.151,-0.781,0.598,-0.215
45.161,-0.781,0.598,-0.217
45.171,-0.779,0.596,-0.219
45.181,-0.777,0.598,-0.215
45.191,-0.779,0.598,-0.219
45.201,-0.783,0.596,-0.219
45.211,-0.781,0.598,-0.217
45.221,-0.785,0.594,-0.219
45.231,-0.781,0.592,-0.215
45.241,-0.787,0.596,-0.217
45.251,-0.785,0.600,-0.215
45.261,-0.785,0.600,-0.217
45.271,-0.785,0.598,-0.213
45.281,-0.785,0.596,-0.215
45.291,-0.781,0.596,-0.215
45.300,-0.779,0.596,-0.217
45.310,-0.779,0.596,-0.215
45.320,-0.777,0.598,-0.215
45.330,-0.779,0.598,-0.215
45.340,-0.781,0.598,-0.213
45.350,-0.781,0.596,-0.215
45.360,-0.783,0.600,-0.215
45.370,-0.779,0.598,-0.215
45.380,-0.779,0.596,-0.213
45.390,-0.781,0.600,-0.215
45.400,-0.781,0.602,-0.215
45.410,-0.779,0.600,-0.215
45.420,-0.777,0.600,-0.215
45.430,-0.781,0.598,-0.213
45.440,-0.779,0.590,-0.215
45.449,-0.777,0.594,-0.211
45.459,-0.777,0.600,-0.213
45.469,-0.781,0.602,-0.213
45.479,-0.779,0.605,-0.215
45.489,-0.779,0.607,-0.213
45.499,-0.777,0.607,-0.217
45.509,-0.783,0.604,-0.215
45.519,-0.781,0.598,-0.213
45.529,-0.781,0.596,-0.213
45.539,-0.783,0.596,-0.217
45.549,-0.783,0.596,-0.215
45.559,-0.781,0.596,-0.217
45.569,-0.779,0.598,-0.213
45.579,-0.777,0.600,-0.217
45.588,-0.779,0.602,-0.215
45.598,-0.777,0.602,-0.215
45.608,-0.775,0.600,-0.213
45.618,-0.775,0.600,-0.217
45.628,-0.777,0.596,-0.213
45.638,-0.777,0.598,-0.213
45.648,-0.777,0.598,-0.215
45.658,-0.779,0.600,-0.211
45.668,-0.781,0.602,-0.213
45.678,-0.781,0.605,-0.215
45.688,-0.779,0.605,-0.215
45.698,-0.781,0.604,-0.221
45.708,-0.779,0.604,-0.221
45.718,-0.779,0.602,-0.217
45.728,-0.777,0.596,-0.213
45.737,-0.777,0.598,-0.209
45.747,-0.771,0.605,-0.215
45.757,-0.779,0.605,-0.213
45.767,-0.777,0.607,-0.217
45.777,-0.773,0.607,-0.215
45.787,-0.773,0.602,-0.215
45.797,-0.777,0.604,-0.211
45.807,-0.773,0.604,-0.211
45.817,-0.773,0.602,-0.213
45.827,-0.773,0.602,-0.215
45.837,-0.775,0.602,-0.209
45.847,-0.773,0.605,-0.215
45.857,-0.777,0.600,-0.213
45.867,-0.777,0.602,-0.215
45.877,-0.779,0.604,-0.215
45.886,-0.781,0.605,-0.213
45.896,-0.779,0.600,-0.217
45.906,-0.779,0.604,-0.213
45.916,-0.777,0.604,-0.217
45.926,-0.781,0.604,-0.215
45.936,-0.777,0.604,-0.217
45.946,-0.775,0.602,-0.217
45.956,-0.771,0.602,-0.217
45.966,-0.773,0.605,-0.217
45.976,-0.771,0.605,-0.217
45.986,-0.777,0.602,-0.219
45.996,-0.777,0.602,-0.221
46.006,-0.773,0.600,-0.217
46.016,-0.777,0.602,-0.217
46.026,-0.777,0.605,-0.217
46.035,-0.779,0.605,-0.219
46.045,-0.779,0.602,-0.217
46.055,-0.781,0.602,-0.213
46.065,-0.777,0.604,-0.217
46.075,-0.775,0.604,-0.215
46.085,-0.773,0.604,-0.217
46.095,-0.773,0.602,-0.213
46.105,-0.771,0.605,-0.213
46.115,-0.773,0.607,-0.215
46.125,-0.775,0.605,-0.213
46.135,-0.775,0.604,-0.215
46.145,-0.773,0.604,-0.217
46.155,-0.777,0.604,-0.211
46.165,-0.775,0.605,-0.213
46.174,-0.777,0.607,-0.211
46.184,-0.777,0.602,-0.215
46.194,-0.779,0.604,-0.217
46.204,-0.777,0.605,-0.217
46.214,-0.779,0.605,-0.215
46.224,-0.777,0.607,-0.211
46.234,-0.779,0.604,-0.215
46.244,-0.779,0.604,-0.213
46.254,-0.771,0.598,-0.215
46.264,-0.773,0.598,-0.211
46.274,-0.773,0.605,-0.213
46.284,-0.779,0.605,-0.209
46.294,-0.775,0.611,-0.213
46.304,-0.773,0.615,-0.213
46.314,-0.771,0.617,-0.217
46.323,-0.773,0.607,-0.215
46.333,-0.775,0.602,-0.215
46.343,-0.777,0.600,-0.215
46.353,-0.779,0.600,-0.215
46.363,-0.779,0.602,-0.215
46.373,-0.777,0.598,-0.217
46.383,-0.777,0.605,-0.213
46.393,-0.779,0.607,-0.215
46.403,-0.775,0.607,-0.213
46.413,-0.771,0.607,-0.213
46.423,-0.775,0.607,-0.217
46.433,-0.771,0.605,-0.215
46.443,-0.773,0.604,-0.213
46.453,-0.770,0.604,-0.215
46.463,-0.773,0.605,-0.211
46.472,-0.773,0.605,-0.215
46.482,-0.775,0.605,-0.213
46.492,-0.773,0.607,-0.215
46.502,-0.777,0.604,-0.215
46.512,-0.779,0.607,-0.213
46.522,-0.779,0.607,-0.215
46.532,-0.779,0.604,-0.217
46.542,-0.779,0.605,-0.215
46.552,-0.777,0.600,-0.213
46.562,-0.775,0.604,-0.215
46.572,-0.771,0.607,-0.215
46.582,-0.775,0.611,-0.217
46.592,-0.773,0.611,-0.217
46.602,-0.771,0.605,-0.215
46.611,-0.771,0.604,-0.215
46.621,-0.777,0.605,-0.213
46.631,-0.773,0.605,-0.215
46.641,-0.771,0.607,-0.217
46.651,-0.773,0.607,-0.215
46.661,-0.771,0.607,-0.213
46.671,-0.771,0.605,-0.215
46.681,-0.773,0.609,-0.213
46.691,-0.773,0.607,-0.215
46.701,-0.773,0.607,-0.213
46.711,-0.773,0.605,-0.213
46.721,-0.775,0.605,-0.213
46.731,-0.777,0.607,-0.209
46.741,-0.779,0.609,-0.213
46.751,-0.775,0.609,-0.217
46.760,-0.773,0.605,-0.213
46.770,-0.773,0.605,-0.215
46.780,-0.773,0.605,-0.217
46.790,-0.771,0.604,-0.213
46.800,-0.773,0.602,-0.213
46.810,-0.773,0.605,-0.217
46.820,-0.773,0.604,-0.213
46.830,-0.777,0.605,-0.215
46.840,-0.777,0.605,-0.211
46.850,-0.779,0.609,-0.213
46.860,-0.779,0.609,-0.215
46.870,-0.777,0.607,-0.217
46.880,-0.779,0.609,-0.215
46.890,-0.777,0.607,-0.215
46.900,-0.773,0.607,-0.211
46.909,-0.773,0.604,-0.211
46.919,-0.770,0.605,-0.213
46.929,-0.773,0.607,-0.211
46.939,-0.773,0.609,-0.211
46.949,-0.771,0.609,-0.211
46.959,-0.775,0.607,-0.211
46.969,-0.777,0.607,-0.211
46.979,-0.773,0.607,-0.211
46.989,-0.773,0.605,-0.211
46.999,-0.773,0.607,-0.211
47.009,-0.773,0.607,-0.211
47.019,-0.773,0.607,-0.215
47.029,-0.773,0.607,-0.213
47.039,-0.770,0.604,-0.213
47.049,-0.770,0.605,-0.215
47.058,-0.771,0.607,-0.215
47.068,-0.771,0.607,-0.215
47.078,-0.773,0.611,-0.217
47.088,-0.777,0.605,-0.213
47.098,-0.773,0.602,-0.213
47.108,-0.775,0.604,-0.213
47.118,-0.775,0.607,-0.213
47.128,-0.775,0.605,-0.213
47.138,-0.775,0.611,-0.215
47.148,-0.777,0.615,-0.213
47.158,-0.775,0.613,-0.219
47.168,-0.771,0.607,-0.215
47.178,-0.775,0.605,-0.219
47.188,-0.773,0.604,-0.211
47.197,-0.777,0.602,-0.215
47.207,-0.773,0.602,-0.213
47.217,-0.775,0.602,-0.215
47.227,-0.777,0.607,-0.215
47.237,-0.773,0.605,-0.217
47.247,-0.777,0.607,-0.215
47.257,-0.777,0.604,-0.211
47.267,-0.779,0.607,-0.213
47.277,-0.775,0.605,-0.215
47.287,-0.775,0.605,-0.213
47.297,-0.771,0.609,-0.209
47.307,-0.771,0.605,-0.209
47.317,-0.770,0.609,-0.213
47.327,-0.771,0.607,-0.211
47.337,-0.771,0.609,-0.213
47.346,-0.773,0.607,-0.215
47.356,-0.777,0.605,-0.211
47.366,-0.779,0.605,-0.213
47.376,-0.779,0.607,-0.215
47.386,-0.781,0.605,-0.215
47.396,-0.777,0.604,-0.209
47.406,-0.779,0.605,-0.205
47.416,-0.771,0.609,-0.209
47.426,-0.771,0.613,-0.213
47.436,-0.768,0.615,-0.215
47.446,-0.768,0.613,-0.215
47.456,-0.766,0.609,-0.215
47.466,-0.768,0.604,-0.213
47.476,-0.771,0.605,-0.215
47.486,-0.771,0.607,-0.215
47.495,-0.771,0.607,-0.215
47.505,-0.771,0.607,-0.213
47.515,-0.775,0.607,-0.215
47.525,-0.775,0.607,-0.215
47.535,-0.779,0.605,-0.213
47.545,-0.777,0.605,-0.219
47.555,-0.779,0.605,-0.215
47.565,-0.775,0.605,-0.213
47.575,-0.775,0.609,-0.215
47.585,-0.773,0.607,-0.215
47.595,-0.771,0.604,-0.211
47.605,-0.773,0.607,-0.215
47.615,-0.773,0.607,-0.215
47.625,-0.771,0.607,-0.211
47.634,-0.773,0.607,-0.213
47.644,-0.775,0.605,-0.215
47.654,-0.773,0.604,-0.217
47.664,-0.777,0.607,-0.211
47.674,-0.773,0.604,-0.213
47.684,-0.777,0.604,-0.215
47.694,-0.777,0.607,-0.217
47.704,-0.775,0.607,-0.213
47.714,-0.775,0.609,-0.213
47.724,-0.773,0.605,-0.217
47.734,-0.773,0.607,-0.213
47.744,-0.771,0.607,-0.213
47.754,-0.770,0.602,-0.213
47.764,-0.771,0.605,-0.213
47.774,-0.771,0.607,-0.215
47.783,-0.770,0.609,-0.211
47.793,-0.770,0.609,-0.213
47.803,-0.771,0.607,-0.215
47.813,-0.771,0.609,-0.215
47.823,-0.773,0.605,-0.213
47.833,-0.771,0.609,-0.215
47.843,-0.773,0.605,-0.213
47.853,-0.773,0.605,-0.215
47.863,-0.773,0.607,-0.213
47.873,-0.773,0.607,-0.211
47.883,-0.771,0.607,-0.209
47.893,-0.771,0.605,-0.213
47.903,-0.771,0.607,-0.213
47.913,-0.773,0.605,-0.217
47.923,-0.775,0.604,-0.219
47.932,-0.777,0.602,-0.215
47.942,-0.779,0.602,-0.215
47.952,-0.779,0.602,-0.215
47.962,-0.777,0.605,-0.215
47.972,-0.777,0.607,-0.215
47.982,-0.775,0.607,-0.215
47.992,-0.777,0.609,-0.215
48.002,-0.777,0.604,-0.213
48.012,-0.771,0.600,-0.211
48.022,-0.771,0.604,-0.213
48.032,-0.773,0.604,-0.211
48.042,-0.775,0.602,-0.213
48.052,-0.777,0.609,-0.213
48.062,-0.775,0.615,-0.215
48.072,-0.777,0.611,-0.215
48.081,-0.777,0.607,-0.217
48.091,-0.775,0.605,-0.209
48.101,-0.775,0.602,-0.211
48.111,-0.775,0.607,-0.213
48.121,-0.775,0.607,-0.213
48.131,-0.773,0.605,-0.213
48.141,-0.771,0.605,-0.215
48.151,-0.771,0.604,-0.215
48.161,-0.771,0.604,-0.213
48.171,-0.775,0.605,-0.217
48.181,-0.777,0.605,-0.211
48.191,-0.773,0.605,-0.215
48.201,-0.773,0.605,-0.211
48.211,-0.773,0.607,-0.213
48.220,-0.771,0.607,-0.213
48.230,-0.773,0.609,-0.213
48.240,-0.771,0.607,-0.215
48.250,-0.771,0.607,-0.213
48.260,-0.771,0.609,-0.211
48.270,-0.773,0.607,-0.213
48.280,-0.777,0.607,-0.215
48.290,-0.777,0.607,-0.217
48.300,-0.777,0.605,-0.213
48.310,-0.781,0.604,-0.213
48.320,-0.779,0.600,-0.211
48.330,-0.779,0.607,-0.213
48.340,-0.775,0.613,-0.217
48.350,-0.773,0.611,-0.217
48.360,-0.771,0.607,-0.213
48.369,-0.770,0.605,-0.213
48.379,-0.771,0.604,-0.213
48.389,-0.770,0.605,-0.215
48.399,-0.771,0.604,-0.215
48.409,-0.770,0.607,-0.213
48.419,-0.771,0.607,-0.213
48.429,-0.771,0.609,-0.213
48.439,-0.777,0.607,-0.213
48.449,-0.777,0.607,-0.217
48.459,-0.777,0.607,-0.211
48.469,-0.777,0.605,-0.215
48.479,-0.779,0.602,-0.215
48.489,-0.777,0.602,-0.217
48.499,-0.777,0.604,-0.217
48.509,-0.775,0.605,-0.215
48.518,-0.775,0.604,-0.215
48.528,-0.773,0.605,-0.215
48.538,-0.773,0.604,-0.217
48.548,-0.773,0.607,-0.215
48.558,-0.770,0.605,-0.213
48.568,-0.771,0.607,-0.217
48.578,-0.775,0.609,-0.219
48.588,-0.773,0.607,-0.217
48.598,-0.773,0.611,-0.217
48.608,-0.771,0.607,-0.215
48.618,-0.773,0.607,-0.213
48.628,-0.777,0.605,-0.213
48.638,-0.775,0.604,-0.215
48.648,-0.773,0.605,-0.213
48.657,-0.777,0.605,-0.215
48.667,-0.775,0.605,-0.211
48.677,-0.775,0.604,-0.211
48.687,-0.775,0.605,-0.209
48.697,-0.773,0.607,-0.211
48.707,-0.771,0.607,-0.209
48.717,-0.773,0.604,-0.211
48.727,-0.770,0.605,-0.211
48.737,-0.770,0.609,-0.215
48.747,-0.773,0.605,-0.215
48.757,-0.775,0.609,-0.215
48.767,-0.775,0.607,-0.211
48.777,-0.773,0.605,-0.213
48.787,-0.777,0.604,-0.211
48.797,-0.775,0.604,-0.213
48.806,-0.777,0.602,-0.211
48.816,-0.777,0.600,-0.211
48.826,-0.779,0.604,-0.213
48.836,-0.781,0.605,-0.211
48.846,-0.779,0.609,-0.209
48.856,-0.775,0.605,-0.209
48.866,-0.777,0.607,-0.211
48.876,-0.775,0.609,-0.211
48.886,-0.773,0.613,-0.213
48.896,-0.771,0.609,-0.211
48.906,-0.775,0.607,-0.215
48.916,-0.775,0.600,-0.211
48.926,-0.773,0.596,-0.213
48.936,-0.773,0.604,-0.209
48.946,-0.773,0.605,-0.211
48.955,-0.777,0.604,-0.211
48.965,-0.777,0.613,-0.213
48.975,-0.777,0.617,-0.219
48.985,-0.777,0.613,-0.213
48.995,-0.777,0.607,-0.215
49.005,-0.777,0.602,-0.213
49.015,-0.775,0.602,-0.213
49.025,-0.773,0.602,-0.213
49.035,-0.773,0.598,-0.215
49.045,-0.775,0.602,-0.217
49.055,-0.777,0.604,-0.213
49.065,-0.775,0.605,-0.215
49.075,-0.777,0.605,-0.215
49.085,-0.779,0.604,-0.213
49.095,-0.779,0.607,-0.213
49.104,-0.775,0.609,-0.213
49.114,-0.773,0.604,-0.211
49.124,-0.771,0.605,-0.213
49.134,-0.768,0.605,-0.207
49.144,-0.768,0.604,-0.213
49.154,-0.770,0.605,-0.209
49.164,-0.770,0.607,-0.215
49.174,-0.773,0.605,-0.211
49.184,-0.773,0.609,-0.213
49.194,-0.781,0.605,-0.213
49.204,-0.779,0.611,-0.213
49.214,-0.779,0.605,-0.215
49.224,-0.781,0.604,-0.211
49.234,-0.781,0.604,-0.209
