df_hash,22ZHK4.U9L6MD
device,HZ2X61
project_hash,29R7
project_name,istanbul_aydin_university
person_hash,29R7.GEJP
person_label,V17-2
date_time_start,2025-05-23_10-04-38.748000_+03
date_time_start_unix,1747983878.748
date_time_end,2025-05-23_10-13-21.900000_+03
length_difference_noticed,no

time,acc_x,acc_y,acc_z
4.425,-0.307,0.930,0.080
4.435,-0.307,0.928,0.080
4.445,-0.307,0.928,0.080
4.454,-0.307,0.930,0.082
4.464,-0.311,0.932,0.080
4.474,-0.309,0.930,0.080
4.484,-0.307,0.930,0.082
4.494,-0.307,0.932,0.078
4.504,-0.309,0.930,0.082
4.514,-0.309,0.932,0.080
4.524,-0.311,0.928,0.082
4.534,-0.309,0.930,0.080
4.544,-0.311,0.928,0.080
4.554,-0.307,0.930,0.084
4.564,-0.311,0.932,0.082
4.574,-0.311,0.930,0.080
4.584,-0.309,0.928,0.080
4.593,-0.311,0.928,0.080
4.603,-0.311,0.928,0.082
4.613,-0.311,0.930,0.080
4.623,-0.312,0.930,0.078
4.633,-0.312,0.932,0.078
4.643,-0.314,0.930,0.082
4.653,-0.314,0.932,0.080
4.663,-0.314,0.928,0.076
4.673,-0.312,0.928,0.076
4.683,-0.312,0.932,0.078
4.693,-0.312,0.930,0.080
4.703,-0.314,0.930,0.080
4.713,-0.314,0.930,0.080
4.723,-0.311,0.930,0.080
4.733,-0.311,0.928,0.078
4.742,-0.311,0.926,0.080
4.752,-0.309,0.930,0.080
4.762,-0.312,0.930,0.078
4.772,-0.311,0.928,0.074
4.782,-0.311,0.930,0.076
4.792,-0.314,0.928,0.074
4.802,-0.312,0.932,0.072
4.812,-0.314,0.932,0.076
4.822,-0.312,0.932,0.076
4.832,-0.311,0.932,0.074
4.842,-0.312,0.930,0.072
4.852,-0.312,0.936,0.076
4.862,-0.312,0.934,0.078
4.872,-0.311,0.930,0.076
4.882,-0.311,0.928,0.076
4.891,-0.312,0.930,0.074
4.901,-0.309,0.926,0.072
4.911,-0.311,0.928,0.074
4.921,-0.309,0.932,0.074
4.931,-0.311,0.932,0.076
4.941,-0.309,0.932,0.074
4.951,-0.314,0.930,0.072
4.961,-0.314,0.928,0.072
4.971,-0.316,0.928,0.072
4.981,-0.318,0.930,0.074
4.991,-0.320,0.936,0.070
5.001,-0.318,0.930,0.072
5.011,-0.316,0.930,0.072
5.021,-0.314,0.928,0.072
5.031,-0.318,0.926,0.070
5.040,-0.316,0.924,0.070
5.050,-0.314,0.928,0.070
5.060,-0.314,0.928,0.072
5.070,-0.314,0.926,0.074
5.080,-0.314,0.930,0.072
5.090,-0.312,0.928,0.070
5.100,-0.314,0.932,0.074
5.110,-0.314,0.930,0.070
5.120,-0.316,0.928,0.068
5.130,-0.312,0.926,0.070
5.140,-0.314,0.930,0.072
5.150,-0.318,0.930,0.070
5.160,-0.318,0.930,0.070
5.170,-0.318,0.926,0.074
5.179,-0.316,0.932,0.068
5.189,-0.311,0.934,0.072
5.199,-0.311,0.932,0.070
5.209,-0.312,0.928,0.068
5.219,-0.312,0.930,0.070
5.229,-0.311,0.936,0.072
5.239,-0.314,0.951,0.076
5.249,-0.311,0.949,0.078
5.259,-0.314,0.945,0.074
5.269,-0.307,0.945,0.072
5.279,-0.303,0.932,0.072
5.289,-0.309,0.932,0.068
5.299,-0.303,0.930,0.072
5.309,-0.305,0.932,0.078
5.319,-0.303,0.934,0.076
5.328,-0.309,0.936,0.080
5.338,-0.309,0.930,0.076
5.348,-0.314,0.920,0.076
5.358,-0.314,0.920,0.076
5.368,-0.314,0.918,0.076
5.378,-0.314,0.918,0.074
5.388,-0.320,0.924,0.080
5.398,-0.324,0.930,0.076
5.408,-0.322,0.928,0.078
5.418,-0.322,0.928,0.078
5.428,-0.324,0.930,0.082
5.438,-0.324,0.930,0.080
5.448,-0.324,0.934,0.084
5.458,-0.324,0.932,0.084
5.468,-0.328,0.926,0.082
5.477,-0.326,0.926,0.082
5.487,-0.326,0.928,0.086
5.497,-0.326,0.926,0.084
5.507,-0.330,0.928,0.084
5.517,-0.328,0.926,0.090
5.527,-0.332,0.924,0.088
5.537,-0.334,0.922,0.086
5.547,-0.334,0.922,0.088
5.557,-0.338,0.914,0.088
5.567,-0.340,0.918,0.088
5.577,-0.342,0.920,0.090
5.587,-0.342,0.918,0.090
5.597,-0.344,0.914,0.090
5.607,-0.346,0.916,0.090
5.616,-0.348,0.912,0.090
5.626,-0.352,0.914,0.088
5.636,-0.354,0.910,0.096
5.646,-0.357,0.910,0.092
5.656,-0.359,0.908,0.094
5.666,-0.359,0.908,0.096
5.676,-0.361,0.908,0.096
5.686,-0.361,0.912,0.098
5.696,-0.361,0.908,0.100
5.706,-0.359,0.904,0.098
5.716,-0.359,0.910,0.098
5.726,-0.359,0.910,0.100
5.736,-0.359,0.912,0.100
5.746,-0.359,0.906,0.104
5.756,-0.354,0.908,0.098
5.765,-0.355,0.910,0.102
5.775,-0.359,0.910,0.102
5.785,-0.355,0.910,0.104
5.795,-0.354,0.912,0.102
5.805,-0.354,0.912,0.100
5.815,-0.357,0.914,0.102
5.825,-0.352,0.912,0.098
5.835,-0.352,0.912,0.100
5.845,-0.355,0.914,0.094
5.855,-0.361,0.908,0.098
5.865,-0.359,0.912,0.094
5.875,-0.357,0.912,0.096
5.885,-0.355,0.912,0.098
5.895,-0.355,0.910,0.092
5.905,-0.354,0.916,0.094
5.914,-0.352,0.916,0.098
5.924,-0.350,0.920,0.098
5.934,-0.348,0.920,0.094
5.944,-0.346,0.920,0.090
5.954,-0.350,0.920,0.092
5.964,-0.348,0.920,0.090
5.974,-0.348,0.920,0.092
5.984,-0.346,0.920,0.090
5.994,-0.346,0.922,0.090
6.004,-0.346,0.924,0.090
6.014,-0.346,0.920,0.086
6.024,-0.340,0.920,0.088
6.034,-0.340,0.916,0.086
6.044,-0.340,0.920,0.086
6.054,-0.340,0.924,0.090
6.063,-0.338,0.920,0.088
6.073,-0.342,0.920,0.084
6.083,-0.340,0.918,0.088
6.093,-0.346,0.922,0.086
6.103,-0.344,0.922,0.082
6.113,-0.348,0.920,0.082
6.123,-0.348,0.922,0.084
6.133,-0.348,0.918,0.080
6.143,-0.346,0.920,0.082
6.153,-0.350,0.916,0.082
6.163,-0.344,0.916,0.086
6.173,-0.346,0.920,0.082
6.183,-0.346,0.922,0.084
6.193,-0.344,0.918,0.076
6.202,-0.344,0.916,0.076
6.212,-0.342,0.920,0.080
6.222,-0.344,0.920,0.078
6.232,-0.346,0.920,0.082
6.242,-0.344,0.924,0.080
6.252,-0.344,0.926,0.078
6.262,-0.340,0.928,0.078
6.272,-0.342,0.926,0.080
6.282,-0.340,0.924,0.080
6.292,-0.340,0.922,0.080
6.302,-0.340,0.924,0.078
6.312,-0.336,0.926,0.082
6.322,-0.336,0.920,0.080
6.332,-0.342,0.922,0.080
6.342,-0.338,0.920,0.082
6.351,-0.342,0.920,0.076
6.361,-0.342,0.922,0.080
6.371,-0.346,0.918,0.080
6.381,-0.350,0.920,0.078
6.391,-0.350,0.920,0.080
6.401,-0.348,0.920,0.076
6.411,-0.348,0.918,0.078
6.421,-0.352,0.916,0.082
6.431,-0.352,0.918,0.074
6.441,-0.355,0.918,0.080
6.451,-0.348,0.916,0.080
6.461,-0.354,0.918,0.082
6.471,-0.350,0.918,0.080
6.481,-0.350,0.920,0.086
6.491,-0.352,0.918,0.080
6.500,-0.352,0.920,0.084
6.510,-0.352,0.920,0.082
6.520,-0.350,0.918,0.086
6.530,-0.350,0.918,0.082
6.540,-0.350,0.920,0.084
6.550,-0.352,0.916,0.084
6.560,-0.350,0.918,0.082
6.570,-0.352,0.914,0.084
6.580,-0.352,0.916,0.086
6.590,-0.348,0.916,0.088
6.600,-0.350,0.918,0.086
6.610,-0.352,0.920,0.090
6.620,-0.350,0.920,0.088
6.630,-0.350,0.918,0.084
6.639,-0.348,0.918,0.090
6.649,-0.348,0.916,0.088
6.659,-0.346,0.918,0.092
6.669,-0.346,0.918,0.088
6.679,-0.342,0.918,0.088
6.689,-0.346,0.916,0.090
6.699,-0.346,0.918,0.090
6.709,-0.344,0.920,0.084
6.719,-0.342,0.920,0.084
6.729,-0.340,0.922,0.086
6.739,-0.342,0.918,0.084
6.749,-0.338,0.920,0.084
6.759,-0.340,0.924,0.084
6.769,-0.338,0.922,0.082
6.779,-0.338,0.920,0.082
6.788,-0.340,0.922,0.080
6.798,-0.336,0.918,0.084
6.808,-0.332,0.916,0.082
6.818,-0.334,0.918,0.082
6.828,-0.334,0.924,0.080
6.838,-0.336,0.922,0.082
6.848,-0.336,0.924,0.082
6.858,-0.336,0.926,0.084
6.868,-0.338,0.928,0.078
6.878,-0.336,0.926,0.076
6.888,-0.340,0.926,0.078
6.898,-0.338,0.920,0.076
6.908,-0.338,0.924,0.078
6.918,-0.336,0.924,0.078
6.928,-0.332,0.922,0.082
6.937,-0.334,0.922,0.080
6.947,-0.336,0.920,0.076
6.957,-0.334,0.918,0.078
6.967,-0.338,0.916,0.078
6.977,-0.332,0.916,0.074
6.987,-0.334,0.920,0.078
6.997,-0.334,0.916,0.076
7.007,-0.334,0.922,0.076
7.017,-0.336,0.924,0.076
7.027,-0.336,0.926,0.078
7.037,-0.338,0.926,0.076
7.047,-0.338,0.926,0.076
7.057,-0.336,0.926,0.072
7.067,-0.336,0.928,0.078
7.077,-0.332,0.922,0.070
7.086,-0.334,0.922,0.078
7.096,-0.334,0.926,0.074
7.106,-0.332,0.926,0.078
7.116,-0.330,0.930,0.078
7.126,-0.326,0.918,0.074
7.136,-0.328,0.920,0.070
7.146,-0.330,0.922,0.070
7.156,-0.330,0.922,0.070
7.166,-0.330,0.926,0.072
7.176,-0.328,0.928,0.076
7.186,-0.326,0.930,0.074
7.196,-0.330,0.926,0.072
7.206,-0.330,0.928,0.072
7.216,-0.332,0.924,0.068
7.225,-0.330,0.926,0.072
7.235,-0.330,0.928,0.070
7.245,-0.328,0.926,0.070
7.255,-0.332,0.924,0.074
7.265,-0.336,0.926,0.070
7.275,-0.330,0.928,0.072
7.285,-0.330,0.924,0.070
7.295,-0.332,0.922,0.072
7.305,-0.330,0.924,0.072
7.315,-0.328,0.926,0.072
7.325,-0.334,0.924,0.072
7.335,-0.332,0.930,0.072
7.345,-0.326,0.926,0.072
7.355,-0.326,0.922,0.072
7.365,-0.326,0.924,0.076
7.374,-0.324,0.924,0.072
7.384,-0.324,0.920,0.074
7.394,-0.328,0.922,0.074
7.404,-0.328,0.926,0.072
7.414,-0.332,0.922,0.070
7.424,-0.326,0.922,0.072
7.434,-0.330,0.924,0.074
7.444,-0.334,0.924,0.074
7.454,-0.332,0.924,0.074
7.464,-0.332,0.924,0.076
7.474,-0.336,0.924,0.072
7.484,-0.334,0.922,0.072
7.494,-0.334,0.924,0.074
7.504,-0.332,0.924,0.072
7.514,-0.330,0.922,0.074
7.523,-0.334,0.926,0.070
7.533,-0.332,0.924,0.072
7.543,-0.332,0.922,0.074
7.553,-0.332,0.926,0.072
7.563,-0.334,0.924,0.070
7.573,-0.334,0.924,0.074
7.583,-0.332,0.924,0.070
7.593,-0.332,0.924,0.070
7.603,-0.332,0.926,0.070
7.613,-0.332,0.926,0.074
7.623,-0.332,0.924,0.070
7.633,-0.330,0.922,0.074
7.643,-0.330,0.924,0.074
7.653,-0.330,0.926,0.074
7.662,-0.330,0.924,0.072
7.672,-0.330,0.924,0.072
7.682,-0.330,0.920,0.078
7.692,-0.332,0.924,0.074
7.702,-0.332,0.920,0.074
7.712,-0.332,0.924,0.070
7.722,-0.332,0.924,0.074
7.732,-0.332,0.924,0.074
7.742,-0.332,0.930,0.076
7.752,-0.334,0.928,0.072
7.762,-0.334,0.924,0.074
7.772,-0.332,0.922,0.072
7.782,-0.336,0.926,0.074
7.792,-0.334,0.926,0.074
7.802,-0.332,0.926,0.074
7.811,-0.330,0.928,0.076
7.821,-0.324,0.926,0.072
7.831,-0.328,0.926,0.072
7.841,-0.328,0.920,0.070
7.851,-0.330,0.922,0.070
7.861,-0.328,0.922,0.072
7.871,-0.330,0.926,0.074
7.881,-0.330,0.922,0.080
7.891,-0.330,0.924,0.076
7.901,-0.334,0.924,0.074
7.911,-0.332,0.920,0.072
7.921,-0.336,0.920,0.074
7.931,-0.334,0.920,0.074
7.941,-0.334,0.920,0.072
7.951,-0.336,0.922,0.074
7.960,-0.332,0.922,0.072
7.970,-0.338,0.922,0.076
7.980,-0.336,0.924,0.074
7.990,-0.338,0.922,0.076
8.000,-0.334,0.922,0.074
8.010,-0.336,0.920,0.076
8.020,-0.334,0.924,0.074
8.030,-0.334,0.922,0.074
8.040,-0.336,0.926,0.074
8.050,-0.334,0.926,0.076
8.060,-0.332,0.926,0.078
8.070,-0.330,0.924,0.076
8.080,-0.326,0.928,0.076
8.090,-0.324,0.920,0.074
8.100,-0.324,0.918,0.070
8.109,-0.326,0.922,0.070
8.119,-0.328,0.924,0.074
8.129,-0.328,0.928,0.074
8.139,-0.330,0.930,0.076
8.149,-0.324,0.930,0.076
8.159,-0.324,0.924,0.074
8.169,-0.324,0.926,0.074
8.179,-0.326,0.926,0.074
8.189,-0.326,0.928,0.074
8.199,-0.324,0.924,0.076
8.209,-0.330,0.926,0.072
8.219,-0.326,0.930,0.078
8.229,-0.322,0.924,0.074
8.239,-0.326,0.922,0.076
8.248,-0.326,0.918,0.068
8.258,-0.328,0.924,0.074
8.268,-0.326,0.926,0.074
8.278,-0.324,0.926,0.072
8.288,-0.330,0.926,0.074
8.298,-0.322,0.924,0.074
8.308,-0.326,0.926,0.072
8.318,-0.324,0.926,0.074
8.328,-0.318,0.926,0.074
8.338,-0.322,0.926,0.070
8.348,-0.324,0.928,0.074
8.358,-0.322,0.926,0.076
8.368,-0.320,0.928,0.076
8.378,-0.322,0.926,0.072
8.388,-0.320,0.928,0.076
8.397,-0.320,0.926,0.074
8.407,-0.320,0.928,0.072
8.417,-0.322,0.928,0.074
8.427,-0.320,0.928,0.076
8.437,-0.320,0.926,0.074
8.447,-0.322,0.926,0.070
8.457,-0.324,0.926,0.074
8.467,-0.324,0.926,0.070
8.477,-0.324,0.924,0.074
8.487,-0.326,0.928,0.074
8.497,-0.322,0.928,0.074
8.507,-0.322,0.928,0.072
8.517,-0.320,0.928,0.072
8.527,-0.322,0.930,0.076
8.537,-0.322,0.928,0.072
8.546,-0.320,0.926,0.076
8.556,-0.318,0.928,0.074
8.566,-0.318,0.928,0.072
8.576,-0.320,0.928,0.070
8.586,-0.318,0.930,0.072
8.596,-0.318,0.928,0.072
8.606,-0.316,0.928,0.072
8.616,-0.320,0.928,0.072
8.626,-0.318,0.926,0.072
8.636,-0.318,0.924,0.072
8.646,-0.318,0.928,0.074
8.656,-0.318,0.932,0.074
8.666,-0.318,0.930,0.074
8.676,-0.320,0.930,0.072
8.685,-0.322,0.930,0.072
8.695,-0.320,0.928,0.070
8.705,-0.318,0.928,0.070
8.715,-0.314,0.930,0.072
8.725,-0.314,0.932,0.074
8.735,-0.318,0.928,0.072
8.745,-0.316,0.932,0.072
8.755,-0.316,0.930,0.076
8.765,-0.316,0.926,0.074
8.775,-0.316,0.930,0.074
8.785,-0.312,0.930,0.076
8.795,-0.316,0.928,0.074
8.805,-0.316,0.924,0.076
8.815,-0.314,0.932,0.078
8.825,-0.314,0.936,0.076
8.834,-0.314,0.934,0.074
8.844,-0.318,0.926,0.072
8.854,-0.318,0.928,0.072
8.864,-0.320,0.926,0.072
8.874,-0.324,0.930,0.074
8.884,-0.320,0.932,0.074
8.894,-0.324,0.932,0.074
8.904,-0.320,0.932,0.072
8.914,-0.318,0.930,0.070
8.924,-0.318,0.928,0.072
8.934,-0.316,0.926,0.072
8.944,-0.316,0.926,0.074
8.954,-0.314,0.924,0.080
8.964,-0.316,0.926,0.076
8.974,-0.316,0.928,0.076
8.983,-0.316,0.928,0.078
8.993,-0.316,0.932,0.076
9.003,-0.318,0.928,0.078
9.013,-0.320,0.932,0.080
9.023,-0.318,0.928,0.076
9.033,-0.320,0.928,0.074
9.043,-0.318,0.926,0.078
9.053,-0.318,0.930,0.080
9.063,-0.318,0.928,0.080
9.073,-0.316,0.930,0.080
9.083,-0.314,0.930,0.082
9.093,-0.314,0.928,0.080
9.103,-0.312,0.922,0.074
9.113,-0.312,0.926,0.080
9.123,-0.314,0.928,0.080
9.132,-0.314,0.930,0.080
9.142,-0.309,0.932,0.082
9.152,-0.312,0.934,0.086
9.162,-0.311,0.930,0.082
9.172,-0.314,0.934,0.080
9.182,-0.312,0.932,0.082
9.192,-0.312,0.930,0.078
9.202,-0.314,0.928,0.084
9.212,-0.312,0.932,0.084
9.222,-0.318,0.928,0.080
9.232,-0.316,0.928,0.084
9.242,-0.318,0.926,0.080
9.252,-0.314,0.928,0.082
9.262,-0.314,0.928,0.080
9.271,-0.314,0.926,0.080
9.281,-0.318,0.928,0.080
9.291,-0.318,0.932,0.084
9.301,-0.316,0.928,0.084
9.311,-0.318,0.928,0.082
9.321,-0.316,0.932,0.082
9.331,-0.314,0.928,0.082
9.341,-0.314,0.928,0.084
9.351,-0.314,0.930,0.082
9.361,-0.312,0.930,0.084
9.371,-0.312,0.930,0.086
9.381,-0.314,0.928,0.084
9.391,-0.314,0.928,0.084
9.401,-0.311,0.928,0.084
9.411,-0.314,0.928,0.088
9.420,-0.316,0.928,0.084
9.430,-0.312,0.930,0.088
9.440,-0.314,0.926,0.088
9.450,-0.316,0.928,0.088
9.460,-0.314,0.926,0.086
9.470,-0.318,0.928,0.088
9.480,-0.316,0.926,0.088
9.490,-0.318,0.928,0.088
9.500,-0.318,0.926,0.088
9.510,-0.320,0.928,0.090
9.520,-0.320,0.926,0.092
9.530,-0.320,0.926,0.086
9.540,-0.318,0.928,0.088
9.550,-0.318,0.926,0.088
9.560,-0.316,0.928,0.088
9.569,-0.318,0.924,0.084
9.579,-0.316,0.926,0.088
9.589,-0.318,0.926,0.088
9.599,-0.316,0.930,0.086
9.609,-0.316,0.930,0.090
9.619,-0.314,0.928,0.086
9.629,-0.316,0.926,0.088
9.639,-0.314,0.930,0.086
9.649,-0.316,0.924,0.090
9.659,-0.318,0.928,0.084
9.669,-0.312,0.932,0.088
9.679,-0.316,0.926,0.086
9.689,-0.318,0.930,0.092
9.699,-0.316,0.930,0.084
9.708,-0.314,0.930,0.092
9.718,-0.314,0.930,0.086
9.728,-0.318,0.930,0.090
9.738,-0.316,0.934,0.088
9.748,-0.312,0.926,0.088
9.758,-0.314,0.922,0.088
9.768,-0.312,0.924,0.088
9.778,-0.309,0.928,0.086
9.788,-0.314,0.926,0.086
9.798,-0.314,0.928,0.086
9.808,-0.316,0.934,0.090
9.818,-0.316,0.936,0.090
9.828,-0.314,0.930,0.084
9.838,-0.316,0.930,0.084
9.848,-0.316,0.930,0.086
9.857,-0.312,0.932,0.084
9.867,-0.318,0.932,0.088
9.877,-0.314,0.934,0.092
9.887,-0.312,0.928,0.090
9.897,-0.314,0.924,0.086
9.907,-0.316,0.924,0.086
9.917,-0.312,0.918,0.084
9.927,-0.312,0.922,0.088
9.937,-0.314,0.922,0.086
9.947,-0.316,0.928,0.088
9.957,-0.320,0.926,0.084
9.967,-0.316,0.930,0.088
9.977,-0.318,0.928,0.090
9.987,-0.320,0.932,0.084
9.997,-0.320,0.932,0.084
10.006,-0.318,0.930,0.084
10.016,-0.316,0.928,0.086
10.026,-0.314,0.928,0.086
10.036,-0.318,0.928,0.086
10.046,-0.314,0.926,0.088
10.056,-0.312,0.930,0.086
10.066,-0.311,0.932,0.090
10.076,-0.314,0.926,0.082
10.086,-0.312,0.922,0.084
10.096,-0.309,0.924,0.084
10.106,-0.314,0.930,0.084
10.116,-0.312,0.930,0.086
10.126,-0.311,0.932,0.088
10.136,-0.312,0.934,0.088
10.146,-0.312,0.934,0.086
10.155,-0.312,0.932,0.082
10.165,-0.309,0.930,0.084
10.175,-0.309,0.930,0.088
10.185,-0.311,0.932,0.082
10.195,-0.307,0.932,0.088
10.205,-0.307,0.932,0.086
10.215,-0.311,0.928,0.086
10.225,-0.307,0.928,0.086
10.235,-0.309,0.932,0.086
10.245,-0.311,0.926,0.084
10.255,-0.309,0.932,0.082
10.265,-0.311,0.930,0.082
10.275,-0.311,0.930,0.080
10.285,-0.311,0.932,0.076
10.294,-0.311,0.932,0.080
10.304,-0.312,0.934,0.080
10.314,-0.309,0.934,0.078
10.324,-0.311,0.930,0.084
10.334,-0.307,0.934,0.080
10.344,-0.307,0.934,0.080
10.354,-0.307,0.934,0.078
10.364,-0.307,0.934,0.080
10.374,-0.307,0.934,0.082
10.384,-0.307,0.932,0.082
10.394,-0.309,0.930,0.078
10.404,-0.309,0.930,0.084
10.414,-0.305,0.932,0.080
10.424,-0.309,0.932,0.080
10.434,-0.309,0.930,0.082
10.443,-0.309,0.932,0.080
10.453,-0.311,0.930,0.082
10.463,-0.311,0.930,0.078
10.473,-0.309,0.928,0.080
10.483,-0.311,0.926,0.080
10.493,-0.312,0.930,0.080
10.503,-0.312,0.932,0.080
10.513,-0.312,0.930,0.080
10.523,-0.309,0.928,0.084
10.533,-0.311,0.932,0.080
10.543,-0.311,0.930,0.082
10.553,-0.309,0.928,0.082
10.563,-0.307,0.930,0.078
10.573,-0.311,0.926,0.086
10.583,-0.311,0.930,0.080
10.592,-0.311,0.932,0.080
10.602,-0.311,0.932,0.082
10.612,-0.311,0.932,0.076
10.622,-0.311,0.930,0.082
10.632,-0.309,0.930,0.080
10.642,-0.309,0.932,0.080
10.652,-0.307,0.932,0.084
10.662,-0.309,0.932,0.080
10.672,-0.307,0.930,0.084
10.682,-0.309,0.930,0.078
10.692,-0.305,0.928,0.084
10.702,-0.307,0.930,0.082
10.712,-0.305,0.930,0.080
10.722,-0.307,0.932,0.082
10.731,-0.305,0.934,0.086
10.741,-0.307,0.934,0.082
10.751,-0.307,0.932,0.078
10.761,-0.311,0.930,0.076
10.771,-0.311,0.930,0.076
10.781,-0.312,0.928,0.078
10.791,-0.312,0.934,0.082
10.801,-0.312,0.936,0.080
10.811,-0.311,0.932,0.080
10.821,-0.312,0.930,0.080
10.831,-0.311,0.926,0.078
10.841,-0.311,0.926,0.076
10.851,-0.311,0.928,0.076
10.861,-0.307,0.928,0.080
10.871,-0.309,0.930,0.084
10.880,-0.307,0.928,0.082
10.890,-0.309,0.930,0.080
10.900,-0.311,0.928,0.084
10.910,-0.307,0.930,0.080
10.920,-0.314,0.930,0.080
10.930,-0.311,0.930,0.080
10.940,-0.312,0.932,0.080
10.950,-0.311,0.928,0.076
10.960,-0.312,0.932,0.080
10.970,-0.312,0.930,0.078
10.980,-0.311,0.932,0.084
10.990,-0.307,0.932,0.078
11.000,-0.305,0.930,0.080
11.010,-0.305,0.930,0.078
11.020,-0.305,0.924,0.080
11.029,-0.303,0.926,0.080
11.039,-0.305,0.932,0.080
11.049,-0.309,0.934,0.078
11.059,-0.305,0.936,0.080
11.069,-0.305,0.934,0.080
11.079,-0.303,0.934,0.076
11.089,-0.307,0.934,0.078
11.099,-0.305,0.934,0.080
11.109,-0.307,0.932,0.080
11.119,-0.305,0.934,0.076
11.129,-0.307,0.932,0.082
11.139,-0.305,0.932,0.080
11.149,-0.307,0.930,0.078
11.159,-0.303,0.928,0.078
11.169,-0.307,0.930,0.076
11.178,-0.305,0.926,0.074
11.188,-0.309,0.928,0.076
11.198,-0.309,0.932,0.074
11.208,-0.307,0.932,0.080
11.218,-0.307,0.932,0.076
11.228,-0.309,0.936,0.074
11.238,-0.309,0.934,0.076
11.248,-0.309,0.934,0.076
11.258,-0.307,0.934,0.074
11.268,-0.307,0.934,0.076
11.278,-0.307,0.932,0.076
11.288,-0.307,0.932,0.074
11.298,-0.307,0.930,0.078
11.308,-0.309,0.928,0.074
11.317,-0.309,0.932,0.076
11.327,-0.307,0.930,0.080
11.337,-0.309,0.930,0.080
11.347,-0.312,0.930,0.078
11.357,-0.312,0.928,0.076
11.367,-0.312,0.928,0.078
11.377,-0.312,0.928,0.076
11.387,-0.314,0.932,0.076
11.397,-0.314,0.928,0.076
11.407,-0.312,0.932,0.076
11.417,-0.311,0.928,0.076
11.427,-0.311,0.930,0.078
11.437,-0.314,0.928,0.072
11.447,-0.311,0.930,0.078
11.457,-0.312,0.926,0.074
11.466,-0.312,0.932,0.074
11.476,-0.314,0.932,0.074
11.486,-0.311,0.932,0.074
11.496,-0.309,0.930,0.076
11.506,-0.311,0.928,0.078
11.516,-0.309,0.932,0.076
11.526,-0.311,0.932,0.076
11.536,-0.307,0.934,0.074
11.546,-0.309,0.928,0.078
11.556,-0.309,0.930,0.074
11.566,-0.309,0.930,0.076
11.576,-0.309,0.932,0.072
11.586,-0.311,0.930,0.076
11.596,-0.311,0.930,0.076
11.606,-0.309,0.928,0.074
11.615,-0.309,0.930,0.074
11.625,-0.307,0.928,0.076
11.635,-0.307,0.930,0.072
11.645,-0.309,0.932,0.074
11.655,-0.307,0.930,0.072
11.665,-0.311,0.934,0.076
11.675,-0.307,0.928,0.074
11.685,-0.307,0.926,0.074
11.695,-0.305,0.926,0.072
11.705,-0.307,0.932,0.074
11.715,-0.311,0.928,0.074
11.725,-0.307,0.934,0.078
11.735,-0.305,0.934,0.076
11.745,-0.303,0.934,0.068
11.755,-0.311,0.932,0.068
11.764,-0.311,0.930,0.066
11.774,-0.309,0.932,0.072
11.784,-0.312,0.934,0.068
11.794,-0.307,0.934,0.070
11.804,-0.309,0.934,0.074
11.814,-0.311,0.934,0.070
11.824,-0.309,0.932,0.072
11.834,-0.309,0.928,0.070
11.844,-0.307,0.926,0.068
11.854,-0.307,0.928,0.070
11.864,-0.305,0.930,0.070
11.874,-0.307,0.930,0.072
11.884,-0.307,0.932,0.070
11.894,-0.307,0.930,0.072
11.903,-0.305,0.934,0.070
11.913,-0.307,0.934,0.068
11.923,-0.307,0.936,0.068
11.933,-0.307,0.934,0.072
11.943,-0.307,0.932,0.070
11.953,-0.309,0.932,0.072
11.963,-0.309,0.930,0.066
11.973,-0.307,0.930,0.072
11.983,-0.307,0.932,0.070
11.993,-0.303,0.934,0.070
12.003,-0.305,0.930,0.068
12.013,-0.303,0.924,0.064
12.023,-0.305,0.924,0.068
12.033,-0.303,0.934,0.068
12.043,-0.305,0.934,0.070
12.052,-0.303,0.936,0.072
12.062,-0.303,0.939,0.072
12.072,-0.303,0.938,0.070
12.082,-0.303,0.934,0.068
12.092,-0.303,0.936,0.068
12.102,-0.303,0.934,0.070
12.112,-0.303,0.938,0.066
12.122,-0.305,0.936,0.068
12.132,-0.303,0.934,0.068
12.142,-0.307,0.930,0.068
12.152,-0.305,0.930,0.068
12.162,-0.307,0.926,0.068
12.172,-0.305,0.926,0.070
12.182,-0.307,0.930,0.070
12.192,-0.311,0.932,0.066
12.201,-0.309,0.928,0.066
12.211,-0.311,0.934,0.070
12.221,-0.311,0.936,0.068
12.231,-0.309,0.932,0.066
12.241,-0.307,0.932,0.070
12.251,-0.309,0.934,0.068
12.261,-0.307,0.932,0.070
12.271,-0.309,0.934,0.064
12.281,-0.307,0.932,0.070
12.291,-0.307,0.934,0.070
12.301,-0.309,0.930,0.070
12.311,-0.307,0.934,0.072
12.321,-0.307,0.934,0.072
12.331,-0.307,0.930,0.070
12.340,-0.307,0.932,0.070
12.350,-0.309,0.932,0.072
12.360,-0.307,0.930,0.070
12.370,-0.309,0.932,0.066
12.380,-0.309,0.928,0.070
12.390,-0.309,0.932,0.066
12.400,-0.307,0.930,0.068
12.410,-0.309,0.934,0.068
12.420,-0.305,0.932,0.070
12.430,-0.307,0.930,0.070
12.440,-0.305,0.936,0.070
12.450,-0.305,0.932,0.070
12.460,-0.305,0.934,0.072
12.470,-0.307,0.932,0.070
12.480,-0.301,0.932,0.070
12.489,-0.305,0.934,0.068
12.499,-0.305,0.934,0.070
12.509,-0.305,0.934,0.070
12.519,-0.305,0.932,0.068
12.529,-0.305,0.934,0.074
12.539,-0.301,0.934,0.068
12.549,-0.303,0.934,0.072
12.559,-0.309,0.934,0.072
12.569,-0.309,0.938,0.072
12.579,-0.309,0.934,0.074
12.589,-0.311,0.934,0.070
12.599,-0.309,0.934,0.074
12.609,-0.307,0.930,0.074
12.619,-0.307,0.938,0.078
12.629,-0.309,0.936,0.078
12.638,-0.311,0.936,0.076
12.648,-0.305,0.938,0.078
12.658,-0.305,0.932,0.084
12.668,-0.303,0.926,0.078
12.678,-0.299,0.934,0.092
12.688,-0.287,0.936,0.090
12.698,-0.295,0.930,0.088
12.708,-0.297,0.936,0.084
12.718,-0.299,0.938,0.092
12.728,-0.303,0.938,0.088
12.738,-0.311,0.936,0.078
12.748,-0.318,0.934,0.076
12.758,-0.322,0.928,0.082
12.768,-0.324,0.928,0.078
12.778,-0.332,0.928,0.076
12.787,-0.332,0.922,0.082
12.797,-0.338,0.918,0.080
12.807,-0.340,0.922,0.080
12.817,-0.340,0.920,0.080
12.827,-0.336,0.920,0.078
12.837,-0.338,0.916,0.078
12.847,-0.338,0.918,0.080
12.857,-0.336,0.920,0.080
12.867,-0.334,0.922,0.084
12.877,-0.334,0.920,0.086
12.887,-0.332,0.922,0.088
12.897,-0.326,0.924,0.088
12.907,-0.330,0.926,0.090
12.917,-0.326,0.926,0.088
12.926,-0.326,0.924,0.090
12.936,-0.324,0.922,0.088
12.946,-0.324,0.922,0.092
12.956,-0.326,0.922,0.094
12.966,-0.324,0.924,0.094
12.976,-0.324,0.926,0.094
12.986,-0.328,0.924,0.092
12.996,-0.330,0.920,0.084
13.006,-0.330,0.918,0.088
13.016,-0.334,0.914,0.086
13.026,-0.336,0.920,0.094
13.036,-0.332,0.926,0.088
13.046,-0.338,0.924,0.090
13.056,-0.334,0.922,0.090
13.066,-0.336,0.920,0.090
13.075,-0.330,0.920,0.088
13.085,-0.328,0.924,0.090
13.095,-0.330,0.922,0.088
13.105,-0.328,0.920,0.086
13.115,-0.328,0.922,0.088
13.125,-0.324,0.922,0.088
13.135,-0.326,0.920,0.086
13.145,-0.326,0.920,0.082
13.155,-0.324,0.922,0.082
13.165,-0.326,0.922,0.084
13.175,-0.328,0.924,0.080
13.185,-0.328,0.924,0.082
13.195,-0.328,0.922,0.080
13.205,-0.330,0.926,0.080
13.215,-0.324,0.926,0.080
13.224,-0.328,0.928,0.076
13.234,-0.330,0.924,0.082
13.244,-0.328,0.924,0.078
13.254,-0.332,0.928,0.080
13.264,-0.332,0.928,0.082
13.274,-0.334,0.922,0.080
13.284,-0.336,0.920,0.082
13.294,-0.334,0.924,0.078
13.304,-0.332,0.926,0.084
13.314,-0.332,0.922,0.082
13.324,-0.332,0.918,0.080
13.334,-0.326,0.922,0.082
13.344,-0.330,0.922,0.084
13.354,-0.330,0.920,0.084
13.363,-0.326,0.920,0.086
13.373,-0.328,0.922,0.082
13.383,-0.326,0.918,0.088
13.393,-0.330,0.920,0.082
13.403,-0.324,0.922,0.084
13.413,-0.324,0.920,0.082
13.423,-0.326,0.922,0.080
13.433,-0.324,0.922,0.082
13.443,-0.324,0.926,0.080
13.453,-0.324,0.926,0.082
13.463,-0.324,0.928,0.078
13.473,-0.324,0.930,0.076
13.483,-0.320,0.930,0.076
13.493,-0.318,0.928,0.074
13.503,-0.318,0.928,0.074
13.512,-0.320,0.932,0.074
13.522,-0.320,0.932,0.074
13.532,-0.318,0.934,0.072
13.542,-0.318,0.932,0.074
13.552,-0.314,0.934,0.072
13.562,-0.316,0.934,0.070
13.572,-0.316,0.932,0.070
13.582,-0.312,0.928,0.072
13.592,-0.314,0.932,0.072
13.602,-0.312,0.930,0.072
13.612,-0.318,0.930,0.072
13.622,-0.318,0.934,0.074
13.632,-0.320,0.934,0.072
13.642,-0.318,0.928,0.070
13.652,-0.322,0.926,0.066
13.661,-0.320,0.928,0.066
13.671,-0.320,0.928,0.070
13.681,-0.324,0.928,0.068
13.691,-0.318,0.928,0.074
13.701,-0.324,0.930,0.072
13.711,-0.320,0.930,0.072
13.721,-0.322,0.928,0.074
13.731,-0.324,0.926,0.070
13.741,-0.322,0.924,0.072
13.751,-0.320,0.924,0.072
13.761,-0.320,0.922,0.072
13.771,-0.320,0.924,0.074
13.781,-0.320,0.926,0.072
13.791,-0.322,0.926,0.070
13.801,-0.324,0.924,0.070
13.810,-0.320,0.924,0.066
13.820,-0.324,0.926,0.070
13.830,-0.324,0.926,0.068
13.840,-0.326,0.924,0.064
13.850,-0.326,0.924,0.066
13.860,-0.326,0.924,0.066
13.870,-0.324,0.926,0.062
13.880,-0.326,0.928,0.064
13.890,-0.324,0.932,0.064
13.900,-0.322,0.922,0.061
13.910,-0.322,0.922,0.059
13.920,-0.318,0.922,0.059
13.930,-0.324,0.928,0.059
13.940,-0.318,0.928,0.061
13.949,-0.314,0.932,0.061
13.959,-0.318,0.932,0.062
13.969,-0.318,0.934,0.061
13.979,-0.316,0.930,0.061
13.989,-0.316,0.934,0.062
13.999,-0.314,0.934,0.057
14.009,-0.314,0.932,0.057
14.019,-0.314,0.934,0.059
14.029,-0.312,0.932,0.059
14.039,-0.312,0.930,0.055
14.049,-0.312,0.930,0.059
14.059,-0.312,0.930,0.055
14.069,-0.312,0.930,0.057
14.079,-0.312,0.926,0.057
14.089,-0.311,0.932,0.059
14.098,-0.314,0.934,0.061
14.108,-0.314,0.934,0.055
14.118,-0.314,0.936,0.055
14.128,-0.312,0.936,0.059
14.138,-0.314,0.936,0.059
14.148,-0.314,0.930,0.059
14.158,-0.314,0.932,0.062
14.168,-0.316,0.928,0.059
14.178,-0.312,0.932,0.059
14.188,-0.314,0.938,0.061
14.198,-0.312,0.930,0.062
14.208,-0.309,0.926,0.061
14.218,-0.312,0.930,0.062
14.228,-0.311,0.936,0.061
14.238,-0.311,0.932,0.066
14.247,-0.311,0.928,0.061
14.257,-0.312,0.930,0.059
14.267,-0.311,0.932,0.062
14.277,-0.314,0.930,0.062
14.287,-0.314,0.928,0.064
14.297,-0.318,0.936,0.066
14.307,-0.314,0.928,0.064
14.317,-0.312,0.926,0.064
14.327,-0.312,0.930,0.066
14.337,-0.314,0.932,0.070
14.347,-0.312,0.936,0.070
14.357,-0.312,0.939,0.070
14.367,-0.311,0.941,0.068
14.377,-0.312,0.938,0.070
14.386,-0.312,0.934,0.064
14.396,-0.312,0.936,0.062
14.406,-0.311,0.938,0.066
14.416,-0.312,0.934,0.066
14.426,-0.311,0.932,0.066
14.436,-0.316,0.924,0.066
14.446,-0.316,0.928,0.066
14.456,-0.316,0.928,0.068
14.466,-0.314,0.932,0.076
14.476,-0.316,0.930,0.076
14.486,-0.311,0.932,0.080
14.496,-0.311,0.922,0.080
14.506,-0.311,0.924,0.076
14.516,-0.309,0.926,0.082
14.526,-0.307,0.924,0.084
14.535,-0.312,0.922,0.084
14.545,-0.312,0.926,0.086
14.555,-0.307,0.930,0.088
14.565,-0.305,0.934,0.090
14.575,-0.311,0.934,0.088
14.585,-0.311,0.932,0.086
14.595,-0.311,0.930,0.088
14.605,-0.311,0.930,0.088
14.615,-0.316,0.926,0.084
14.625,-0.320,0.930,0.090
14.635,-0.314,0.930,0.090
14.645,-0.318,0.922,0.094
14.655,-0.320,0.926,0.090
14.665,-0.316,0.920,0.090
14.675,-0.316,0.920,0.092
14.684,-0.316,0.922,0.094
14.694,-0.314,0.926,0.092
14.704,-0.311,0.924,0.096
14.714,-0.311,0.924,0.094
14.724,-0.309,0.918,0.092
14.734,-0.309,0.920,0.094
14.744,-0.307,0.922,0.090
14.754,-0.309,0.924,0.090
14.764,-0.305,0.926,0.092
14.774,-0.307,0.928,0.090
14.784,-0.301,0.928,0.090
14.794,-0.303,0.930,0.092
14.804,-0.299,0.934,0.094
14.814,-0.297,0.934,0.090
14.824,-0.293,0.926,0.090
14.833,-0.293,0.928,0.084
14.843,-0.293,0.930,0.084
14.853,-0.291,0.936,0.084
14.863,-0.291,0.939,0.088
14.873,-0.283,0.941,0.086
14.883,-0.285,0.945,0.086
14.893,-0.285,0.943,0.086
14.903,-0.281,0.943,0.084
14.913,-0.281,0.943,0.088
14.923,-0.279,0.941,0.088
14.933,-0.281,0.945,0.086
14.943,-0.281,0.941,0.086
14.953,-0.279,0.941,0.086
14.963,-0.279,0.938,0.088
14.972,-0.279,0.939,0.086
14.982,-0.279,0.938,0.084
14.992,-0.285,0.938,0.088
15.002,-0.279,0.934,0.084
15.012,-0.283,0.934,0.084
15.022,-0.283,0.938,0.086
15.032,-0.285,0.938,0.086
15.042,-0.287,0.938,0.084
15.052,-0.283,0.939,0.090
15.062,-0.283,0.938,0.086
15.072,-0.283,0.939,0.088
15.082,-0.281,0.939,0.092
15.092,-0.279,0.938,0.092
15.102,-0.279,0.939,0.094
15.112,-0.277,0.939,0.094
15.121,-0.275,0.936,0.094
15.131,-0.277,0.938,0.090
15.141,-0.277,0.939,0.092
15.151,-0.277,0.939,0.092
15.161,-0.281,0.936,0.092
15.171,-0.277,0.938,0.088
15.181,-0.277,0.934,0.092
15.191,-0.287,0.932,0.090
15.201,-0.285,0.936,0.088
15.211,-0.281,0.934,0.086
15.221,-0.289,0.934,0.084
15.231,-0.285,0.936,0.086
15.241,-0.281,0.938,0.090
15.251,-0.281,0.938,0.090
15.261,-0.281,0.938,0.092
15.270,-0.279,0.938,0.090
15.280,-0.281,0.938,0.090
15.290,-0.277,0.939,0.090
15.300,-0.275,0.939,0.090
15.310,-0.277,0.938,0.094
15.320,-0.275,0.941,0.088
15.330,-0.279,0.938,0.088
15.340,-0.277,0.939,0.088
15.350,-0.277,0.939,0.088
15.360,-0.279,0.939,0.084
15.370,-0.281,0.939,0.086
15.380,-0.279,0.943,0.084
15.390,-0.281,0.941,0.082
15.400,-0.281,0.941,0.086
15.409,-0.283,0.941,0.082
15.419,-0.281,0.939,0.082
15.429,-0.281,0.938,0.080
15.439,-0.279,0.936,0.080
15.449,-0.281,0.934,0.080
15.459,-0.279,0.936,0.080
15.469,-0.281,0.938,0.082
15.479,-0.283,0.941,0.076
15.489,-0.281,0.939,0.076
15.499,-0.283,0.938,0.074
15.509,-0.285,0.936,0.072
15.519,-0.289,0.939,0.080
15.529,-0.287,0.938,0.078
15.539,-0.283,0.939,0.074
15.549,-0.283,0.939,0.076
15.558,-0.287,0.938,0.072
15.568,-0.285,0.939,0.078
15.578,-0.289,0.936,0.074
15.588,-0.287,0.932,0.072
15.598,-0.285,0.936,0.076
15.608,-0.285,0.932,0.072
15.618,-0.285,0.934,0.070
15.628,-0.285,0.936,0.076
15.638,-0.287,0.939,0.070
15.648,-0.289,0.936,0.074
15.658,-0.289,0.938,0.074
15.668,-0.291,0.939,0.070
15.678,-0.289,0.938,0.070
15.688,-0.291,0.939,0.072
15.698,-0.291,0.939,0.072
15.707,-0.291,0.934,0.074
15.717,-0.291,0.936,0.070
15.727,-0.289,0.938,0.074
15.737,-0.289,0.938,0.074
15.747,-0.289,0.938,0.072
15.757,-0.289,0.930,0.070
15.767,-0.285,0.936,0.072
15.777,-0.289,0.938,0.070
15.787,-0.289,0.941,0.074
15.797,-0.291,0.939,0.070
15.807,-0.291,0.939,0.078
15.817,-0.291,0.939,0.074
15.827,-0.293,0.936,0.076
15.837,-0.293,0.936,0.074
15.847,-0.295,0.936,0.074
15.856,-0.295,0.936,0.078
15.866,-0.293,0.938,0.078
15.876,-0.293,0.938,0.078
15.886,-0.295,0.936,0.076
15.896,-0.293,0.932,0.078
15.906,-0.297,0.932,0.078
15.916,-0.297,0.930,0.078
15.926,-0.295,0.938,0.078
15.936,-0.297,0.934,0.078
15.946,-0.297,0.932,0.078
15.956,-0.299,0.932,0.080
15.966,-0.293,0.932,0.080
15.976,-0.297,0.932,0.076
15.986,-0.297,0.936,0.080
15.995,-0.301,0.932,0.078
16.005,-0.295,0.936,0.080
16.015,-0.297,0.936,0.078
16.025,-0.295,0.938,0.080
16.035,-0.293,0.939,0.076
16.045,-0.293,0.938,0.080
16.055,-0.291,0.936,0.080
16.065,-0.293,0.934,0.080
16.075,-0.293,0.932,0.078
16.085,-0.293,0.934,0.080
16.095,-0.289,0.936,0.082
16.105,-0.293,0.938,0.080
16.115,-0.291,0.934,0.078
16.125,-0.295,0.934,0.078
16.135,-0.295,0.938,0.082
16.144,-0.291,0.938,0.080
16.154,-0.295,0.934,0.080
16.164,-0.297,0.932,0.078
16.174,-0.295,0.932,0.082
16.184,-0.295,0.934,0.080
16.194,-0.297,0.934,0.082
16.204,-0.293,0.932,0.080
16.214,-0.295,0.934,0.082
16.224,-0.293,0.936,0.078
16.234,-0.295,0.936,0.078
16.244,-0.293,0.934,0.080
16.254,-0.293,0.934,0.078
16.264,-0.293,0.934,0.078
16.274,-0.295,0.934,0.082
16.284,-0.293,0.936,0.080
16.293,-0.295,0.936,0.080
16.303,-0.295,0.939,0.076
16.313,-0.293,0.936,0.078
16.323,-0.293,0.932,0.078
16.333,-0.291,0.934,0.078
16.343,-0.289,0.934,0.078
16.353,-0.289,0.934,0.080
16.363,-0.293,0.936,0.078
16.373,-0.293,0.939,0.080
16.383,-0.297,0.943,0.082
16.393,-0.295,0.939,0.078
16.403,-0.295,0.934,0.078
16.413,-0.295,0.936,0.076
16.423,-0.295,0.936,0.076
16.432,-0.293,0.936,0.078
16.442,-0.293,0.936,0.078
16.452,-0.295,0.938,0.080
16.462,-0.293,0.932,0.078
16.472,-0.291,0.932,0.080
16.482,-0.291,0.930,0.076
16.492,-0.291,0.932,0.074
16.502,-0.293,0.936,0.078
16.512,-0.291,0.936,0.076
16.522,-0.293,0.938,0.074
16.532,-0.293,0.938,0.078
16.542,-0.293,0.938,0.080
16.552,-0.295,0.936,0.078
16.562,-0.291,0.938,0.074
16.572,-0.293,0.938,0.080
16.581,-0.293,0.939,0.074
16.591,-0.293,0.938,0.076
16.601,-0.289,0.938,0.080
16.611,-0.287,0.936,0.078
16.621,-0.287,0.939,0.080
16.631,-0.285,0.938,0.076
16.641,-0.287,0.938,0.076
16.651,-0.289,0.930,0.072
16.661,-0.283,0.932,0.074
16.671,-0.285,0.936,0.078
16.681,-0.285,0.936,0.076
16.691,-0.283,0.938,0.076
16.701,-0.285,0.941,0.074
16.711,-0.287,0.939,0.076
16.721,-0.285,0.938,0.076
16.730,-0.287,0.939,0.074
16.740,-0.285,0.939,0.078
16.750,-0.283,0.939,0.076
16.760,-0.283,0.939,0.078
16.770,-0.283,0.939,0.078
16.780,-0.287,0.941,0.078
16.790,-0.287,0.934,0.076
16.800,-0.285,0.936,0.070
16.810,-0.287,0.934,0.078
16.820,-0.285,0.938,0.074
16.830,-0.287,0.936,0.074
16.840,-0.283,0.934,0.072
16.850,-0.287,0.936,0.076
16.860,-0.287,0.939,0.070
16.870,-0.283,0.939,0.076
16.879,-0.285,0.939,0.072
16.889,-0.285,0.934,0.070
16.899,-0.287,0.936,0.072
16.909,-0.285,0.936,0.074
16.919,-0.287,0.939,0.068
16.929,-0.287,0.938,0.068
16.939,-0.285,0.939,0.074
16.949,-0.285,0.939,0.074
16.959,-0.291,0.939,0.072
16.969,-0.291,0.934,0.074
16.979,-0.289,0.936,0.074
16.989,-0.291,0.938,0.072
16.999,-0.289,0.938,0.072
17.009,-0.291,0.934,0.072
17.018,-0.291,0.938,0.072
17.028,-0.295,0.934,0.070
17.038,-0.293,0.936,0.070
17.048,-0.293,0.934,0.070
17.058,-0.291,0.936,0.070
17.068,-0.295,0.936,0.068
17.078,-0.291,0.938,0.072
17.088,-0.293,0.938,0.072
17.098,-0.289,0.936,0.070
17.108,-0.291,0.934,0.072
17.118,-0.291,0.936,0.072
17.128,-0.291,0.938,0.070
17.138,-0.291,0.936,0.074
17.148,-0.289,0.936,0.076
17.158,-0.293,0.936,0.068
17.167,-0.291,0.936,0.074
17.177,-0.293,0.936,0.074
17.187,-0.291,0.938,0.072
17.197,-0.289,0.936,0.076
17.207,-0.291,0.939,0.072
17.217,-0.289,0.938,0.072
17.227,-0.291,0.934,0.072
17.237,-0.285,0.932,0.078
17.247,-0.285,0.936,0.074
17.257,-0.289,0.936,0.074
17.267,-0.291,0.936,0.074
17.277,-0.283,0.936,0.076
17.287,-0.287,0.939,0.076
17.297,-0.289,0.938,0.072
17.307,-0.289,0.938,0.072
17.316,-0.289,0.936,0.070
17.326,-0.291,0.936,0.074
17.336,-0.291,0.939,0.070
17.346,-0.291,0.941,0.072
17.356,-0.293,0.939,0.070
17.366,-0.291,0.938,0.070
17.376,-0.293,0.934,0.070
17.386,-0.289,0.934,0.074
17.396,-0.291,0.930,0.072
17.406,-0.289,0.932,0.070
17.416,-0.291,0.934,0.072
17.426,-0.291,0.934,0.072
17.436,-0.289,0.936,0.068
17.446,-0.291,0.938,0.072
17.456,-0.291,0.938,0.070
17.465,-0.291,0.939,0.070
17.475,-0.289,0.934,0.074
17.485,-0.289,0.936,0.070
17.495,-0.293,0.934,0.072
17.505,-0.289,0.936,0.072
17.515,-0.291,0.936,0.070
17.525,-0.291,0.936,0.070
17.535,-0.291,0.936,0.068
17.545,-0.289,0.939,0.074
17.555,-0.287,0.936,0.070
17.565,-0.291,0.932,0.068
17.575,-0.283,0.932,0.068
17.585,-0.289,0.936,0.068
17.595,-0.285,0.938,0.072
17.604,-0.285,0.941,0.070
17.614,-0.285,0.941,0.068
17.624,-0.287,0.941,0.068
17.634,-0.285,0.938,0.070
17.644,-0.285,0.939,0.068
17.654,-0.285,0.939,0.070
17.664,-0.283,0.936,0.072
17.674,-0.287,0.936,0.072
17.684,-0.287,0.938,0.070
17.694,-0.289,0.936,0.070
17.704,-0.285,0.936,0.070
17.714,-0.285,0.934,0.068
17.724,-0.287,0.936,0.070
17.734,-0.285,0.936,0.074
17.744,-0.285,0.938,0.070
17.753,-0.287,0.939,0.066
17.763,-0.289,0.938,0.070
17.773,-0.287,0.936,0.068
17.783,-0.291,0.939,0.068
17.793,-0.287,0.938,0.072
17.803,-0.285,0.938,0.068
17.813,-0.289,0.939,0.070
17.823,-0.291,0.938,0.070
17.833,-0.285,0.938,0.072
17.843,-0.287,0.939,0.070
17.853,-0.289,0.938,0.070
17.863,-0.287,0.936,0.072
17.873,-0.287,0.934,0.072
17.883,-0.289,0.936,0.072
17.893,-0.287,0.936,0.072
17.902,-0.287,0.936,0.072
17.912,-0.291,0.934,0.070
17.922,-0.291,0.932,0.072
17.932,-0.291,0.936,0.074
17.942,-0.295,0.936,0.074
17.952,-0.295,0.936,0.074
17.962,-0.291,0.936,0.076
17.972,-0.293,0.938,0.074
17.982,-0.289,0.936,0.076
17.992,-0.293,0.938,0.074
18.002,-0.291,0.934,0.074
18.012,-0.289,0.936,0.076
18.022,-0.289,0.934,0.076
18.032,-0.289,0.936,0.072
18.041,-0.291,0.938,0.074
18.051,-0.289,0.936,0.074
18.061,-0.287,0.936,0.074
18.071,-0.289,0.936,0.072
18.081,-0.291,0.938,0.072
18.091,-0.289,0.938,0.078
18.101,-0.287,0.938,0.070
18.111,-0.289,0.938,0.070
18.121,-0.287,0.938,0.072
18.131,-0.289,0.938,0.070
18.141,-0.287,0.938,0.070
18.151,-0.289,0.941,0.070
18.161,-0.291,0.941,0.072
18.171,-0.289,0.943,0.072
18.181,-0.289,0.939,0.074
18.190,-0.285,0.939,0.072
18.200,-0.285,0.932,0.074
18.210,-0.285,0.938,0.072
18.220,-0.287,0.928,0.080
18.230,-0.287,0.936,0.072
18.240,-0.283,0.936,0.082
18.250,-0.287,0.939,0.076
18.260,-0.287,0.938,0.074
18.270,-0.291,0.932,0.074
18.280,-0.293,0.932,0.074
18.290,-0.291,0.936,0.074
18.300,-0.295,0.938,0.078
18.310,-0.291,0.936,0.080
18.320,-0.293,0.938,0.080
18.330,-0.295,0.936,0.078
18.339,-0.293,0.932,0.078
18.349,-0.291,0.930,0.078
18.359,-0.287,0.932,0.072
18.369,-0.291,0.936,0.078
18.379,-0.289,0.934,0.076
18.389,-0.291,0.938,0.078
18.399,-0.289,0.936,0.078
18.409,-0.287,0.932,0.074
18.419,-0.289,0.938,0.074
18.429,-0.293,0.934,0.076
18.439,-0.293,0.932,0.076
18.449,-0.293,0.934,0.076
18.459,-0.293,0.934,0.076
18.469,-0.295,0.938,0.078
18.479,-0.297,0.936,0.072
18.488,-0.291,0.934,0.078
18.498,-0.289,0.938,0.078
18.508,-0.287,0.938,0.082
18.518,-0.285,0.934,0.074
18.528,-0.289,0.932,0.072
18.538,-0.287,0.932,0.072
18.548,-0.289,0.936,0.072
18.558,-0.291,0.939,0.074
18.568,-0.287,0.938,0.074
18.578,-0.287,0.941,0.076
18.588,-0.287,0.941,0.072
18.598,-0.287,0.938,0.074
18.608,-0.291,0.934,0.074
18.618,-0.291,0.938,0.070
18.627,-0.293,0.939,0.072
18.637,-0.289,0.939,0.070
18.647,-0.293,0.938,0.072
18.657,-0.293,0.936,0.072
18.667,-0.287,0.936,0.070
18.677,-0.291,0.934,0.072
18.687,-0.289,0.934,0.070
18.697,-0.287,0.936,0.070
18.707,-0.291,0.934,0.068
18.717,-0.289,0.936,0.068
18.727,-0.291,0.939,0.072
18.737,-0.291,0.939,0.066
18.747,-0.289,0.938,0.072
18.757,-0.291,0.938,0.066
18.767,-0.291,0.934,0.066
18.776,-0.289,0.936,0.068
18.786,-0.287,0.938,0.068
18.796,-0.287,0.934,0.066
18.806,-0.289,0.936,0.068
18.816,-0.289,0.936,0.070
18.826,-0.289,0.934,0.070
18.836,-0.291,0.936,0.070
18.846,-0.291,0.936,0.070
18.856,-0.293,0.934,0.070
18.866,-0.291,0.936,0.066
18.876,-0.293,0.932,0.072
18.886,-0.295,0.934,0.070
18.896,-0.293,0.934,0.070
18.906,-0.295,0.936,0.070
18.916,-0.295,0.936,0.064
18.925,-0.295,0.936,0.070
18.935,-0.293,0.934,0.070
18.945,-0.293,0.936,0.070
18.955,-0.291,0.938,0.070
18.965,-0.291,0.936,0.072
18.975,-0.293,0.936,0.070
18.985,-0.291,0.936,0.068
18.995,-0.291,0.936,0.068
19.005,-0.289,0.936,0.070
19.015,-0.291,0.936,0.072
19.025,-0.295,0.934,0.070
19.035,-0.293,0.934,0.070
19.045,-0.295,0.934,0.072
19.055,-0.297,0.936,0.072
19.064,-0.293,0.938,0.068
19.074,-0.293,0.936,0.070
19.084,-0.293,0.934,0.070
19.094,-0.295,0.936,0.072
19.104,-0.293,0.936,0.074
19.114,-0.291,0.938,0.070
19.124,-0.295,0.936,0.068
19.134,-0.293,0.936,0.072
19.144,-0.291,0.934,0.068
19.154,-0.293,0.936,0.070
19.164,-0.295,0.938,0.070
19.174,-0.291,0.936,0.068
19.184,-0.293,0.939,0.072
19.194,-0.291,0.936,0.074
19.204,-0.285,0.932,0.068
19.213,-0.281,0.932,0.070
19.223,-0.285,0.936,0.070
19.233,-0.287,0.936,0.068
19.243,-0.289,0.932,0.068
19.253,-0.287,0.939,0.072
19.263,-0.289,0.939,0.074
19.273,-0.291,0.938,0.066
19.283,-0.293,0.932,0.064
19.293,-0.291,0.934,0.062
19.303,-0.293,0.936,0.066
19.313,-0.295,0.938,0.066
19.323,-0.291,0.939,0.066
19.333,-0.293,0.938,0.064
19.343,-0.295,0.938,0.066
19.353,-0.289,0.936,0.064
19.362,-0.287,0.932,0.062
19.372,-0.289,0.930,0.064
19.382,-0.291,0.934,0.064
19.392,-0.291,0.936,0.062
19.402,-0.287,0.936,0.062
19.412,-0.289,0.936,0.062
19.422,-0.287,0.938,0.064
19.432,-0.289,0.938,0.064
19.442,-0.293,0.938,0.064
19.452,-0.287,0.934,0.061
19.462,-0.289,0.939,0.064
19.472,-0.291,0.939,0.062
19.482,-0.289,0.941,0.062
19.492,-0.291,0.939,0.061
19.502,-0.287,0.936,0.066
19.511,-0.291,0.934,0.062
19.521,-0.283,0.939,0.066
19.531,-0.285,0.934,0.064
19.541,-0.285,0.930,0.061
19.551,-0.287,0.930,0.062
19.561,-0.285,0.936,0.064
19.571,-0.285,0.941,0.068
19.581,-0.287,0.943,0.062
19.591,-0.287,0.941,0.062
19.601,-0.287,0.941,0.066
19.611,-0.287,0.941,0.062
19.621,-0.289,0.938,0.061
19.631,-0.289,0.939,0.066
19.641,-0.287,0.939,0.062
19.650,-0.287,0.939,0.064
19.660,-0.283,0.939,0.061
19.670,-0.285,0.936,0.061
19.680,-0.283,0.936,0.064
19.690,-0.283,0.934,0.062
19.700,-0.283,0.932,0.062
19.710,-0.285,0.934,0.066
19.720,-0.287,0.938,0.062
19.730,-0.287,0.939,0.061
19.740,-0.287,0.939,0.061
19.750,-0.289,0.939,0.062
19.760,-0.287,0.939,0.064
19.770,-0.289,0.939,0.064
19.780,-0.285,0.939,0.062
19.790,-0.285,0.939,0.064
19.799,-0.287,0.939,0.066
19.809,-0.287,0.938,0.066
19.819,-0.289,0.938,0.066
19.829,-0.285,0.939,0.066
19.839,-0.287,0.938,0.066
19.849,-0.287,0.938,0.070
19.859,-0.289,0.934,0.066
19.869,-0.289,0.936,0.066
19.879,-0.291,0.938,0.066
19.889,-0.293,0.934,0.066
19.899,-0.291,0.936,0.062
19.909,-0.291,0.938,0.066
19.919,-0.291,0.938,0.066
19.929,-0.293,0.934,0.066
19.939,-0.293,0.938,0.066
19.948,-0.293,0.936,0.068
19.958,-0.293,0.938,0.064
19.968,-0.291,0.934,0.068
19.978,-0.289,0.938,0.066
19.988,-0.291,0.939,0.066
19.998,-0.289,0.934,0.068
20.008,-0.289,0.938,0.064
20.018,-0.291,0.936,0.066
20.028,-0.291,0.934,0.066
20.038,-0.289,0.936,0.062
20.048,-0.289,0.938,0.066
20.058,-0.289,0.936,0.066
20.068,-0.289,0.936,0.066
20.078,-0.289,0.939,0.064
20.087,-0.287,0.939,0.064
20.097,-0.287,0.936,0.064
20.107,-0.287,0.934,0.062
20.117,-0.287,0.938,0.062
20.127,-0.289,0.939,0.066
20.137,-0.287,0.939,0.064
20.147,-0.289,0.939,0.064
20.157,-0.287,0.938,0.061
20.167,-0.287,0.939,0.066
20.177,-0.289,0.941,0.064
20.187,-0.289,0.939,0.064
20.197,-0.287,0.941,0.062
20.207,-0.287,0.939,0.066
20.217,-0.283,0.939,0.064
20.227,-0.281,0.936,0.062
20.236,-0.281,0.936,0.064
20.246,-0.285,0.938,0.064
20.256,-0.285,0.941,0.066
20.266,-0.285,0.941,0.066
20.276,-0.283,0.945,0.070
20.286,-0.285,0.945,0.070
20.296,-0.283,0.941,0.068
20.306,-0.285,0.939,0.066
20.316,-0.289,0.938,0.066
20.326,-0.289,0.936,0.066
20.336,-0.287,0.938,0.070
20.346,-0.285,0.938,0.070
20.356,-0.287,0.936,0.074
20.366,-0.285,0.938,0.074
20.376,-0.283,0.934,0.074
20.385,-0.285,0.930,0.070
20.395,-0.283,0.932,0.070
20.405,-0.281,0.932,0.072
20.415,-0.283,0.932,0.072
20.425,-0.283,0.936,0.076
20.435,-0.283,0.936,0.072
20.445,-0.285,0.936,0.074
20.455,-0.283,0.938,0.074
20.465,-0.287,0.939,0.076
20.475,-0.285,0.936,0.076
20.485,-0.287,0.938,0.078
20.495,-0.285,0.939,0.078
20.505,-0.287,0.943,0.082
20.515,-0.287,0.938,0.078
20.525,-0.279,0.934,0.080
20.534,-0.281,0.936,0.080
20.544,-0.273,0.943,0.080
20.554,-0.279,0.930,0.084
20.564,-0.275,0.934,0.076
20.574,-0.283,0.932,0.084
20.584,-0.281,0.941,0.080
20.594,-0.273,0.943,0.080
20.604,-0.279,0.941,0.086
20.614,-0.285,0.945,0.080
20.624,-0.279,0.943,0.080
20.634,-0.281,0.939,0.082
20.644,-0.283,0.938,0.080
20.654,-0.279,0.938,0.078
20.664,-0.277,0.938,0.086
20.673,-0.281,0.939,0.080
20.683,-0.281,0.941,0.084
20.693,-0.281,0.936,0.082
20.703,-0.279,0.938,0.086
20.713,-0.279,0.936,0.080
20.723,-0.279,0.936,0.082
20.733,-0.277,0.936,0.082
20.743,-0.281,0.936,0.084
20.753,-0.279,0.936,0.080
20.763,-0.281,0.936,0.084
20.773,-0.281,0.941,0.080
20.783,-0.277,0.939,0.080
20.793,-0.279,0.938,0.082
20.803,-0.281,0.938,0.080
20.813,-0.281,0.936,0.078
20.822,-0.279,0.941,0.084
20.832,-0.277,0.939,0.082
20.842,-0.283,0.938,0.078
20.852,-0.277,0.943,0.078
20.862,-0.281,0.936,0.080
20.872,-0.281,0.938,0.078
20.882,-0.277,0.936,0.084
20.892,-0.283,0.939,0.078
20.902,-0.281,0.939,0.078
20.912,-0.283,0.939,0.078
20.922,-0.279,0.938,0.080
20.932,-0.281,0.938,0.078
20.942,-0.281,0.936,0.078
20.952,-0.281,0.938,0.074
20.962,-0.283,0.941,0.072
20.971,-0.281,0.938,0.076
20.981,-0.283,0.936,0.070
20.991,-0.279,0.938,0.070
21.001,-0.281,0.939,0.068
21.011,-0.279,0.938,0.074
21.021,-0.281,0.938,0.072
21.031,-0.281,0.938,0.070
21.041,-0.281,0.938,0.074
21.051,-0.283,0.934,0.070
21.061,-0.285,0.936,0.072
21.071,-0.281,0.936,0.070
21.081,-0.283,0.936,0.064
21.091,-0.285,0.939,0.068
21.101,-0.287,0.939,0.072
21.110,-0.289,0.939,0.070
21.120,-0.283,0.939,0.072
21.130,-0.283,0.938,0.070
21.140,-0.283,0.939,0.068
21.150,-0.287,0.941,0.070
21.160,-0.285,0.938,0.070
21.170,-0.285,0.941,0.064
21.180,-0.287,0.941,0.072
21.190,-0.283,0.936,0.068
21.200,-0.281,0.934,0.070
21.210,-0.279,0.934,0.068
21.220,-0.279,0.936,0.070
21.230,-0.281,0.938,0.068
21.240,-0.281,0.936,0.070
21.250,-0.281,0.939,0.074
21.259,-0.283,0.943,0.070
21.269,-0.281,0.938,0.070
21.279,-0.287,0.936,0.066
21.289,-0.287,0.938,0.066
21.299,-0.289,0.936,0.068
21.309,-0.289,0.939,0.068
21.319,-0.289,0.941,0.068
21.329,-0.283,0.938,0.068
21.339,-0.287,0.939,0.068
21.349,-0.287,0.938,0.064
21.359,-0.287,0.936,0.068
21.369,-0.289,0.934,0.064
21.379,-0.287,0.934,0.072
21.389,-0.285,0.938,0.064
21.399,-0.285,0.938,0.070
21.408,-0.283,0.938,0.068
21.418,-0.285,0.936,0.068
21.428,-0.287,0.938,0.066
21.438,-0.287,0.938,0.066
21.448,-0.287,0.936,0.068
21.458,-0.285,0.939,0.064
21.468,-0.285,0.938,0.070
21.478,-0.285,0.939,0.068
21.488,-0.285,0.939,0.068
21.498,-0.283,0.939,0.070
21.508,-0.283,0.943,0.070
21.518,-0.283,0.938,0.070
21.528,-0.283,0.932,0.066
21.538,-0.281,0.934,0.070
21.548,-0.283,0.934,0.068
21.557,-0.283,0.938,0.070
21.567,-0.281,0.941,0.070
21.577,-0.279,0.943,0.070
21.587,-0.281,0.943,0.070
21.597,-0.283,0.939,0.068
21.607,-0.281,0.936,0.068
21.617,-0.283,0.938,0.068
21.627,-0.283,0.939,0.068
21.637,-0.283,0.936,0.070
21.647,-0.285,0.939,0.072
21.657,-0.283,0.938,0.072
21.667,-0.279,0.938,0.066
21.677,-0.281,0.938,0.070
21.687,-0.281,0.934,0.064
21.696,-0.285,0.938,0.062
21.706,-0.283,0.938,0.064
21.716,-0.283,0.939,0.066
21.726,-0.285,0.939,0.066
21.736,-0.285,0.939,0.064
21.746,-0.283,0.939,0.066
21.756,-0.283,0.941,0.064
21.766,-0.281,0.939,0.066
21.776,-0.283,0.939,0.062
21.786,-0.283,0.938,0.064
21.796,-0.285,0.939,0.066
21.806,-0.285,0.941,0.061
21.816,-0.285,0.939,0.064
21.826,-0.283,0.939,0.066
21.836,-0.285,0.938,0.066
21.845,-0.285,0.938,0.068
21.855,-0.285,0.938,0.064
21.865,-0.285,0.936,0.070
21.875,-0.285,0.936,0.066
21.885,-0.285,0.936,0.068
21.895,-0.289,0.936,0.070
21.905,-0.289,0.936,0.066
21.915,-0.287,0.936,0.066
21.925,-0.289,0.934,0.066
21.935,-0.291,0.938,0.066
21.945,-0.285,0.938,0.066
21.955,-0.289,0.936,0.066
21.965,-0.287,0.938,0.066
21.975,-0.289,0.939,0.070
21.985,-0.289,0.936,0.066
21.994,-0.287,0.936,0.066
22.004,-0.285,0.939,0.068
22.014,-0.287,0.936,0.068
22.024,-0.289,0.936,0.068
22.034,-0.283,0.939,0.066
22.044,-0.287,0.938,0.064
22.054,-0.287,0.936,0.070
22.064,-0.285,0.936,0.064
22.074,-0.285,0.939,0.070
22.084,-0.283,0.939,0.066
22.094,-0.283,0.938,0.066
22.104,-0.285,0.939,0.068
22.114,-0.285,0.939,0.068
22.124,-0.285,0.939,0.068
22.133,-0.285,0.939,0.066
22.143,-0.283,0.939,0.068
22.153,-0.283,0.938,0.064
22.163,-0.283,0.941,0.068
22.173,-0.281,0.939,0.066
22.183,-0.281,0.934,0.072
22.193,-0.283,0.934,0.070
22.203,-0.285,0.936,0.072
22.213,-0.283,0.938,0.068
22.223,-0.285,0.936,0.070
22.233,-0.285,0.939,0.072
22.243,-0.283,0.941,0.072
22.253,-0.283,0.938,0.066
22.263,-0.287,0.936,0.064
22.273,-0.289,0.934,0.064
22.282,-0.289,0.938,0.068
22.292,-0.285,0.938,0.066
22.302,-0.283,0.943,0.070
22.312,-0.283,0.943,0.066
22.322,-0.287,0.941,0.066
22.332,-0.287,0.938,0.062
22.342,-0.283,0.934,0.064
22.352,-0.281,0.934,0.064
22.362,-0.281,0.936,0.068
22.372,-0.277,0.939,0.064
22.382,-0.283,0.939,0.066
22.392,-0.277,0.943,0.066
22.402,-0.283,0.938,0.064
22.412,-0.281,0.939,0.068
22.422,-0.283,0.938,0.066
22.431,-0.287,0.941,0.062
22.441,-0.289,0.939,0.066
22.451,-0.285,0.939,0.064
22.461,-0.287,0.938,0.064
22.471,-0.289,0.938,0.064
22.481,-0.285,0.938,0.068
22.491,-0.285,0.941,0.068
22.501,-0.283,0.941,0.068
22.511,-0.279,0.936,0.066
22.521,-0.279,0.932,0.066
22.531,-0.281,0.932,0.068
22.541,-0.281,0.932,0.070
22.551,-0.281,0.939,0.068
22.561,-0.281,0.939,0.070
22.571,-0.283,0.943,0.070
22.580,-0.283,0.939,0.066
22.590,-0.285,0.938,0.064
22.600,-0.283,0.939,0.068
22.610,-0.285,0.938,0.068
22.620,-0.287,0.938,0.066
22.630,-0.283,0.941,0.066
22.640,-0.285,0.941,0.068
22.650,-0.281,0.936,0.064
22.660,-0.283,0.934,0.064
22.670,-0.281,0.936,0.064
22.680,-0.283,0.938,0.068
22.690,-0.285,0.936,0.064
22.700,-0.285,0.939,0.064
22.710,-0.285,0.939,0.064
22.719,-0.285,0.939,0.066
22.729,-0.287,0.943,0.062
22.739,-0.283,0.939,0.066
22.749,-0.285,0.943,0.064
22.759,-0.285,0.941,0.062
22.769,-0.281,0.941,0.066
22.779,-0.281,0.939,0.062
22.789,-0.283,0.939,0.062
22.799,-0.281,0.938,0.064
22.809,-0.283,0.938,0.068
22.819,-0.283,0.939,0.066
22.829,-0.285,0.938,0.064
22.839,-0.283,0.934,0.064
22.849,-0.285,0.936,0.066
22.859,-0.285,0.934,0.068
22.868,-0.287,0.936,0.064
22.878,-0.291,0.936,0.066
22.888,-0.287,0.936,0.066
22.898,-0.285,0.939,0.070
22.908,-0.287,0.936,0.068
22.918,-0.289,0.939,0.064
22.928,-0.289,0.936,0.066
22.938,-0.287,0.936,0.066
22.948,-0.289,0.936,0.070
22.958,-0.285,0.938,0.068
22.968,-0.285,0.939,0.068
22.978,-0.283,0.936,0.064
22.988,-0.283,0.936,0.066
22.998,-0.283,0.936,0.066
23.008,-0.283,0.936,0.066
23.017,-0.285,0.938,0.066
23.027,-0.285,0.936,0.064
23.037,-0.283,0.938,0.066
23.047,-0.283,0.939,0.064
23.057,-0.285,0.939,0.064
23.067,-0.281,0.939,0.064
23.077,-0.281,0.938,0.064
23.087,-0.283,0.936,0.062
23.097,-0.285,0.941,0.059
23.107,-0.283,0.941,0.064
23.117,-0.283,0.939,0.062
23.127,-0.281,0.939,0.066
23.137,-0.279,0.941,0.064
23.147,-0.285,0.941,0.064
23.157,-0.285,0.941,0.064
23.166,-0.285,0.941,0.066
23.176,-0.283,0.943,0.066
23.186,-0.285,0.939,0.068
23.196,-0.285,0.938,0.068
23.206,-0.283,0.934,0.068
23.216,-0.281,0.938,0.066
23.226,-0.283,0.938,0.064
23.236,-0.283,0.934,0.068
23.246,-0.279,0.939,0.068
23.256,-0.281,0.939,0.068
23.266,-0.283,0.938,0.066
23.276,-0.289,0.938,0.064
23.286,-0.287,0.934,0.062
23.296,-0.287,0.938,0.066
23.305,-0.283,0.939,0.068
23.315,-0.283,0.941,0.070
23.325,-0.283,0.941,0.066
23.335,-0.283,0.938,0.064
23.345,-0.285,0.938,0.062
23.355,-0.281,0.934,0.061
23.365,-0.281,0.936,0.062
23.375,-0.279,0.936,0.068
23.385,-0.279,0.938,0.062
23.395,-0.279,0.941,0.064
23.405,-0.279,0.938,0.066
23.415,-0.281,0.938,0.068
23.425,-0.281,0.939,0.064
23.435,-0.285,0.938,0.064
23.445,-0.281,0.939,0.064
23.454,-0.281,0.938,0.066
23.464,-0.285,0.939,0.064
23.474,-0.281,0.941,0.062
23.484,-0.285,0.939,0.066
23.494,-0.281,0.939,0.066
23.504,-0.279,0.939,0.066
23.514,-0.275,0.939,0.070
23.524,-0.275,0.936,0.068
23.534,-0.279,0.934,0.062
23.544,-0.277,0.934,0.064
23.554,-0.281,0.939,0.066
23.564,-0.277,0.941,0.066
23.574,-0.281,0.943,0.070
23.584,-0.281,0.945,0.068
23.594,-0.281,0.941,0.068
23.603,-0.279,0.939,0.066
23.613,-0.279,0.938,0.062
23.623,-0.281,0.939,0.068
23.633,-0.277,0.936,0.062
23.643,-0.277,0.938,0.066
23.653,-0.281,0.936,0.066
23.663,-0.277,0.934,0.064
23.673,-0.279,0.938,0.062
23.683,-0.285,0.932,0.066
23.693,-0.279,0.936,0.061
23.703,-0.283,0.939,0.062
23.713,-0.285,0.939,0.062
23.723,-0.283,0.939,0.062
23.733,-0.283,0.939,0.061
23.742,-0.283,0.943,0.061
23.752,-0.287,0.939,0.062
23.762,-0.283,0.945,0.059
23.772,-0.283,0.941,0.061
23.782,-0.281,0.943,0.059
23.792,-0.281,0.943,0.059
23.802,-0.281,0.943,0.059
23.812,-0.279,0.943,0.062
23.822,-0.279,0.941,0.062
23.832,-0.281,0.941,0.064
23.842,-0.277,0.939,0.066
23.852,-0.279,0.936,0.064
23.862,-0.279,0.936,0.062
23.872,-0.283,0.936,0.061
23.882,-0.281,0.936,0.061
23.891,-0.285,0.938,0.061
23.901,-0.285,0.938,0.062
23.911,-0.285,0.934,0.064
23.921,-0.287,0.938,0.062
23.931,-0.283,0.938,0.061
23.941,-0.283,0.939,0.062
23.951,-0.283,0.939,0.061
23.961,-0.281,0.938,0.064
23.971,-0.281,0.939,0.061
23.981,-0.281,0.936,0.062
23.991,-0.283,0.938,0.064
24.001,-0.281,0.936,0.062
24.011,-0.281,0.938,0.064
24.021,-0.283,0.938,0.064
24.031,-0.279,0.939,0.064
24.040,-0.285,0.936,0.061
24.050,-0.275,0.939,0.061
24.060,-0.279,0.936,0.062
24.070,-0.281,0.939,0.061
24.080,-0.279,0.939,0.062
24.090,-0.279,0.939,0.061
24.100,-0.281,0.941,0.061
24.110,-0.279,0.941,0.068
24.120,-0.279,0.938,0.064
24.130,-0.281,0.939,0.061
24.140,-0.279,0.939,0.062
24.150,-0.279,0.939,0.064
24.160,-0.277,0.939,0.064
24.170,-0.283,0.941,0.066
24.180,-0.281,0.939,0.064
24.189,-0.277,0.936,0.064
24.199,-0.275,0.939,0.064
24.209,-0.277,0.934,0.066
24.219,-0.275,0.936,0.061
24.229,-0.277,0.941,0.064
24.239,-0.281,0.945,0.066
24.249,-0.279,0.945,0.064
24.259,-0.283,0.945,0.062
24.269,-0.281,0.939,0.061
24.279,-0.283,0.938,0.061
24.289,-0.279,0.939,0.064
24.299,-0.279,0.938,0.064
24.309,-0.277,0.943,0.064
24.319,-0.279,0.943,0.066
24.328,-0.279,0.936,0.064
24.338,-0.279,0.934,0.062
24.348,-0.277,0.932,0.062
24.358,-0.275,0.932,0.061
24.368,-0.279,0.932,0.064
24.378,-0.277,0.938,0.061
24.388,-0.279,0.936,0.062
24.398,-0.281,0.939,0.061
24.408,-0.281,0.943,0.062
24.418,-0.281,0.939,0.061
24.428,-0.283,0.941,0.061
24.438,-0.277,0.941,0.059
24.448,-0.281,0.943,0.061
24.458,-0.277,0.939,0.062
24.468,-0.277,0.941,0.057
24.477,-0.277,0.939,0.061
24.487,-0.273,0.941,0.064
24.497,-0.273,0.943,0.064
24.507,-0.271,0.939,0.062
24.517,-0.273,0.932,0.057
24.527,-0.273,0.934,0.059
24.537,-0.270,0.938,0.061
24.547,-0.273,0.941,0.061
24.557,-0.275,0.947,0.059
24.567,-0.273,0.945,0.064
24.577,-0.275,0.945,0.066
24.587,-0.273,0.941,0.059
24.597,-0.275,0.939,0.062
24.607,-0.273,0.939,0.061
24.617,-0.271,0.936,0.061
24.626,-0.271,0.943,0.062
24.636,-0.273,0.939,0.059
24.646,-0.273,0.936,0.062
24.656,-0.273,0.938,0.064
24.666,-0.268,0.941,0.059
24.676,-0.270,0.939,0.061
24.686,-0.270,0.939,0.061
24.696,-0.270,0.941,0.061
24.706,-0.271,0.941,0.059
24.716,-0.271,0.943,0.059
24.726,-0.270,0.941,0.057
24.736,-0.268,0.945,0.064
24.746,-0.268,0.941,0.061
24.756,-0.268,0.943,0.057
24.765,-0.270,0.943,0.057
24.775,-0.268,0.945,0.059
24.785,-0.270,0.947,0.059
24.795,-0.268,0.945,0.059
24.805,-0.270,0.945,0.064
24.815,-0.266,0.947,0.062
24.825,-0.266,0.945,0.061
24.835,-0.268,0.941,0.061
24.845,-0.266,0.939,0.059
24.855,-0.268,0.941,0.062
24.865,-0.268,0.943,0.059
24.875,-0.268,0.941,0.062
24.885,-0.270,0.939,0.062
24.895,-0.268,0.939,0.061
24.905,-0.268,0.939,0.062
24.914,-0.268,0.941,0.061
24.924,-0.270,0.939,0.062
24.934,-0.270,0.938,0.061
24.944,-0.271,0.939,0.062
24.954,-0.270,0.936,0.066
24.964,-0.270,0.938,0.059
24.974,-0.270,0.938,0.061
24.984,-0.270,0.939,0.064
24.994,-0.271,0.941,0.061
25.004,-0.270,0.943,0.062
25.014,-0.270,0.943,0.059
25.024,-0.266,0.941,0.062
25.034,-0.270,0.939,0.059
25.044,-0.266,0.945,0.062
25.054,-0.268,0.945,0.061
25.063,-0.266,0.943,0.062
25.073,-0.262,0.945,0.059
25.083,-0.266,0.945,0.061
25.093,-0.264,0.943,0.059
25.103,-0.264,0.943,0.061
25.113,-0.264,0.943,0.062
25.123,-0.262,0.943,0.061
25.133,-0.262,0.939,0.061
25.143,-0.266,0.947,0.059
25.153,-0.264,0.949,0.061
25.163,-0.264,0.943,0.062
25.173,-0.264,0.941,0.057
25.183,-0.268,0.938,0.059
25.193,-0.270,0.943,0.057
25.203,-0.268,0.945,0.062
25.212,-0.266,0.947,0.057
25.222,-0.266,0.945,0.059
25.232,-0.268,0.945,0.061
25.242,-0.264,0.943,0.055
25.252,-0.264,0.936,0.055
25.262,-0.262,0.934,0.057
25.272,-0.262,0.938,0.055
25.282,-0.264,0.939,0.059
25.292,-0.270,0.943,0.059
25.302,-0.266,0.943,0.059
25.312,-0.268,0.943,0.059
25.322,-0.266,0.943,0.055
25.332,-0.268,0.943,0.057
25.342,-0.268,0.943,0.059
25.351,-0.268,0.941,0.057
25.361,-0.266,0.943,0.055
25.371,-0.264,0.947,0.057
25.381,-0.266,0.943,0.061
25.391,-0.264,0.941,0.059
25.401,-0.262,0.945,0.059
25.411,-0.260,0.947,0.062
25.421,-0.262,0.939,0.059
25.431,-0.258,0.936,0.053
25.441,-0.262,0.936,0.053
25.451,-0.262,0.943,0.057
25.461,-0.262,0.945,0.059
25.471,-0.262,0.947,0.059
25.481,-0.260,0.947,0.061
25.491,-0.262,0.945,0.061
25.500,-0.264,0.947,0.061
25.510,-0.262,0.943,0.055
25.520,-0.262,0.941,0.057
25.530,-0.260,0.943,0.059
25.540,-0.262,0.945,0.061
25.550,-0.258,0.943,0.061
25.560,-0.260,0.943,0.061
25.570,-0.262,0.941,0.061
25.580,-0.260,0.939,0.059
25.590,-0.260,0.941,0.057
25.600,-0.258,0.939,0.057
25.610,-0.264,0.941,0.057
25.620,-0.264,0.943,0.059
25.630,-0.264,0.945,0.059
25.640,-0.264,0.947,0.057
25.649,-0.262,0.947,0.057
25.659,-0.262,0.943,0.057
25.669,-0.260,0.941,0.057
25.679,-0.260,0.943,0.057
25.689,-0.260,0.941,0.055
25.699,-0.264,0.945,0.061
25.709,-0.262,0.945,0.059
25.719,-0.262,0.947,0.061
25.729,-0.264,0.945,0.057
25.739,-0.266,0.943,0.059
25.749,-0.262,0.943,0.061
25.759,-0.264,0.941,0.059
25.769,-0.262,0.945,0.061
25.779,-0.264,0.941,0.061
25.788,-0.266,0.941,0.061
25.798,-0.264,0.941,0.061
25.808,-0.264,0.941,0.062
25.818,-0.266,0.941,0.059
25.828,-0.264,0.943,0.057
25.838,-0.266,0.939,0.062
25.848,-0.266,0.941,0.059
25.858,-0.264,0.941,0.062
25.868,-0.268,0.943,0.057
25.878,-0.266,0.941,0.055
25.888,-0.262,0.939,0.061
25.898,-0.264,0.943,0.061
25.908,-0.262,0.945,0.059
25.918,-0.266,0.941,0.059
25.928,-0.266,0.945,0.057
25.937,-0.264,0.941,0.055
25.947,-0.266,0.945,0.053
25.957,-0.264,0.945,0.057
25.967,-0.264,0.941,0.053
25.977,-0.268,0.943,0.059
25.987,-0.262,0.945,0.059
25.997,-0.262,0.941,0.055
26.007,-0.266,0.943,0.057
26.017,-0.266,0.941,0.061
26.027,-0.260,0.945,0.059
26.037,-0.260,0.943,0.061
26.047,-0.262,0.941,0.059
26.057,-0.258,0.945,0.064
26.067,-0.256,0.949,0.061
26.077,-0.258,0.947,0.059
26.086,-0.260,0.943,0.057
26.096,-0.264,0.941,0.055
26.106,-0.262,0.943,0.057
26.116,-0.262,0.943,0.059
26.126,-0.262,0.947,0.057
26.136,-0.262,0.949,0.061
26.146,-0.262,0.945,0.059
26.156,-0.258,0.941,0.059
26.166,-0.258,0.938,0.061
26.176,-0.258,0.941,0.059
26.186,-0.258,0.939,0.059
26.196,-0.256,0.943,0.061
26.206,-0.256,0.941,0.061
26.216,-0.256,0.943,0.059
26.226,-0.256,0.943,0.059
26.235,-0.258,0.945,0.059
26.245,-0.260,0.941,0.061
26.255,-0.258,0.943,0.061
26.265,-0.254,0.943,0.059
26.275,-0.256,0.945,0.061
26.285,-0.258,0.949,0.057
26.295,-0.258,0.947,0.059
26.305,-0.260,0.949,0.059
26.315,-0.254,0.943,0.061
26.325,-0.256,0.943,0.057
26.335,-0.252,0.943,0.061
26.345,-0.254,0.939,0.057
26.355,-0.250,0.938,0.059
26.365,-0.248,0.945,0.059
26.374,-0.250,0.945,0.059
26.384,-0.248,0.949,0.064
26.394,-0.250,0.949,0.059
26.404,-0.252,0.947,0.059
26.414,-0.246,0.947,0.061
26.424,-0.252,0.945,0.061
26.434,-0.250,0.945,0.061
26.444,-0.250,0.947,0.061
26.454,-0.250,0.949,0.059
26.464,-0.250,0.945,0.059
26.474,-0.248,0.945,0.057
26.484,-0.250,0.945,0.059
26.494,-0.248,0.947,0.057
26.504,-0.246,0.945,0.059
26.514,-0.246,0.943,0.062
26.523,-0.246,0.945,0.059
26.533,-0.250,0.949,0.057
26.543,-0.250,0.947,0.057
26.553,-0.248,0.949,0.055
26.563,-0.250,0.949,0.057
26.573,-0.248,0.949,0.059
26.583,-0.246,0.949,0.057
26.593,-0.248,0.949,0.059
26.603,-0.248,0.949,0.057
26.613,-0.246,0.947,0.061
26.623,-0.248,0.951,0.059
26.633,-0.248,0.945,0.064
26.643,-0.246,0.949,0.061
26.653,-0.250,0.945,0.061
26.663,-0.250,0.945,0.062
26.672,-0.250,0.945,0.059
26.682,-0.250,0.945,0.059
26.692,-0.252,0.943,0.059
26.702,-0.250,0.943,0.061
26.712,-0.258,0.943,0.059
26.722,-0.254,0.945,0.061
26.732,-0.252,0.941,0.061
26.742,-0.258,0.941,0.059
26.752,-0.252,0.943,0.062
26.762,-0.256,0.943,0.062
26.772,-0.254,0.947,0.059
26.782,-0.254,0.941,0.061
26.792,-0.254,0.943,0.055
26.802,-0.256,0.945,0.064
26.811,-0.256,0.947,0.061
26.821,-0.254,0.943,0.061
26.831,-0.254,0.945,0.061
26.841,-0.254,0.943,0.061
26.851,-0.254,0.943,0.062
26.861,-0.256,0.947,0.061
26.871,-0.256,0.947,0.057
26.881,-0.254,0.941,0.059
26.891,-0.254,0.947,0.059
26.901,-0.254,0.947,0.057
26.911,-0.254,0.949,0.057
26.921,-0.252,0.949,0.062
26.931,-0.254,0.945,0.059
26.941,-0.254,0.949,0.061
26.951,-0.252,0.945,0.059
26.960,-0.252,0.943,0.059
26.970,-0.250,0.945,0.061
26.980,-0.252,0.943,0.061
26.990,-0.254,0.943,0.064
27.000,-0.254,0.943,0.062
27.010,-0.252,0.947,0.061
27.020,-0.252,0.947,0.061
27.030,-0.250,0.943,0.061
27.040,-0.252,0.941,0.059
27.050,-0.254,0.943,0.057
27.060,-0.256,0.947,0.059
27.070,-0.258,0.949,0.061
27.080,-0.252,0.951,0.061
27.090,-0.252,0.947,0.059
27.100,-0.252,0.943,0.061
27.109,-0.252,0.939,0.057
27.119,-0.248,0.943,0.057
27.129,-0.250,0.941,0.062
27.139,-0.248,0.947,0.059
27.149,-0.246,0.945,0.062
27.159,-0.246,0.947,0.064
27.169,-0.248,0.945,0.059
27.179,-0.244,0.947,0.061
27.189,-0.250,0.947,0.059
27.199,-0.248,0.949,0.059
27.209,-0.248,0.949,0.057
27.219,-0.244,0.949,0.061
27.229,-0.248,0.951,0.061
27.239,-0.248,0.953,0.057
27.249,-0.250,0.947,0.061
27.258,-0.246,0.949,0.061
27.268,-0.244,0.949,0.061
27.278,-0.238,0.947,0.062
27.288,-0.240,0.941,0.061
27.298,-0.238,0.943,0.059
27.308,-0.240,0.943,0.057
27.318,-0.242,0.947,0.059
27.328,-0.242,0.951,0.064
27.338,-0.240,0.953,0.061
27.348,-0.242,0.953,0.062
27.358,-0.240,0.951,0.059
27.368,-0.240,0.947,0.062
27.378,-0.244,0.949,0.061
27.388,-0.244,0.949,0.061
27.397,-0.244,0.949,0.062
27.407,-0.244,0.947,0.064
27.417,-0.242,0.949,0.062
27.427,-0.240,0.945,0.059
27.437,-0.242,0.943,0.061
27.447,-0.240,0.941,0.057
27.457,-0.242,0.941,0.062
27.467,-0.242,0.943,0.062
27.477,-0.244,0.947,0.061
27.487,-0.246,0.951,0.059
27.497,-0.244,0.947,0.061
27.507,-0.240,0.949,0.061
27.517,-0.246,0.949,0.059
27.527,-0.246,0.949,0.061
27.537,-0.246,0.947,0.061
27.546,-0.244,0.951,0.062
27.556,-0.244,0.947,0.061
27.566,-0.244,0.947,0.057
27.576,-0.242,0.947,0.061
27.586,-0.242,0.949,0.064
27.596,-0.240,0.947,0.064
27.606,-0.244,0.949,0.061
27.616,-0.244,0.947,0.062
27.626,-0.242,0.949,0.062
27.636,-0.244,0.949,0.062
27.646,-0.246,0.949,0.061
27.656,-0.246,0.949,0.064
27.666,-0.246,0.945,0.061
27.676,-0.244,0.945,0.059
27.686,-0.242,0.945,0.064
27.695,-0.244,0.945,0.061
27.705,-0.242,0.949,0.059
27.715,-0.242,0.949,0.064
27.725,-0.242,0.945,0.057
27.735,-0.244,0.945,0.062
27.745,-0.242,0.949,0.061
27.755,-0.240,0.949,0.062
27.765,-0.242,0.947,0.062
27.775,-0.240,0.947,0.061
27.785,-0.244,0.951,0.062
27.795,-0.240,0.947,0.062
27.805,-0.242,0.943,0.059
27.815,-0.238,0.945,0.061
27.825,-0.238,0.947,0.059
27.834,-0.242,0.951,0.061
27.844,-0.238,0.949,0.061
27.854,-0.242,0.949,0.059
27.864,-0.240,0.949,0.059
27.874,-0.240,0.951,0.059
27.884,-0.238,0.951,0.062
27.894,-0.240,0.949,0.062
27.904,-0.238,0.949,0.061
27.914,-0.236,0.949,0.062
27.924,-0.236,0.951,0.061
27.934,-0.236,0.941,0.064
27.944,-0.232,0.945,0.062
27.954,-0.234,0.947,0.059
27.964,-0.234,0.949,0.061
27.974,-0.232,0.951,0.061
27.983,-0.234,0.949,0.064
27.993,-0.234,0.955,0.062
28.003,-0.234,0.955,0.061
28.013,-0.234,0.955,0.062
28.023,-0.236,0.951,0.061
28.033,-0.234,0.951,0.061
28.043,-0.234,0.951,0.062
28.053,-0.234,0.953,0.064
28.063,-0.230,0.951,0.062
28.073,-0.230,0.947,0.066
28.083,-0.230,0.947,0.061
28.093,-0.230,0.943,0.059
28.103,-0.229,0.943,0.061
28.113,-0.232,0.943,0.064
28.123,-0.229,0.945,0.062
28.132,-0.232,0.947,0.061
28.142,-0.234,0.953,0.064
28.152,-0.229,0.955,0.062
28.162,-0.232,0.953,0.061
28.172,-0.230,0.949,0.061
28.182,-0.230,0.953,0.059
28.192,-0.230,0.949,0.062
28.202,-0.232,0.953,0.061
28.212,-0.229,0.949,0.061
28.222,-0.230,0.951,0.061
28.232,-0.227,0.947,0.062
28.242,-0.227,0.947,0.062
28.252,-0.221,0.953,0.064
28.262,-0.221,0.951,0.064
28.272,-0.221,0.947,0.061
28.281,-0.219,0.947,0.061
28.291,-0.221,0.953,0.066
28.301,-0.219,0.959,0.062
28.311,-0.219,0.957,0.068
28.321,-0.219,0.957,0.066
28.331,-0.219,0.953,0.064
28.341,-0.217,0.955,0.066
28.351,-0.221,0.953,0.061
28.361,-0.219,0.953,0.066
28.371,-0.219,0.951,0.066
28.381,-0.219,0.951,0.066
28.391,-0.221,0.951,0.062
28.401,-0.221,0.951,0.066
28.411,-0.219,0.949,0.064
28.420,-0.217,0.947,0.068
28.430,-0.221,0.949,0.068
28.440,-0.219,0.949,0.066
28.450,-0.217,0.949,0.068
28.460,-0.219,0.951,0.068
28.470,-0.219,0.951,0.064
28.480,-0.219,0.949,0.064
28.490,-0.215,0.951,0.068
28.500,-0.215,0.955,0.066
28.510,-0.219,0.959,0.064
28.520,-0.213,0.959,0.066
28.530,-0.211,0.959,0.066
28.540,-0.209,0.959,0.066
28.550,-0.209,0.961,0.070
28.560,-0.207,0.961,0.068
28.569,-0.203,0.959,0.068
28.579,-0.211,0.957,0.070
28.589,-0.211,0.955,0.070
28.599,-0.213,0.953,0.070
28.609,-0.211,0.955,0.068
28.619,-0.213,0.949,0.068
28.629,-0.217,0.953,0.068
28.639,-0.219,0.951,0.068
28.649,-0.217,0.953,0.070
28.659,-0.219,0.949,0.072
28.669,-0.221,0.951,0.072
28.679,-0.219,0.951,0.072
28.689,-0.221,0.949,0.070
28.699,-0.219,0.947,0.074
28.709,-0.223,0.951,0.070
28.718,-0.223,0.953,0.070
28.728,-0.219,0.947,0.072
28.738,-0.215,0.949,0.072
28.748,-0.217,0.951,0.070
28.758,-0.215,0.953,0.070
28.768,-0.219,0.951,0.068
28.778,-0.217,0.953,0.068
28.788,-0.217,0.953,0.070
28.798,-0.221,0.953,0.068
28.808,-0.217,0.953,0.070
28.818,-0.221,0.955,0.068
28.828,-0.221,0.953,0.068
28.838,-0.217,0.955,0.068
28.848,-0.215,0.953,0.068
28.858,-0.217,0.957,0.070
28.867,-0.217,0.951,0.066
28.877,-0.215,0.947,0.068
28.887,-0.215,0.951,0.066
28.897,-0.215,0.955,0.066
28.907,-0.217,0.955,0.066
28.917,-0.217,0.953,0.068
28.927,-0.215,0.957,0.070
28.937,-0.215,0.955,0.068
28.947,-0.217,0.951,0.064
28.957,-0.219,0.951,0.062
28.967,-0.221,0.951,0.068
28.977,-0.219,0.951,0.066
28.987,-0.217,0.953,0.068
28.997,-0.217,0.955,0.068
29.006,-0.219,0.949,0.068
29.016,-0.217,0.947,0.068
29.026,-0.219,0.941,0.066
29.036,-0.219,0.943,0.066
29.046,-0.221,0.945,0.068
29.056,-0.223,0.947,0.066
29.066,-0.219,0.949,0.066
29.076,-0.223,0.949,0.066
29.086,-0.221,0.951,0.064
29.096,-0.221,0.957,0.066
29.106,-0.221,0.955,0.064
29.116,-0.219,0.953,0.062
29.126,-0.215,0.955,0.064
29.136,-0.217,0.955,0.061
29.146,-0.215,0.957,0.061
29.155,-0.217,0.957,0.057
29.165,-0.215,0.955,0.059
29.175,-0.213,0.959,0.066
29.185,-0.209,0.957,0.064
29.195,-0.207,0.959,0.061
29.205,-0.211,0.951,0.059
29.215,-0.207,0.949,0.061
29.225,-0.207,0.953,0.061
29.235,-0.209,0.957,0.059
29.245,-0.211,0.959,0.059
29.255,-0.211,0.959,0.061
29.265,-0.213,0.961,0.061
29.275,-0.215,0.957,0.059
29.285,-0.211,0.955,0.059
29.295,-0.213,0.953,0.061
29.304,-0.211,0.951,0.059
29.314,-0.215,0.953,0.062
29.324,-0.213,0.951,0.064
29.334,-0.217,0.951,0.066
29.344,-0.215,0.951,0.064
29.354,-0.213,0.949,0.062
29.364,-0.213,0.951,0.061
29.374,-0.217,0.947,0.059
29.384,-0.217,0.953,0.062
29.394,-0.219,0.951,0.062
29.404,-0.217,0.955,0.059
29.414,-0.215,0.953,0.061
29.424,-0.217,0.953,0.059
29.434,-0.221,0.955,0.059
29.443,-0.215,0.957,0.059
29.453,-0.219,0.953,0.061
29.463,-0.219,0.957,0.059
29.473,-0.217,0.955,0.059
29.483,-0.215,0.955,0.061
29.493,-0.221,0.953,0.055
29.503,-0.219,0.953,0.059
29.513,-0.219,0.955,0.057
29.523,-0.221,0.951,0.057
29.533,-0.221,0.953,0.059
29.543,-0.219,0.951,0.057
29.553,-0.219,0.953,0.059
29.563,-0.223,0.951,0.057
29.573,-0.225,0.949,0.059
29.583,-0.225,0.953,0.059
29.592,-0.223,0.953,0.061
29.602,-0.225,0.951,0.059
29.612,-0.227,0.953,0.057
29.622,-0.227,0.955,0.061
29.632,-0.225,0.951,0.057
29.642,-0.225,0.951,0.059
29.652,-0.227,0.951,0.059
29.662,-0.225,0.951,0.057
29.672,-0.225,0.951,0.061
29.682,-0.227,0.951,0.061
29.692,-0.225,0.949,0.061
29.702,-0.229,0.949,0.059
29.712,-0.225,0.953,0.057
29.722,-0.223,0.951,0.061
29.732,-0.225,0.951,0.059
29.741,-0.223,0.947,0.059
29.751,-0.225,0.951,0.059
29.761,-0.225,0.951,0.062
29.771,-0.225,0.955,0.061
29.781,-0.227,0.953,0.059
29.791,-0.225,0.951,0.061
29.801,-0.227,0.951,0.057
29.811,-0.227,0.951,0.057
29.821,-0.225,0.953,0.059
29.831,-0.225,0.951,0.059
29.841,-0.225,0.955,0.061
29.851,-0.223,0.951,0.061
29.861,-0.219,0.949,0.061
29.871,-0.225,0.949,0.061
29.881,-0.223,0.951,0.061
29.890,-0.223,0.951,0.059
29.900,-0.223,0.953,0.062
29.910,-0.221,0.953,0.066
29.920,-0.221,0.955,0.064
29.930,-0.219,0.951,0.059
29.940,-0.225,0.947,0.055
29.950,-0.223,0.945,0.053
29.960,-0.229,0.951,0.061
29.970,-0.227,0.959,0.059
29.980,-0.229,0.955,0.059
29.990,-0.225,0.957,0.059
30.000,-0.223,0.951,0.061
30.010,-0.225,0.951,0.059
30.020,-0.221,0.951,0.061
30.029,-0.221,0.947,0.057
30.039,-0.219,0.951,0.061
30.049,-0.219,0.949,0.061
30.059,-0.217,0.949,0.057
30.069,-0.221,0.949,0.062
30.079,-0.219,0.953,0.062
30.089,-0.223,0.949,0.057
30.099,-0.221,0.951,0.057
30.109,-0.223,0.951,0.057
30.119,-0.225,0.947,0.061
30.129,-0.225,0.947,0.061
30.139,-0.225,0.951,0.062
30.149,-0.225,0.951,0.062
30.159,-0.225,0.953,0.064
30.169,-0.221,0.949,0.064
30.178,-0.217,0.953,0.064
30.188,-0.217,0.949,0.062
30.198,-0.217,0.945,0.059
30.208,-0.215,0.947,0.059
30.218,-0.221,0.953,0.059
30.228,-0.221,0.957,0.059
30.238,-0.219,0.955,0.062
30.248,-0.219,0.959,0.059
30.258,-0.219,0.957,0.057
30.268,-0.219,0.953,0.053
30.278,-0.219,0.953,0.057
30.288,-0.219,0.953,0.053
30.298,-0.221,0.955,0.057
30.308,-0.221,0.953,0.057
30.318,-0.219,0.955,0.055
30.327,-0.223,0.949,0.057
30.337,-0.221,0.949,0.053
30.347,-0.221,0.953,0.053
30.357,-0.219,0.949,0.053
30.367,-0.221,0.949,0.055
30.377,-0.221,0.951,0.051
30.387,-0.223,0.953,0.055
30.397,-0.223,0.953,0.055
30.407,-0.221,0.955,0.057
30.417,-0.221,0.957,0.057
30.427,-0.225,0.955,0.055
30.437,-0.221,0.955,0.055
30.447,-0.223,0.953,0.057
30.457,-0.219,0.955,0.059
30.466,-0.219,0.953,0.057
30.476,-0.219,0.951,0.059
30.486,-0.223,0.951,0.055
30.496,-0.221,0.951,0.059
30.506,-0.223,0.953,0.057
30.516,-0.223,0.951,0.057
30.526,-0.225,0.949,0.059
30.536,-0.223,0.947,0.055
30.546,-0.225,0.945,0.059
30.556,-0.225,0.949,0.053
30.566,-0.229,0.947,0.057
30.576,-0.227,0.947,0.057
30.586,-0.225,0.949,0.059
30.596,-0.227,0.953,0.057
30.606,-0.225,0.951,0.055
30.615,-0.227,0.949,0.057
30.625,-0.223,0.951,0.059
30.635,-0.225,0.955,0.057
30.645,-0.225,0.951,0.057
30.655,-0.221,0.951,0.057
30.665,-0.225,0.951,0.055
30.675,-0.223,0.953,0.057
30.685,-0.225,0.951,0.055
30.695,-0.223,0.953,0.057
30.705,-0.221,0.951,0.057
30.715,-0.225,0.955,0.059
30.725,-0.225,0.951,0.061
30.735,-0.221,0.953,0.055
30.745,-0.223,0.949,0.061
30.755,-0.221,0.951,0.059
30.764,-0.223,0.949,0.055
30.774,-0.221,0.953,0.057
30.784,-0.223,0.951,0.059
30.794,-0.221,0.953,0.055
30.804,-0.221,0.955,0.061
30.814,-0.221,0.949,0.055
30.824,-0.221,0.951,0.057
30.834,-0.219,0.951,0.057
30.844,-0.223,0.953,0.059
30.854,-0.219,0.957,0.061
30.864,-0.217,0.953,0.057
30.874,-0.221,0.953,0.059
30.884,-0.219,0.955,0.059
30.894,-0.217,0.951,0.057
30.904,-0.219,0.949,0.061
30.913,-0.219,0.953,0.057
30.923,-0.219,0.949,0.059
30.933,-0.217,0.951,0.057
30.943,-0.217,0.955,0.062
30.953,-0.217,0.953,0.061
30.963,-0.221,0.951,0.059
30.973,-0.223,0.949,0.055
30.983,-0.223,0.951,0.055
30.993,-0.225,0.951,0.057
31.003,-0.223,0.955,0.055
31.013,-0.221,0.957,0.059
31.023,-0.221,0.957,0.055
31.033,-0.223,0.953,0.057
31.043,-0.221,0.947,0.053
31.052,-0.221,0.945,0.055
31.062,-0.219,0.947,0.053
31.072,-0.221,0.949,0.057
31.082,-0.217,0.951,0.057
31.092,-0.219,0.951,0.059
31.102,-0.219,0.953,0.057
31.112,-0.221,0.951,0.059
31.122,-0.219,0.949,0.055
31.132,-0.219,0.951,0.057
31.142,-0.223,0.951,0.057
31.152,-0.221,0.953,0.059
31.162,-0.221,0.953,0.055
31.172,-0.221,0.953,0.055
31.182,-0.221,0.953,0.055
31.192,-0.223,0.951,0.057
31.201,-0.221,0.951,0.057
31.211,-0.219,0.953,0.059
31.221,-0.215,0.949,0.055
31.231,-0.219,0.943,0.059
31.241,-0.215,0.943,0.051
31.251,-0.215,0.953,0.059
31.261,-0.215,0.957,0.059
31.271,-0.217,0.959,0.059
31.281,-0.217,0.955,0.062
31.291,-0.217,0.955,0.059
31.301,-0.217,0.953,0.057
31.311,-0.217,0.955,0.061
31.321,-0.219,0.955,0.057
31.331,-0.219,0.955,0.061
31.341,-0.221,0.953,0.057
31.350,-0.219,0.955,0.059
31.360,-0.217,0.951,0.055
31.370,-0.217,0.949,0.059
31.380,-0.219,0.951,0.055
31.390,-0.219,0.947,0.057
31.400,-0.217,0.949,0.059
31.410,-0.217,0.953,0.059
31.420,-0.221,0.959,0.061
31.430,-0.223,0.955,0.057
31.440,-0.227,0.965,0.057
31.450,-0.221,0.967,0.061
31.460,-0.221,0.955,0.055
31.470,-0.217,0.951,0.057
31.480,-0.213,0.953,0.061
31.489,-0.223,0.961,0.062
31.499,-0.217,0.949,0.059
31.509,-0.223,0.953,0.062
31.519,-0.219,0.955,0.062
31.529,-0.219,0.953,0.062
31.539,-0.223,0.949,0.064
31.549,-0.221,0.943,0.064
31.559,-0.223,0.951,0.064
31.569,-0.229,0.949,0.064
31.579,-0.227,0.945,0.064
31.589,-0.223,0.945,0.062
31.599,-0.223,0.943,0.066
31.609,-0.223,0.945,0.062
31.619,-0.225,0.943,0.061
31.629,-0.225,0.945,0.062
31.638,-0.223,0.947,0.068
31.648,-0.223,0.949,0.066
31.658,-0.223,0.951,0.062
31.668,-0.223,0.953,0.068
31.678,-0.225,0.951,0.066
31.688,-0.223,0.953,0.066
31.698,-0.223,0.947,0.064
31.708,-0.221,0.949,0.064
31.718,-0.221,0.951,0.068
31.728,-0.223,0.951,0.064
31.738,-0.221,0.953,0.064
31.748,-0.221,0.951,0.066
31.758,-0.221,0.953,0.064
31.768,-0.219,0.951,0.064
31.778,-0.221,0.953,0.062
31.787,-0.221,0.953,0.061
31.797,-0.219,0.955,0.061
31.807,-0.219,0.951,0.064
31.817,-0.219,0.951,0.062
31.827,-0.217,0.953,0.062
31.837,-0.221,0.953,0.064
31.847,-0.221,0.957,0.061
31.857,-0.219,0.953,0.062
31.867,-0.223,0.955,0.059
31.877,-0.221,0.957,0.061
31.887,-0.219,0.953,0.061
31.897,-0.219,0.957,0.062
31.907,-0.219,0.955,0.061
31.917,-0.217,0.951,0.061
31.927,-0.215,0.947,0.061
31.936,-0.215,0.949,0.061
31.946,-0.215,0.947,0.062
31.956,-0.217,0.951,0.062
31.966,-0.217,0.949,0.059
31.976,-0.221,0.953,0.062
31.986,-0.215,0.959,0.062
31.996,-0.221,0.957,0.062
32.006,-0.223,0.955,0.059
32.016,-0.223,0.951,0.061
32.026,-0.223,0.951,0.059
32.036,-0.223,0.953,0.064
32.046,-0.223,0.953,0.062
32.056,-0.223,0.955,0.062
32.066,-0.223,0.951,0.061
32.075,-0.221,0.949,0.062
32.085,-0.219,0.949,0.062
32.095,-0.219,0.947,0.061
32.105,-0.217,0.949,0.057
32.115,-0.219,0.947,0.062
32.125,-0.221,0.953,0.062
32.135,-0.223,0.953,0.062
32.145,-0.223,0.953,0.062
32.155,-0.223,0.955,0.059
32.165,-0.223,0.955,0.059
32.175,-0.223,0.953,0.062
32.185,-0.225,0.953,0.059
32.195,-0.225,0.955,0.061
32.205,-0.221,0.953,0.059
32.215,-0.225,0.955,0.059
32.224,-0.219,0.949,0.066
32.234,-0.219,0.951,0.062
32.244,-0.213,0.955,0.066
32.254,-0.217,0.949,0.059
32.264,-0.217,0.943,0.057
32.274,-0.215,0.947,0.061
32.284,-0.219,0.949,0.062
32.294,-0.221,0.957,0.062
32.304,-0.213,0.957,0.066
32.314,-0.219,0.955,0.062
32.324,-0.217,0.955,0.062
32.334,-0.217,0.953,0.061
32.344,-0.225,0.949,0.062
32.354,-0.221,0.953,0.062
32.364,-0.217,0.949,0.064
32.373,-0.219,0.951,0.064
32.383,-0.217,0.953,0.061
32.393,-0.219,0.953,0.066
32.403,-0.217,0.951,0.062
32.413,-0.217,0.951,0.061
32.423,-0.213,0.951,0.064
32.433,-0.213,0.957,0.062
32.443,-0.215,0.951,0.061
32.453,-0.213,0.955,0.062
32.463,-0.217,0.949,0.061
32.473,-0.215,0.955,0.061
32.483,-0.213,0.953,0.057
32.493,-0.215,0.953,0.061
32.503,-0.213,0.955,0.059
32.512,-0.217,0.955,0.059
32.522,-0.213,0.961,0.062
32.532,-0.217,0.957,0.057
32.542,-0.217,0.953,0.062
32.552,-0.217,0.955,0.059
32.562,-0.217,0.955,0.062
32.572,-0.219,0.959,0.061
32.582,-0.217,0.953,0.061
32.592,-0.215,0.955,0.061
32.602,-0.217,0.951,0.062
32.612,-0.219,0.951,0.062
32.622,-0.219,0.951,0.062
32.632,-0.219,0.951,0.059
32.642,-0.219,0.951,0.061
32.652,-0.225,0.951,0.061
32.661,-0.219,0.951,0.062
32.671,-0.221,0.953,0.061
32.681,-0.221,0.949,0.064
32.691,-0.223,0.951,0.062
32.701,-0.221,0.951,0.061
32.711,-0.223,0.949,0.062
32.721,-0.223,0.947,0.061
32.731,-0.227,0.949,0.061
32.741,-0.223,0.951,0.061
32.751,-0.221,0.949,0.061
32.761,-0.223,0.945,0.062
32.771,-0.223,0.949,0.064
32.781,-0.221,0.955,0.061
32.791,-0.223,0.949,0.061
32.801,-0.227,0.951,0.059
32.810,-0.225,0.951,0.059
32.820,-0.225,0.951,0.059
32.830,-0.225,0.949,0.059
32.840,-0.225,0.955,0.061
32.850,-0.229,0.949,0.059
32.860,-0.227,0.949,0.061
32.870,-0.227,0.949,0.062
32.880,-0.223,0.945,0.062
32.890,-0.223,0.941,0.061
32.900,-0.217,0.947,0.062
32.910,-0.217,0.947,0.061
32.920,-0.223,0.949,0.062
32.930,-0.217,0.953,0.062
32.940,-0.219,0.953,0.062
32.950,-0.223,0.953,0.059
32.959,-0.219,0.951,0.055
32.969,-0.223,0.951,0.055
32.979,-0.221,0.949,0.057
32.989,-0.221,0.953,0.055
32.999,-0.221,0.953,0.057
33.009,-0.223,0.953,0.057
33.019,-0.225,0.953,0.055
33.029,-0.225,0.949,0.055
33.039,-0.227,0.947,0.053
33.049,-0.225,0.947,0.049
33.059,-0.225,0.949,0.047
33.069,-0.225,0.947,0.053
33.079,-0.225,0.949,0.053
33.089,-0.227,0.955,0.047
33.098,-0.227,0.951,0.043
33.108,-0.229,0.953,0.045
33.118,-0.229,0.953,0.041
33.128,-0.230,0.953,0.045
33.138,-0.229,0.953,0.043
33.148,-0.229,0.955,0.047
33.158,-0.227,0.953,0.043
33.168,-0.229,0.955,0.043
33.178,-0.227,0.951,0.045
33.188,-0.223,0.953,0.045
33.198,-0.223,0.953,0.045
33.208,-0.221,0.953,0.041
33.218,-0.225,0.949,0.043
33.228,-0.219,0.949,0.039
33.238,-0.221,0.951,0.043
33.247,-0.221,0.955,0.043
33.257,-0.221,0.953,0.045
33.267,-0.225,0.957,0.043
33.277,-0.225,0.957,0.045
33.287,-0.227,0.955,0.043
33.297,-0.225,0.953,0.039
33.307,-0.225,0.953,0.039
33.317,-0.227,0.951,0.041
33.327,-0.225,0.955,0.039
33.337,-0.227,0.953,0.039
33.347,-0.227,0.951,0.039
33.357,-0.225,0.949,0.041
33.367,-0.227,0.949,0.035
33.377,-0.229,0.945,0.039
33.387,-0.229,0.949,0.039
33.396,-0.227,0.947,0.037
33.406,-0.227,0.953,0.037
33.416,-0.230,0.953,0.037
33.426,-0.229,0.951,0.033
33.436,-0.225,0.951,0.033
33.446,-0.225,0.951,0.035
33.456,-0.227,0.955,0.033
33.466,-0.227,0.955,0.035
33.476,-0.229,0.955,0.037
33.486,-0.229,0.957,0.039
33.496,-0.227,0.957,0.035
33.506,-0.229,0.953,0.039
33.516,-0.229,0.953,0.039
33.526,-0.232,0.955,0.037
33.535,-0.230,0.953,0.039
33.545,-0.234,0.951,0.043
33.555,-0.232,0.949,0.039
33.565,-0.234,0.949,0.041
33.575,-0.234,0.947,0.041
33.585,-0.236,0.947,0.047
33.595,-0.236,0.947,0.047
33.605,-0.234,0.949,0.043
33.615,-0.236,0.947,0.045
33.625,-0.236,0.945,0.045
33.635,-0.236,0.949,0.047
33.645,-0.238,0.949,0.047
33.655,-0.236,0.945,0.047
33.665,-0.236,0.945,0.051
33.675,-0.236,0.947,0.051
33.684,-0.240,0.947,0.051
33.694,-0.236,0.947,0.047
33.704,-0.236,0.945,0.049
33.714,-0.236,0.949,0.047
33.724,-0.234,0.945,0.049
33.734,-0.238,0.947,0.053
33.744,-0.238,0.947,0.049
33.754,-0.238,0.949,0.051
33.764,-0.234,0.947,0.051
33.774,-0.238,0.949,0.047
33.784,-0.236,0.947,0.043
33.794,-0.238,0.949,0.045
33.804,-0.238,0.949,0.051
33.814,-0.232,0.949,0.051
33.824,-0.236,0.951,0.051
33.833,-0.234,0.947,0.047
33.843,-0.234,0.945,0.049
33.853,-0.230,0.947,0.051
33.863,-0.234,0.949,0.051
33.873,-0.232,0.947,0.051
33.883,-0.232,0.949,0.051
33.893,-0.234,0.951,0.057
33.903,-0.234,0.951,0.051
33.913,-0.236,0.947,0.047
33.923,-0.236,0.945,0.047
33.933,-0.236,0.945,0.045
33.943,-0.232,0.949,0.051
33.953,-0.236,0.955,0.051
33.963,-0.234,0.953,0.049
33.973,-0.236,0.951,0.045
33.982,-0.234,0.947,0.047
33.992,-0.236,0.949,0.045
34.002,-0.234,0.943,0.043
34.012,-0.230,0.945,0.049
34.022,-0.230,0.949,0.049
34.032,-0.229,0.947,0.049
34.042,-0.229,0.947,0.047
34.052,-0.229,0.953,0.045
34.062,-0.229,0.949,0.047
34.072,-0.230,0.951,0.045
34.082,-0.232,0.951,0.043
34.092,-0.229,0.951,0.043
34.102,-0.229,0.951,0.041
34.112,-0.232,0.951,0.041
34.121,-0.230,0.953,0.043
34.131,-0.232,0.951,0.043
34.141,-0.230,0.949,0.043
34.151,-0.225,0.953,0.041
34.161,-0.227,0.951,0.045
34.171,-0.230,0.951,0.043
34.181,-0.225,0.947,0.041
34.191,-0.227,0.949,0.039
34.201,-0.232,0.957,0.037
34.211,-0.232,0.953,0.041
34.221,-0.230,0.955,0.039
34.231,-0.232,0.955,0.043
34.241,-0.232,0.955,0.041
34.251,-0.232,0.951,0.041
34.261,-0.230,0.953,0.041
34.270,-0.232,0.951,0.043
34.280,-0.234,0.951,0.041
34.290,-0.232,0.951,0.043
34.300,-0.234,0.949,0.039
34.310,-0.234,0.947,0.037
34.320,-0.236,0.947,0.041
34.330,-0.236,0.947,0.039
34.340,-0.234,0.947,0.041
34.350,-0.238,0.947,0.039
34.360,-0.238,0.949,0.043
34.370,-0.240,0.951,0.037
34.380,-0.242,0.953,0.039
34.390,-0.240,0.951,0.037
34.400,-0.242,0.951,0.041
34.410,-0.240,0.953,0.043
34.419,-0.242,0.949,0.043
34.429,-0.244,0.949,0.041
34.439,-0.242,0.947,0.041
34.449,-0.246,0.951,0.039
34.459,-0.242,0.949,0.043
34.469,-0.242,0.947,0.045
34.479,-0.246,0.949,0.043
34.489,-0.248,0.947,0.045
34.499,-0.246,0.945,0.045
34.509,-0.246,0.947,0.047
34.519,-0.250,0.945,0.043
34.529,-0.248,0.945,0.043
34.539,-0.250,0.945,0.045
34.549,-0.248,0.947,0.047
34.558,-0.254,0.943,0.047
34.568,-0.250,0.947,0.045
34.578,-0.250,0.943,0.047
34.588,-0.250,0.941,0.045
34.598,-0.254,0.945,0.047
34.608,-0.250,0.943,0.049
34.618,-0.252,0.943,0.051
34.628,-0.252,0.943,0.045
34.638,-0.252,0.943,0.051
34.648,-0.252,0.943,0.051
34.658,-0.250,0.943,0.049
34.668,-0.250,0.943,0.051
34.678,-0.250,0.943,0.051
34.688,-0.252,0.945,0.051
34.698,-0.250,0.947,0.049
34.707,-0.250,0.949,0.049
34.717,-0.250,0.947,0.051
34.727,-0.252,0.945,0.051
34.737,-0.250,0.947,0.051
34.747,-0.252,0.945,0.049
34.757,-0.248,0.947,0.055
34.767,-0.250,0.949,0.049
34.777,-0.252,0.949,0.051
34.787,-0.248,0.947,0.049
34.797,-0.244,0.945,0.053
34.807,-0.244,0.945,0.051
34.817,-0.244,0.945,0.053
34.827,-0.246,0.947,0.049
34.837,-0.244,0.947,0.053
34.847,-0.242,0.947,0.053
34.856,-0.244,0.949,0.051
34.866,-0.246,0.949,0.049
34.876,-0.246,0.945,0.047
34.886,-0.250,0.945,0.049
34.896,-0.248,0.955,0.047
34.906,-0.246,0.953,0.049
34.916,-0.244,0.955,0.049
34.926,-0.242,0.947,0.047
34.936,-0.244,0.947,0.049
34.946,-0.242,0.939,0.047
34.956,-0.240,0.941,0.045
34.966,-0.244,0.945,0.047
34.976,-0.240,0.947,0.047
34.986,-0.240,0.947,0.047
34.996,-0.244,0.947,0.051
35.005,-0.244,0.945,0.049
35.015,-0.240,0.949,0.049
35.025,-0.242,0.947,0.047
35.035,-0.246,0.949,0.049
35.045,-0.244,0.947,0.049
35.055,-0.244,0.947,0.051
35.065,-0.242,0.947,0.049
35.075,-0.244,0.949,0.049
35.085,-0.246,0.947,0.047
35.095,-0.240,0.947,0.051
35.105,-0.242,0.947,0.049
35.115,-0.238,0.947,0.051
35.125,-0.242,0.941,0.045
35.135,-0.242,0.941,0.047
35.144,-0.242,0.943,0.047
35.154,-0.244,0.947,0.047
35.164,-0.242,0.951,0.049
35.174,-0.242,0.949,0.047
35.184,-0.244,0.949,0.047
35.194,-0.244,0.951,0.049
35.204,-0.242,0.945,0.047
35.214,-0.242,0.947,0.049
35.224,-0.242,0.949,0.049
35.234,-0.242,0.949,0.049
35.244,-0.240,0.951,0.045
35.254,-0.240,0.945,0.043
35.264,-0.242,0.945,0.045
35.274,-0.236,0.945,0.043
35.284,-0.240,0.945,0.043
35.293,-0.240,0.945,0.043
35.303,-0.240,0.947,0.043
35.313,-0.242,0.949,0.043
35.323,-0.240,0.951,0.039
35.333,-0.244,0.951,0.041
35.343,-0.242,0.949,0.039
35.353,-0.240,0.951,0.043
35.363,-0.246,0.953,0.039
35.373,-0.244,0.951,0.043
35.383,-0.244,0.953,0.039
35.393,-0.242,0.953,0.045
35.403,-0.242,0.953,0.045
35.413,-0.240,0.951,0.045
35.423,-0.238,0.945,0.043
35.433,-0.236,0.947,0.047
35.442,-0.240,0.943,0.045
35.452,-0.242,0.943,0.045
35.462,-0.238,0.945,0.045
35.472,-0.236,0.941,0.043
35.482,-0.240,0.943,0.045
35.492,-0.244,0.945,0.043
35.502,-0.242,0.943,0.043
35.512,-0.242,0.945,0.043
35.522,-0.242,0.945,0.043
35.532,-0.240,0.947,0.041
35.542,-0.242,0.949,0.043
35.552,-0.238,0.949,0.041
35.562,-0.238,0.947,0.041
35.572,-0.242,0.947,0.041
35.582,-0.240,0.949,0.041
35.591,-0.236,0.947,0.041
35.601,-0.238,0.951,0.043
35.611,-0.238,0.949,0.039
35.621,-0.238,0.949,0.041
35.631,-0.234,0.947,0.043
35.641,-0.234,0.949,0.039
35.651,-0.234,0.951,0.037
35.661,-0.234,0.953,0.039
35.671,-0.238,0.953,0.037
35.681,-0.236,0.951,0.039
35.691,-0.236,0.953,0.037
35.701,-0.238,0.953,0.037
35.711,-0.236,0.949,0.041
35.721,-0.234,0.951,0.039
35.730,-0.234,0.953,0.041
35.740,-0.240,0.951,0.039
35.750,-0.238,0.949,0.041
35.760,-0.240,0.945,0.043
35.770,-0.236,0.943,0.039
35.780,-0.234,0.947,0.043
35.790,-0.230,0.947,0.043
35.800,-0.236,0.947,0.043
35.810,-0.236,0.951,0.047
35.820,-0.234,0.951,0.045
35.830,-0.238,0.949,0.041
35.840,-0.236,0.949,0.039
35.850,-0.238,0.947,0.039
35.860,-0.238,0.951,0.041
35.870,-0.240,0.953,0.043
35.879,-0.240,0.953,0.043
35.889,-0.240,0.953,0.043
35.899,-0.236,0.949,0.041
35.909,-0.238,0.947,0.037
35.919,-0.238,0.943,0.041
35.929,-0.232,0.947,0.041
35.939,-0.238,0.945,0.041
35.949,-0.236,0.947,0.041
35.959,-0.238,0.949,0.043
35.969,-0.236,0.947,0.043
35.979,-0.236,0.949,0.045
35.989,-0.236,0.945,0.043
35.999,-0.238,0.949,0.043
36.009,-0.240,0.947,0.043
36.019,-0.240,0.945,0.041
36.028,-0.238,0.949,0.045
36.038,-0.238,0.951,0.045
36.048,-0.238,0.949,0.045
36.058,-0.236,0.947,0.047
36.068,-0.232,0.951,0.047
36.078,-0.229,0.951,0.049
36.088,-0.229,0.943,0.043
36.098,-0.225,0.941,0.041
36.108,-0.227,0.947,0.043
36.118,-0.223,0.953,0.045
36.128,-0.225,0.955,0.047
36.138,-0.225,0.955,0.045
36.148,-0.223,0.957,0.045
36.158,-0.223,0.955,0.047
36.167,-0.225,0.951,0.039
36.177,-0.219,0.953,0.045
36.187,-0.225,0.951,0.041
36.197,-0.223,0.955,0.039
36.207,-0.219,0.951,0.041
36.217,-0.221,0.949,0.041
36.227,-0.217,0.951,0.041
36.237,-0.219,0.955,0.043
36.247,-0.215,0.955,0.043
36.257,-0.217,0.953,0.043
36.267,-0.217,0.959,0.041
36.277,-0.217,0.957,0.041
36.287,-0.217,0.957,0.039
36.297,-0.213,0.959,0.041
36.307,-0.217,0.957,0.041
36.316,-0.215,0.955,0.039
36.326,-0.213,0.955,0.039
36.336,-0.215,0.951,0.041
36.346,-0.215,0.951,0.043
36.356,-0.217,0.951,0.043
36.366,-0.221,0.951,0.043
36.376,-0.219,0.959,0.045
36.386,-0.217,0.953,0.043
36.396,-0.221,0.955,0.045
36.406,-0.219,0.951,0.045
36.416,-0.221,0.951,0.049
36.426,-0.219,0.947,0.043
36.436,-0.219,0.951,0.047
36.446,-0.221,0.951,0.047
36.456,-0.223,0.951,0.047
36.465,-0.221,0.953,0.047
36.475,-0.223,0.953,0.049
36.485,-0.223,0.951,0.045
36.495,-0.225,0.951,0.047
36.505,-0.223,0.951,0.051
36.515,-0.225,0.949,0.051
36.525,-0.227,0.949,0.049
36.535,-0.227,0.953,0.051
36.545,-0.227,0.949,0.051
36.555,-0.225,0.953,0.053
36.565,-0.225,0.951,0.051
36.575,-0.227,0.953,0.051
36.585,-0.229,0.953,0.051
36.595,-0.227,0.947,0.051
36.605,-0.227,0.951,0.053
36.614,-0.227,0.947,0.051
36.624,-0.230,0.951,0.051
36.634,-0.229,0.951,0.051
36.644,-0.230,0.951,0.055
36.654,-0.229,0.953,0.055
36.664,-0.229,0.951,0.053
36.674,-0.229,0.949,0.053
36.684,-0.229,0.949,0.053
36.694,-0.227,0.943,0.051
36.704,-0.223,0.951,0.059
36.714,-0.229,0.945,0.059
36.724,-0.230,0.953,0.057
36.734,-0.229,0.951,0.059
36.744,-0.232,0.953,0.059
36.753,-0.230,0.955,0.059
36.763,-0.230,0.951,0.055
36.773,-0.230,0.949,0.053
36.783,-0.230,0.949,0.053
36.793,-0.230,0.951,0.057
36.803,-0.232,0.949,0.057
36.813,-0.229,0.951,0.057
36.823,-0.230,0.949,0.059
36.833,-0.227,0.947,0.057
36.843,-0.227,0.943,0.055
36.853,-0.227,0.943,0.053
36.863,-0.229,0.943,0.051
36.873,-0.229,0.945,0.053
36.883,-0.229,0.951,0.055
36.893,-0.229,0.949,0.055
36.902,-0.230,0.953,0.055
36.912,-0.230,0.953,0.055
36.922,-0.230,0.953,0.055
36.932,-0.232,0.953,0.055
36.942,-0.230,0.955,0.051
36.952,-0.229,0.953,0.053
36.962,-0.230,0.955,0.053
36.972,-0.227,0.955,0.051
36.982,-0.225,0.949,0.053
36.992,-0.223,0.951,0.053
37.002,-0.221,0.953,0.055
37.012,-0.221,0.949,0.053
37.022,-0.223,0.945,0.047
37.032,-0.221,0.947,0.049
37.042,-0.223,0.951,0.051
37.051,-0.223,0.955,0.053
37.061,-0.223,0.957,0.053
37.071,-0.227,0.955,0.053
37.081,-0.227,0.951,0.055
37.091,-0.225,0.953,0.049
37.101,-0.227,0.947,0.049
37.111,-0.227,0.949,0.051
37.121,-0.225,0.951,0.051
37.131,-0.229,0.953,0.053
37.141,-0.227,0.951,0.053
37.151,-0.223,0.955,0.053
37.161,-0.225,0.953,0.049
37.171,-0.221,0.947,0.053
37.181,-0.223,0.947,0.049
37.190,-0.223,0.951,0.049
37.200,-0.225,0.949,0.047
37.210,-0.225,0.953,0.049
37.220,-0.225,0.953,0.049
37.230,-0.223,0.953,0.047
37.240,-0.227,0.953,0.047
37.250,-0.225,0.955,0.049
37.260,-0.225,0.951,0.045
37.270,-0.225,0.951,0.049
37.280,-0.227,0.955,0.049
37.290,-0.225,0.955,0.053
37.300,-0.227,0.953,0.053
37.310,-0.223,0.955,0.049
37.320,-0.225,0.949,0.049
37.330,-0.227,0.955,0.051
37.339,-0.227,0.949,0.051
37.349,-0.229,0.951,0.053
37.359,-0.227,0.951,0.053
37.369,-0.229,0.949,0.055
37.379,-0.230,0.949,0.055
37.389,-0.225,0.949,0.053
37.399,-0.230,0.947,0.051
37.409,-0.230,0.949,0.055
37.419,-0.232,0.947,0.055
37.429,-0.232,0.949,0.057
37.439,-0.230,0.943,0.057
37.449,-0.230,0.949,0.055
37.459,-0.229,0.949,0.053
37.469,-0.232,0.949,0.055
37.479,-0.232,0.949,0.051
37.488,-0.232,0.949,0.051
37.498,-0.230,0.949,0.051
37.508,-0.232,0.949,0.053
37.518,-0.230,0.951,0.057
37.528,-0.230,0.951,0.053
37.538,-0.230,0.951,0.055
37.548,-0.227,0.949,0.053
37.558,-0.225,0.945,0.053
37.568,-0.227,0.949,0.057
37.578,-0.225,0.949,0.053
37.588,-0.229,0.949,0.055
37.598,-0.227,0.951,0.053
37.608,-0.227,0.955,0.055
37.618,-0.225,0.957,0.055
37.628,-0.223,0.953,0.051
37.637,-0.230,0.951,0.049
37.647,-0.230,0.951,0.049
37.657,-0.229,0.951,0.055
37.667,-0.230,0.957,0.053
37.677,-0.229,0.955,0.053
37.687,-0.227,0.953,0.053
37.697,-0.225,0.949,0.051
37.707,-0.227,0.949,0.049
37.717,-0.225,0.947,0.053
37.727,-0.225,0.947,0.047
37.737,-0.227,0.951,0.049
37.747,-0.225,0.949,0.049
37.757,-0.225,0.949,0.051
37.767,-0.225,0.951,0.049
37.776,-0.227,0.951,0.049
37.786,-0.229,0.949,0.043
37.796,-0.227,0.953,0.047
37.806,-0.230,0.953,0.045
37.816,-0.229,0.953,0.047
37.826,-0.227,0.955,0.049
37.836,-0.230,0.953,0.049
37.846,-0.229,0.951,0.051
37.856,-0.227,0.949,0.049
37.866,-0.227,0.953,0.049
37.876,-0.221,0.949,0.051
37.886,-0.223,0.943,0.041
37.896,-0.225,0.945,0.045
37.906,-0.223,0.949,0.045
37.916,-0.227,0.955,0.049
37.925,-0.225,0.955,0.051
37.935,-0.223,0.957,0.049
37.945,-0.221,0.955,0.049
37.955,-0.223,0.953,0.051
37.965,-0.227,0.949,0.049
37.975,-0.223,0.953,0.049
37.985,-0.225,0.951,0.051
37.995,-0.225,0.953,0.049
38.005,-0.227,0.951,0.051
38.015,-0.221,0.951,0.049
38.025,-0.225,0.951,0.049
38.035,-0.225,0.947,0.049
38.045,-0.223,0.953,0.047
38.055,-0.225,0.949,0.051
38.065,-0.225,0.951,0.047
38.074,-0.223,0.947,0.047
38.084,-0.227,0.951,0.047
38.094,-0.227,0.951,0.051
38.104,-0.227,0.953,0.049
38.114,-0.227,0.953,0.045
38.124,-0.225,0.953,0.047
38.134,-0.225,0.953,0.049
38.144,-0.225,0.951,0.051
38.154,-0.225,0.953,0.047
38.164,-0.227,0.955,0.049
38.174,-0.225,0.953,0.053
38.184,-0.229,0.953,0.053
38.194,-0.230,0.951,0.051
38.204,-0.229,0.953,0.051
38.213,-0.230,0.951,0.051
38.223,-0.229,0.949,0.051
38.233,-0.229,0.947,0.051
38.243,-0.229,0.947,0.049
38.253,-0.230,0.947,0.053
38.263,-0.230,0.951,0.051
38.273,-0.232,0.949,0.047
38.283,-0.232,0.945,0.049
38.293,-0.230,0.949,0.053
38.303,-0.227,0.949,0.051
38.313,-0.230,0.951,0.051
38.323,-0.230,0.949,0.055
38.333,-0.227,0.949,0.049
38.343,-0.229,0.949,0.051
38.353,-0.229,0.947,0.053
38.362,-0.230,0.949,0.051
38.372,-0.229,0.949,0.051
38.382,-0.227,0.949,0.053
38.392,-0.230,0.951,0.049
38.402,-0.229,0.953,0.049
38.412,-0.225,0.951,0.047
38.422,-0.227,0.953,0.047
38.432,-0.227,0.953,0.049
38.442,-0.229,0.951,0.053
38.452,-0.223,0.957,0.049
38.462,-0.223,0.949,0.051
38.472,-0.223,0.951,0.049
38.482,-0.223,0.949,0.049
38.492,-0.221,0.949,0.049
38.502,-0.223,0.949,0.053
38.511,-0.219,0.955,0.049
38.521,-0.221,0.953,0.051
38.531,-0.223,0.953,0.051
38.541,-0.229,0.951,0.045
38.551,-0.229,0.947,0.043
38.561,-0.227,0.953,0.047
38.571,-0.230,0.955,0.051
38.581,-0.227,0.959,0.049
38.591,-0.229,0.955,0.051
38.601,-0.225,0.953,0.049
38.611,-0.227,0.947,0.049
38.621,-0.225,0.947,0.045
38.631,-0.223,0.947,0.047
38.641,-0.221,0.949,0.047
38.651,-0.221,0.949,0.045
38.660,-0.221,0.951,0.045
38.670,-0.225,0.949,0.051
38.680,-0.221,0.951,0.047
38.690,-0.223,0.949,0.045
38.700,-0.225,0.951,0.047
38.710,-0.227,0.953,0.047
38.720,-0.225,0.953,0.047
38.730,-0.223,0.951,0.047
38.740,-0.227,0.957,0.045
38.750,-0.225,0.957,0.045
38.760,-0.225,0.951,0.047
38.770,-0.221,0.953,0.047
38.780,-0.221,0.951,0.051
38.790,-0.219,0.951,0.047
38.799,-0.221,0.945,0.047
38.809,-0.221,0.947,0.049
38.819,-0.225,0.949,0.043
38.829,-0.221,0.955,0.049
38.839,-0.221,0.955,0.051
38.849,-0.219,0.957,0.049
38.859,-0.221,0.955,0.049
38.869,-0.221,0.951,0.047
38.879,-0.223,0.953,0.049
38.889,-0.225,0.955,0.047
38.899,-0.221,0.955,0.051
38.909,-0.221,0.953,0.049
38.919,-0.227,0.953,0.049
38.929,-0.223,0.949,0.047
38.939,-0.221,0.949,0.047
38.948,-0.221,0.949,0.049
38.958,-0.223,0.951,0.047
38.968,-0.223,0.953,0.045
38.978,-0.225,0.949,0.049
38.988,-0.223,0.953,0.047
38.998,-0.227,0.955,0.043
39.008,-0.229,0.953,0.047
39.018,-0.227,0.955,0.045
39.028,-0.229,0.955,0.045
39.038,-0.227,0.953,0.045
39.048,-0.225,0.955,0.045
39.058,-0.227,0.953,0.047
39.068,-0.225,0.955,0.047
39.078,-0.227,0.953,0.043
39.088,-0.227,0.953,0.049
39.097,-0.227,0.951,0.047
39.107,-0.229,0.953,0.049
39.117,-0.227,0.949,0.051
39.127,-0.230,0.947,0.047
39.137,-0.232,0.951,0.049
39.147,-0.234,0.947,0.051
39.157,-0.232,0.949,0.051
39.167,-0.236,0.949,0.047
39.177,-0.232,0.949,0.049
39.187,-0.234,0.945,0.051
39.197,-0.232,0.949,0.051
39.207,-0.230,0.949,0.049
39.217,-0.230,0.951,0.047
39.227,-0.232,0.949,0.047
39.236,-0.230,0.949,0.051
39.246,-0.234,0.949,0.053
39.256,-0.230,0.949,0.047
39.266,-0.227,0.949,0.049
39.276,-0.227,0.949,0.049
39.286,-0.230,0.951,0.049
39.296,-0.230,0.951,0.047
39.306,-0.230,0.949,0.049
39.316,-0.229,0.953,0.051
39.326,-0.227,0.949,0.051
39.336,-0.230,0.951,0.049
39.346,-0.227,0.951,0.051
39.356,-0.229,0.953,0.049
39.366,-0.229,0.955,0.047
39.376,-0.229,0.951,0.049
39.385,-0.229,0.953,0.047
39.395,-0.227,0.953,0.047
39.405,-0.229,0.955,0.047
39.415,-0.227,0.951,0.049
39.425,-0.223,0.951,0.047
39.435,-0.227,0.955,0.049
39.445,-0.223,0.951,0.049
39.455,-0.223,0.949,0.053
39.465,-0.223,0.943,0.051
39.475,-0.223,0.949,0.051
39.485,-0.223,0.949,0.051
39.495,-0.225,0.949,0.055
39.505,-0.221,0.953,0.055
39.515,-0.221,0.949,0.053
39.525,-0.225,0.951,0.053
39.534,-0.229,0.949,0.049
39.544,-0.227,0.949,0.045
39.554,-0.230,0.955,0.047
39.564,-0.232,0.955,0.051
39.574,-0.227,0.955,0.053
39.584,-0.229,0.953,0.047
39.594,-0.230,0.951,0.049
39.604,-0.229,0.949,0.049
39.614,-0.225,0.945,0.049
39.624,-0.227,0.949,0.051
39.634,-0.223,0.953,0.051
39.644,-0.223,0.955,0.049
39.654,-0.223,0.953,0.053
39.664,-0.223,0.953,0.049
39.674,-0.227,0.953,0.047
39.683,-0.227,0.951,0.049
39.693,-0.227,0.953,0.047
39.703,-0.227,0.953,0.047
39.713,-0.229,0.953,0.049
39.723,-0.232,0.953,0.047
39.733,-0.230,0.953,0.051
39.743,-0.230,0.951,0.049
39.753,-0.229,0.951,0.051
39.763,-0.227,0.947,0.051
39.773,-0.225,0.951,0.049
39.783,-0.227,0.945,0.049
39.793,-0.223,0.947,0.045
39.803,-0.229,0.949,0.045
39.813,-0.230,0.953,0.049
39.822,-0.227,0.953,0.051
39.832,-0.229,0.953,0.051
39.842,-0.227,0.953,0.051
39.852,-0.229,0.951,0.051
39.862,-0.229,0.951,0.047
39.872,-0.230,0.951,0.049
39.882,-0.230,0.951,0.053
39.892,-0.229,0.949,0.047
39.902,-0.229,0.949,0.049
39.912,-0.227,0.951,0.049
39.922,-0.227,0.947,0.049
39.932,-0.227,0.949,0.049
39.942,-0.230,0.949,0.049
39.952,-0.230,0.947,0.045
39.962,-0.229,0.947,0.047
39.971,-0.229,0.953,0.043
39.981,-0.230,0.953,0.045
39.991,-0.230,0.955,0.047
40.001,-0.232,0.957,0.047
40.011,-0.229,0.955,0.043
40.021,-0.227,0.955,0.047
40.031,-0.229,0.953,0.047
40.041,-0.230,0.953,0.045
40.051,-0.227,0.951,0.049
40.061,-0.230,0.953,0.049
40.071,-0.229,0.955,0.051
40.081,-0.229,0.949,0.049
40.091,-0.227,0.951,0.049
40.101,-0.227,0.947,0.049
40.111,-0.230,0.951,0.051
40.120,-0.229,0.947,0.047
40.130,-0.230,0.949,0.053
40.140,-0.230,0.947,0.051
40.150,-0.234,0.947,0.049
40.160,-0.232,0.943,0.047
40.170,-0.236,0.949,0.051
40.180,-0.234,0.949,0.049
40.190,-0.232,0.947,0.051
40.200,-0.230,0.949,0.051
40.210,-0.232,0.947,0.049
40.220,-0.234,0.947,0.047
40.230,-0.230,0.947,0.049
40.240,-0.230,0.953,0.047
40.250,-0.227,0.949,0.049
40.259,-0.229,0.949,0.047
40.269,-0.229,0.949,0.049
40.279,-0.229,0.951,0.047
40.289,-0.229,0.949,0.051
40.299,-0.230,0.951,0.049
40.309,-0.227,0.955,0.047
40.319,-0.227,0.955,0.053
40.329,-0.230,0.957,0.049
40.339,-0.227,0.957,0.047
40.349,-0.227,0.959,0.049
40.359,-0.227,0.961,0.045
40.369,-0.223,0.957,0.045
40.379,-0.223,0.953,0.045
40.389,-0.221,0.947,0.045
40.399,-0.225,0.945,0.045
40.408,-0.227,0.943,0.049
40.418,-0.227,0.951,0.051
40.428,-0.230,0.949,0.053
40.438,-0.227,0.947,0.049
40.448,-0.229,0.947,0.049
40.458,-0.229,0.947,0.049
40.468,-0.229,0.949,0.047
40.478,-0.227,0.947,0.049
40.488,-0.229,0.949,0.053
40.498,-0.230,0.949,0.055
40.508,-0.232,0.945,0.051
40.518,-0.229,0.947,0.051
40.528,-0.230,0.945,0.053
40.538,-0.232,0.949,0.047
40.548,-0.232,0.945,0.051
40.557,-0.230,0.949,0.051
40.567,-0.232,0.949,0.051
40.577,-0.232,0.949,0.051
40.587,-0.234,0.947,0.051
40.597,-0.236,0.945,0.047
40.607,-0.238,0.949,0.045
40.617,-0.236,0.953,0.049
40.627,-0.238,0.957,0.049
40.637,-0.238,0.953,0.049
40.647,-0.236,0.953,0.049
40.657,-0.236,0.949,0.045
40.667,-0.236,0.949,0.049
40.677,-0.234,0.947,0.045
40.687,-0.234,0.949,0.047
40.697,-0.234,0.949,0.049
40.706,-0.232,0.949,0.049
40.716,-0.234,0.951,0.047
40.726,-0.238,0.949,0.047
40.736,-0.236,0.947,0.045
40.746,-0.240,0.949,0.045
40.756,-0.240,0.947,0.047
40.766,-0.240,0.947,0.047
40.776,-0.240,0.949,0.047
40.786,-0.244,0.949,0.047
40.796,-0.246,0.949,0.047
40.806,-0.244,0.949,0.047
40.816,-0.238,0.949,0.047
40.826,-0.238,0.949,0.051
40.836,-0.236,0.945,0.051
40.845,-0.236,0.943,0.047
40.855,-0.234,0.938,0.049
40.865,-0.236,0.947,0.049
40.875,-0.234,0.949,0.051
40.885,-0.236,0.951,0.051
40.895,-0.238,0.951,0.047
40.905,-0.238,0.951,0.045
40.915,-0.236,0.949,0.047
40.925,-0.234,0.949,0.047
40.935,-0.238,0.947,0.047
40.945,-0.236,0.951,0.043
40.955,-0.238,0.953,0.045
40.965,-0.234,0.949,0.043
40.975,-0.238,0.949,0.045
40.985,-0.236,0.947,0.041
40.994,-0.234,0.951,0.043
41.004,-0.232,0.949,0.043
41.014,-0.234,0.949,0.041
41.024,-0.236,0.951,0.039
41.034,-0.236,0.953,0.039
41.044,-0.234,0.953,0.041
41.054,-0.236,0.953,0.043
41.064,-0.234,0.953,0.041
41.074,-0.236,0.953,0.041
41.084,-0.234,0.953,0.043
41.094,-0.232,0.951,0.041
41.104,-0.232,0.949,0.043
41.114,-0.236,0.951,0.043
41.124,-0.236,0.949,0.041
41.134,-0.234,0.949,0.045
41.143,-0.236,0.951,0.043
41.153,-0.236,0.951,0.045
41.163,-0.238,0.951,0.045
41.173,-0.236,0.951,0.045
41.183,-0.236,0.947,0.045
41.193,-0.238,0.949,0.041
41.203,-0.234,0.951,0.045
41.213,-0.238,0.947,0.043
41.223,-0.238,0.947,0.045
41.233,-0.240,0.951,0.045
41.243,-0.236,0.947,0.047
41.253,-0.236,0.947,0.045
41.263,-0.236,0.949,0.043
41.273,-0.236,0.945,0.043
41.282,-0.234,0.949,0.049
41.292,-0.234,0.947,0.045
41.302,-0.234,0.949,0.043
41.312,-0.232,0.949,0.047
41.322,-0.236,0.949,0.043
41.332,-0.234,0.949,0.045
41.342,-0.232,0.951,0.049
41.352,-0.236,0.949,0.045
41.362,-0.236,0.953,0.047
41.372,-0.236,0.951,0.045
41.382,-0.234,0.949,0.043
41.392,-0.234,0.951,0.045
41.402,-0.234,0.949,0.045
41.412,-0.232,0.947,0.045
41.422,-0.232,0.949,0.047
41.431,-0.232,0.951,0.043
41.441,-0.230,0.951,0.045
41.451,-0.236,0.949,0.047
41.461,-0.232,0.951,0.043
41.471,-0.232,0.945,0.049
41.481,-0.232,0.949,0.045
41.491,-0.232,0.949,0.049
41.501,-0.234,0.947,0.043
41.511,-0.232,0.951,0.047
41.521,-0.236,0.947,0.043
41.531,-0.234,0.945,0.047
41.541,-0.230,0.945,0.045
41.551,-0.230,0.943,0.043
41.561,-0.232,0.947,0.045
41.571,-0.230,0.949,0.043
41.580,-0.234,0.949,0.045
41.590,-0.236,0.951,0.045
41.600,-0.234,0.953,0.043
41.610,-0.234,0.957,0.043
41.620,-0.236,0.947,0.039
41.630,-0.236,0.949,0.041
41.640,-0.232,0.953,0.043
41.650,-0.234,0.953,0.047
41.660,-0.234,0.951,0.043
41.670,-0.236,0.951,0.045
41.680,-0.234,0.949,0.041
41.690,-0.234,0.943,0.039
41.700,-0.232,0.943,0.039
41.710,-0.234,0.941,0.041
41.720,-0.234,0.945,0.039
41.729,-0.238,0.951,0.043
41.739,-0.234,0.949,0.043
41.749,-0.236,0.951,0.041
41.759,-0.234,0.953,0.043
41.769,-0.234,0.953,0.043
41.779,-0.236,0.951,0.039
41.789,-0.234,0.953,0.039
41.799,-0.234,0.953,0.043
41.809,-0.234,0.953,0.045
41.819,-0.234,0.953,0.043
41.829,-0.234,0.947,0.043
41.839,-0.230,0.949,0.045
41.849,-0.229,0.951,0.047
41.859,-0.229,0.949,0.047
41.868,-0.232,0.943,0.043
41.878,-0.230,0.941,0.041
41.888,-0.230,0.945,0.045
41.898,-0.232,0.949,0.043
41.908,-0.232,0.955,0.049
41.918,-0.234,0.953,0.047
41.928,-0.236,0.953,0.051
41.938,-0.234,0.951,0.045
41.948,-0.234,0.951,0.049
41.958,-0.234,0.949,0.047
41.968,-0.230,0.949,0.051
41.978,-0.232,0.949,0.049
41.988,-0.234,0.949,0.049
41.998,-0.232,0.949,0.049
42.008,-0.234,0.945,0.043
42.017,-0.232,0.947,0.047
42.027,-0.234,0.949,0.047
42.037,-0.230,0.947,0.041
42.047,-0.234,0.949,0.041
42.057,-0.234,0.951,0.047
42.067,-0.232,0.947,0.045
42.077,-0.234,0.949,0.045
42.087,-0.232,0.949,0.043
42.097,-0.232,0.951,0.043
42.107,-0.230,0.949,0.043
42.117,-0.232,0.951,0.047
42.127,-0.230,0.953,0.043
42.137,-0.230,0.953,0.045
42.147,-0.232,0.951,0.045
42.157,-0.229,0.951,0.047
42.166,-0.230,0.953,0.045
42.176,-0.234,0.949,0.045
42.186,-0.234,0.953,0.047
42.196,-0.234,0.951,0.049
42.206,-0.232,0.947,0.045
42.216,-0.236,0.947,0.045
42.226,-0.236,0.947,0.051
42.236,-0.236,0.945,0.045
42.246,-0.238,0.947,0.049
42.256,-0.236,0.947,0.045
42.266,-0.238,0.949,0.049
42.276,-0.238,0.947,0.047
42.286,-0.236,0.949,0.047
42.296,-0.238,0.947,0.049
42.306,-0.236,0.947,0.047
42.315,-0.236,0.947,0.051
42.325,-0.242,0.947,0.051
42.335,-0.236,0.947,0.047
42.345,-0.236,0.947,0.045
42.355,-0.238,0.945,0.047
42.365,-0.238,0.951,0.049
42.375,-0.238,0.947,0.047
42.385,-0.236,0.951,0.045
42.395,-0.240,0.951,0.051
42.405,-0.236,0.947,0.041
42.415,-0.236,0.951,0.047
42.425,-0.236,0.951,0.047
42.435,-0.236,0.951,0.047
42.445,-0.234,0.949,0.047
42.454,-0.236,0.957,0.045
42.464,-0.234,0.947,0.047
42.474,-0.232,0.949,0.045
42.484,-0.230,0.947,0.049
42.494,-0.230,0.949,0.045
42.504,-0.232,0.949,0.049
42.514,-0.232,0.951,0.049
42.524,-0.230,0.953,0.051
42.534,-0.230,0.953,0.051
42.544,-0.232,0.949,0.045
42.554,-0.236,0.951,0.043
42.564,-0.236,0.947,0.047
42.574,-0.234,0.947,0.049
42.584,-0.232,0.951,0.047
42.594,-0.234,0.953,0.047
42.603,-0.232,0.951,0.049
42.613,-0.232,0.949,0.047
42.623,-0.232,0.947,0.045
42.633,-0.232,0.949,0.047
42.643,-0.230,0.947,0.047
42.653,-0.232,0.947,0.049
42.663,-0.230,0.951,0.043
42.673,-0.230,0.949,0.045
42.683,-0.234,0.949,0.047
42.693,-0.234,0.949,0.049
42.703,-0.234,0.949,0.045
42.713,-0.234,0.949,0.045
42.723,-0.234,0.951,0.047
42.733,-0.234,0.949,0.047
42.743,-0.234,0.949,0.047
42.752,-0.234,0.953,0.045
42.762,-0.236,0.951,0.047
42.772,-0.234,0.953,0.047
42.782,-0.230,0.949,0.047
42.792,-0.229,0.951,0.049
42.802,-0.230,0.947,0.047
42.812,-0.232,0.943,0.043
42.822,-0.229,0.947,0.045
42.832,-0.232,0.955,0.045
42.842,-0.229,0.955,0.051
42.852,-0.230,0.955,0.049
42.862,-0.229,0.957,0.051
42.872,-0.229,0.955,0.047
42.882,-0.232,0.951,0.045
42.891,-0.232,0.949,0.047
42.901,-0.230,0.951,0.045
42.911,-0.230,0.951,0.049
42.921,-0.229,0.949,0.049
42.931,-0.230,0.949,0.047
42.941,-0.229,0.947,0.047
42.951,-0.227,0.947,0.049
42.961,-0.229,0.945,0.049
42.971,-0.230,0.949,0.047
42.981,-0.229,0.949,0.047
42.991,-0.230,0.951,0.045
43.001,-0.229,0.951,0.045
43.011,-0.229,0.949,0.047
43.021,-0.230,0.951,0.047
43.031,-0.227,0.953,0.043
43.040,-0.230,0.951,0.045
43.050,-0.229,0.951,0.045
43.060,-0.230,0.953,0.043
43.070,-0.230,0.951,0.047
43.080,-0.232,0.951,0.047
43.090,-0.230,0.949,0.043
43.100,-0.232,0.949,0.045
43.110,-0.230,0.949,0.047
43.120,-0.230,0.949,0.045
43.130,-0.229,0.947,0.045
43.140,-0.229,0.945,0.051
43.150,-0.230,0.947,0.047
43.160,-0.232,0.947,0.047
43.170,-0.234,0.947,0.045
43.180,-0.232,0.949,0.047
43.189,-0.229,0.947,0.045
43.199,-0.230,0.951,0.045
43.209,-0.230,0.951,0.047
43.219,-0.232,0.949,0.047
43.229,-0.232,0.949,0.047
43.239,-0.232,0.949,0.047
43.249,-0.230,0.947,0.047
43.259,-0.230,0.951,0.045
43.269,-0.230,0.951,0.047
43.279,-0.232,0.949,0.049
43.289,-0.232,0.951,0.043
43.299,-0.230,0.953,0.043
43.309,-0.230,0.951,0.043
43.319,-0.234,0.953,0.047
43.329,-0.232,0.947,0.041
43.338,-0.236,0.951,0.041
43.348,-0.234,0.951,0.039
43.358,-0.234,0.951,0.045
43.368,-0.234,0.951,0.041
43.378,-0.232,0.951,0.041
43.388,-0.232,0.953,0.043
43.398,-0.234,0.951,0.043
43.408,-0.236,0.953,0.043
43.418,-0.232,0.949,0.043
43.428,-0.232,0.953,0.041
43.438,-0.234,0.947,0.039
43.448,-0.232,0.947,0.043
43.458,-0.234,0.947,0.041
43.468,-0.234,0.945,0.043
43.477,-0.232,0.947,0.047
43.487,-0.234,0.951,0.047
43.497,-0.232,0.951,0.045
43.507,-0.234,0.949,0.043
43.517,-0.236,0.947,0.039
43.527,-0.238,0.947,0.043
43.537,-0.238,0.945,0.041
43.547,-0.234,0.949,0.043
43.557,-0.240,0.951,0.043
43.567,-0.234,0.955,0.047
43.577,-0.238,0.951,0.037
43.587,-0.238,0.947,0.039
43.597,-0.234,0.943,0.039
43.607,-0.234,0.945,0.041
43.617,-0.234,0.949,0.043
43.626,-0.232,0.949,0.043
43.636,-0.234,0.947,0.043
43.646,-0.234,0.949,0.043
43.656,-0.234,0.953,0.039
43.666,-0.232,0.949,0.041
43.676,-0.236,0.949,0.039
43.686,-0.234,0.949,0.041
43.696,-0.236,0.951,0.039
43.706,-0.234,0.951,0.043
43.716,-0.234,0.953,0.041
43.726,-0.234,0.951,0.037
43.736,-0.232,0.949,0.045
43.746,-0.232,0.951,0.045
43.756,-0.230,0.949,0.045
43.766,-0.229,0.949,0.043
43.775,-0.227,0.945,0.043
43.785,-0.229,0.941,0.043
43.795,-0.229,0.947,0.047
43.805,-0.230,0.951,0.045
43.815,-0.229,0.953,0.045
43.825,-0.227,0.951,0.045
43.835,-0.229,0.953,0.045
43.845,-0.230,0.951,0.045
43.855,-0.227,0.951,0.047
43.865,-0.229,0.951,0.043
43.875,-0.227,0.951,0.047
43.885,-0.227,0.953,0.047
43.895,-0.227,0.951,0.043
43.905,-0.227,0.947,0.045
43.914,-0.225,0.945,0.045
43.924,-0.227,0.947,0.043
43.934,-0.223,0.947,0.041
43.944,-0.227,0.947,0.043
43.954,-0.227,0.951,0.039
43.964,-0.229,0.955,0.037
43.974,-0.229,0.953,0.039
43.984,-0.230,0.955,0.039
43.994,-0.229,0.957,0.039
44.004,-0.229,0.953,0.039
44.014,-0.230,0.953,0.043
44.024,-0.227,0.953,0.039
44.034,-0.229,0.953,0.039
44.044,-0.229,0.953,0.043
44.054,-0.229,0.951,0.043
44.063,-0.229,0.953,0.043
44.073,-0.232,0.951,0.045
44.083,-0.229,0.949,0.043
44.093,-0.230,0.949,0.039
44.103,-0.230,0.947,0.045
44.113,-0.232,0.947,0.045
44.123,-0.234,0.945,0.045
44.133,-0.238,0.949,0.045
44.143,-0.234,0.947,0.047
44.153,-0.234,0.951,0.045
44.163,-0.236,0.949,0.045
44.173,-0.232,0.949,0.045
44.183,-0.236,0.947,0.045
44.193,-0.234,0.949,0.047
44.203,-0.234,0.945,0.047
44.212,-0.232,0.949,0.045
44.222,-0.232,0.949,0.049
44.232,-0.230,0.951,0.043
44.242,-0.230,0.949,0.043
44.252,-0.229,0.951,0.043
44.262,-0.229,0.949,0.043
44.272,-0.230,0.951,0.043
44.282,-0.229,0.949,0.041
44.292,-0.227,0.947,0.043
44.302,-0.229,0.945,0.045
44.312,-0.230,0.949,0.041
44.322,-0.230,0.951,0.045
44.332,-0.229,0.955,0.045
44.342,-0.227,0.951,0.043
44.352,-0.227,0.951,0.041
44.361,-0.229,0.953,0.043
44.371,-0.227,0.953,0.043
44.381,-0.229,0.953,0.043
44.391,-0.229,0.955,0.045
44.401,-0.229,0.955,0.045
44.411,-0.225,0.949,0.045
44.421,-0.223,0.945,0.043
44.431,-0.225,0.951,0.047
44.441,-0.227,0.947,0.043
44.451,-0.223,0.949,0.049
44.461,-0.227,0.953,0.045
44.471,-0.223,0.953,0.049
44.481,-0.227,0.949,0.049
44.491,-0.227,0.951,0.043
44.500,-0.227,0.949,0.043
44.510,-0.229,0.949,0.043
44.520,-0.229,0.953,0.045
44.530,-0.225,0.955,0.045
44.540,-0.225,0.957,0.043
44.550,-0.229,0.955,0.043
44.560,-0.229,0.953,0.043
44.570,-0.227,0.949,0.045
44.580,-0.225,0.945,0.043
44.590,-0.225,0.949,0.043
44.600,-0.227,0.947,0.043
44.610,-0.227,0.949,0.047
44.620,-0.227,0.951,0.045
44.630,-0.227,0.951,0.045
44.640,-0.227,0.951,0.041
44.649,-0.227,0.955,0.045
44.659,-0.232,0.951,0.043
44.669,-0.230,0.955,0.045
44.679,-0.227,0.949,0.045
44.689,-0.230,0.953,0.043
44.699,-0.230,0.953,0.041
44.709,-0.227,0.951,0.047
44.719,-0.227,0.949,0.047
44.729,-0.223,0.951,0.045
44.739,-0.223,0.949,0.045
44.749,-0.223,0.943,0.045
44.759,-0.225,0.941,0.045
44.769,-0.223,0.947,0.041
44.779,-0.223,0.953,0.047
44.789,-0.221,0.957,0.047
44.798,-0.225,0.955,0.045
44.808,-0.225,0.953,0.043
44.818,-0.225,0.953,0.043
44.828,-0.227,0.953,0.043
44.838,-0.227,0.951,0.045
44.848,-0.225,0.953,0.045
44.858,-0.223,0.953,0.043
44.868,-0.227,0.951,0.045
44.878,-0.223,0.955,0.045
44.888,-0.223,0.949,0.045
44.898,-0.219,0.949,0.043
44.908,-0.221,0.951,0.041
44.918,-0.225,0.949,0.043
44.928,-0.225,0.951,0.045
44.937,-0.225,0.951,0.041
44.947,-0.225,0.955,0.043
44.957,-0.227,0.953,0.045
44.967,-0.223,0.955,0.043
44.977,-0.227,0.953,0.043
44.987,-0.225,0.953,0.041
44.997,-0.221,0.951,0.041
45.007,-0.223,0.953,0.043
45.017,-0.219,0.953,0.043
45.027,-0.221,0.955,0.045
45.037,-0.221,0.953,0.047
45.047,-0.223,0.951,0.047
45.057,-0.223,0.953,0.045
45.067,-0.225,0.953,0.049
45.077,-0.223,0.949,0.043
45.086,-0.225,0.951,0.045
45.096,-0.221,0.951,0.047
45.106,-0.225,0.953,0.047
45.116,-0.225,0.951,0.049
45.126,-0.227,0.949,0.045
45.136,-0.227,0.949,0.047
45.146,-0.225,0.949,0.047
45.156,-0.223,0.955,0.043
45.166,-0.223,0.953,0.045
45.176,-0.223,0.949,0.047
45.186,-0.225,0.955,0.049
45.196,-0.223,0.953,0.045
45.206,-0.221,0.953,0.047
45.216,-0.223,0.949,0.047
45.226,-0.223,0.953,0.041
45.235,-0.223,0.951,0.049
45.245,-0.221,0.949,0.043
45.255,-0.219,0.955,0.047
45.265,-0.223,0.949,0.045
45.275,-0.219,0.953,0.045
45.285,-0.223,0.955,0.049
45.295,-0.221,0.955,0.045
45.305,-0.221,0.951,0.043
45.315,-0.223,0.955,0.049
45.325,-0.221,0.953,0.045
45.335,-0.223,0.955,0.045
45.345,-0.219,0.955,0.045
45.355,-0.221,0.951,0.047
45.365,-0.217,0.953,0.049
45.375,-0.221,0.959,0.049
45.384,-0.221,0.953,0.047
45.394,-0.215,0.945,0.049
45.404,-0.215,0.949,0.047
45.414,-0.215,0.951,0.049
45.424,-0.217,0.949,0.045
45.434,-0.217,0.953,0.049
45.444,-0.217,0.957,0.051
45.454,-0.219,0.959,0.053
45.464,-0.215,0.955,0.049
45.474,-0.217,0.957,0.045
45.484,-0.223,0.955,0.041
45.494,-0.217,0.953,0.045
45.504,-0.219,0.955,0.051
45.514,-0.217,0.957,0.051
45.523,-0.215,0.953,0.047
45.533,-0.215,0.953,0.051
45.543,-0.217,0.951,0.049
45.553,-0.215,0.947,0.045
45.563,-0.213,0.947,0.043
45.573,-0.213,0.947,0.049
45.583,-0.219,0.951,0.047
45.593,-0.215,0.951,0.049
45.603,-0.215,0.957,0.049
45.613,-0.215,0.953,0.047
45.623,-0.215,0.955,0.047
45.633,-0.215,0.955,0.047
45.643,-0.217,0.955,0.047
45.653,-0.215,0.957,0.047
45.663,-0.215,0.955,0.045
45.672,-0.213,0.955,0.045
45.682,-0.215,0.957,0.049
45.692,-0.211,0.959,0.051
45.702,-0.211,0.953,0.053
45.712,-0.209,0.953,0.049
45.722,-0.209,0.947,0.047
45.732,-0.205,0.947,0.045
45.742,-0.209,0.951,0.047
45.752,-0.209,0.951,0.051
45.762,-0.209,0.955,0.051
45.772,-0.211,0.957,0.049
45.782,-0.209,0.957,0.051
45.792,-0.215,0.953,0.049
45.802,-0.209,0.953,0.047
45.812,-0.211,0.951,0.045
45.821,-0.211,0.955,0.051
45.831,-0.213,0.955,0.049
45.841,-0.211,0.955,0.049
45.851,-0.207,0.955,0.049
45.861,-0.211,0.953,0.047
45.871,-0.207,0.951,0.051
45.881,-0.205,0.953,0.051
45.891,-0.207,0.955,0.051
45.901,-0.207,0.951,0.051
45.911,-0.209,0.951,0.045
45.921,-0.209,0.953,0.049
45.931,-0.207,0.953,0.049
45.941,-0.207,0.953,0.047
45.951,-0.209,0.955,0.047
45.960,-0.209,0.957,0.047
45.970,-0.207,0.955,0.047
45.980,-0.209,0.959,0.049
45.990,-0.211,0.959,0.049
46.000,-0.207,0.959,0.047
46.010,-0.207,0.957,0.049
46.020,-0.205,0.959,0.045
46.030,-0.209,0.957,0.053
46.040,-0.205,0.959,0.047
46.050,-0.209,0.955,0.051
46.060,-0.207,0.955,0.047
46.070,-0.209,0.955,0.047
46.080,-0.211,0.949,0.051
46.090,-0.207,0.955,0.047
46.100,-0.211,0.953,0.047
46.109,-0.211,0.953,0.053
46.119,-0.211,0.951,0.051
46.129,-0.213,0.951,0.049
46.139,-0.211,0.953,0.049
46.149,-0.211,0.953,0.051
46.159,-0.213,0.951,0.049
46.169,-0.209,0.953,0.051
46.179,-0.213,0.955,0.047
46.189,-0.215,0.955,0.049
46.199,-0.211,0.953,0.047
46.209,-0.211,0.953,0.045
46.219,-0.209,0.953,0.047
46.229,-0.209,0.953,0.045
46.239,-0.211,0.955,0.049
46.249,-0.209,0.957,0.045
46.258,-0.209,0.955,0.047
46.268,-0.209,0.957,0.045
46.278,-0.209,0.957,0.051
46.288,-0.205,0.955,0.045
46.298,-0.203,0.951,0.047
46.308,-0.205,0.951,0.047
46.318,-0.209,0.953,0.045
46.328,-0.205,0.955,0.051
46.338,-0.207,0.959,0.047
46.348,-0.207,0.961,0.049
46.358,-0.205,0.959,0.047
46.368,-0.211,0.959,0.041
46.378,-0.211,0.957,0.041
46.388,-0.211,0.953,0.043
46.398,-0.211,0.955,0.045
46.407,-0.211,0.957,0.047
46.417,-0.211,0.961,0.051
46.427,-0.205,0.955,0.047
46.437,-0.207,0.955,0.049
46.447,-0.207,0.953,0.045
46.457,-0.209,0.949,0.047
46.467,-0.207,0.949,0.045
46.477,-0.207,0.951,0.045
46.487,-0.209,0.951,0.047
46.497,-0.211,0.955,0.047
46.507,-0.209,0.953,0.045
46.517,-0.211,0.955,0.045
46.527,-0.211,0.953,0.047
46.537,-0.211,0.953,0.045
46.546,-0.209,0.953,0.039
46.556,-0.211,0.957,0.043
46.566,-0.211,0.955,0.043
46.576,-0.211,0.957,0.045
46.586,-0.209,0.957,0.049
46.596,-0.205,0.959,0.051
46.606,-0.201,0.957,0.045
46.616,-0.201,0.957,0.041
46.626,-0.201,0.947,0.041
46.636,-0.197,0.949,0.041
46.646,-0.203,0.955,0.043
46.656,-0.203,0.961,0.047
46.666,-0.201,0.961,0.043
46.676,-0.203,0.961,0.045
46.686,-0.209,0.959,0.041
46.695,-0.205,0.957,0.039
46.705,-0.209,0.955,0.039
46.715,-0.207,0.955,0.043
46.725,-0.209,0.959,0.039
46.735,-0.209,0.959,0.039
46.745,-0.211,0.955,0.041
46.755,-0.211,0.953,0.043
46.765,-0.211,0.953,0.041
46.775,-0.213,0.949,0.039
46.785,-0.211,0.951,0.039
46.795,-0.211,0.951,0.041
46.805,-0.215,0.953,0.041
46.815,-0.213,0.951,0.039
46.825,-0.217,0.955,0.041
46.835,-0.215,0.955,0.043
46.844,-0.213,0.955,0.045
46.854,-0.213,0.955,0.039
46.864,-0.215,0.953,0.043
46.874,-0.215,0.955,0.041
46.884,-0.215,0.953,0.041
46.894,-0.217,0.953,0.045
46.904,-0.217,0.957,0.045
46.914,-0.217,0.953,0.043
46.924,-0.219,0.955,0.041
46.934,-0.217,0.953,0.045
46.944,-0.219,0.953,0.043
46.954,-0.217,0.953,0.041
46.964,-0.219,0.953,0.043
46.974,-0.219,0.949,0.045
46.983,-0.217,0.951,0.041
46.993,-0.219,0.951,0.043
47.003,-0.219,0.949,0.041
47.013,-0.221,0.955,0.041
47.023,-0.217,0.951,0.043
47.033,-0.221,0.951,0.043
47.043,-0.219,0.953,0.043
47.053,-0.217,0.953,0.045
47.063,-0.219,0.951,0.043
47.073,-0.215,0.955,0.041
47.083,-0.219,0.953,0.043
47.093,-0.217,0.951,0.041
47.103,-0.221,0.955,0.039
47.113,-0.217,0.951,0.043
47.123,-0.217,0.951,0.041
47.132,-0.221,0.955,0.043
47.142,-0.215,0.953,0.043
47.152,-0.217,0.953,0.045
47.162,-0.217,0.951,0.043
47.172,-0.213,0.953,0.043
47.182,-0.213,0.957,0.045
47.192,-0.215,0.953,0.043
47.202,-0.213,0.953,0.045
47.212,-0.211,0.955,0.043
47.222,-0.213,0.953,0.045
47.232,-0.211,0.953,0.045
47.242,-0.211,0.953,0.047
47.252,-0.207,0.955,0.047
47.262,-0.215,0.953,0.043
47.272,-0.211,0.959,0.045
47.281,-0.213,0.949,0.043
47.291,-0.215,0.951,0.043
47.301,-0.213,0.961,0.043
47.311,-0.215,0.959,0.047
47.321,-0.213,0.959,0.043
47.331,-0.211,0.955,0.047
47.341,-0.211,0.951,0.045
47.351,-0.209,0.951,0.041
47.361,-0.211,0.949,0.041
47.371,-0.211,0.951,0.045
47.381,-0.213,0.953,0.041
47.391,-0.209,0.953,0.045
47.401,-0.209,0.955,0.043
47.411,-0.213,0.955,0.041
47.421,-0.211,0.955,0.043
47.430,-0.211,0.953,0.045
47.440,-0.213,0.955,0.041
47.450,-0.211,0.953,0.039
47.460,-0.213,0.953,0.041
47.470,-0.215,0.955,0.041
47.480,-0.217,0.955,0.043
47.490,-0.217,0.953,0.041
47.500,-0.211,0.953,0.043
47.510,-0.209,0.955,0.043
47.520,-0.205,0.953,0.041
47.530,-0.207,0.949,0.039
47.540,-0.209,0.947,0.037
47.550,-0.209,0.955,0.039
47.560,-0.205,0.959,0.041
47.569,-0.209,0.957,0.041
47.579,-0.209,0.959,0.047
47.589,-0.207,0.957,0.041
47.599,-0.207,0.955,0.039
47.609,-0.207,0.953,0.041
47.619,-0.211,0.957,0.041
47.629,-0.209,0.955,0.043
47.639,-0.207,0.955,0.045
47.649,-0.211,0.953,0.043
47.659,-0.207,0.953,0.041
47.669,-0.211,0.953,0.039
47.679,-0.211,0.951,0.039
47.689,-0.209,0.949,0.041
47.699,-0.209,0.951,0.041
47.709,-0.211,0.953,0.041
47.718,-0.209,0.955,0.041
47.728,-0.209,0.955,0.041
47.738,-0.211,0.957,0.039
47.748,-0.213,0.955,0.039
47.758,-0.211,0.955,0.039
47.768,-0.211,0.955,0.041
47.778,-0.209,0.957,0.043
47.788,-0.209,0.955,0.043
47.798,-0.211,0.955,0.041
47.808,-0.211,0.953,0.045
47.818,-0.213,0.955,0.043
47.828,-0.211,0.955,0.041
47.838,-0.211,0.955,0.045
47.848,-0.209,0.953,0.043
47.858,-0.211,0.953,0.045
47.867,-0.213,0.951,0.045
47.877,-0.213,0.949,0.043
47.887,-0.213,0.951,0.045
47.897,-0.217,0.951,0.045
47.907,-0.213,0.951,0.043
47.917,-0.217,0.955,0.045
47.927,-0.215,0.953,0.045
47.937,-0.215,0.953,0.045
47.947,-0.211,0.955,0.043
47.957,-0.213,0.953,0.045
47.967,-0.211,0.953,0.045
47.977,-0.211,0.955,0.043
47.987,-0.211,0.955,0.045
47.997,-0.209,0.953,0.045
48.007,-0.207,0.957,0.049
48.016,-0.209,0.953,0.043
48.026,-0.213,0.953,0.043
48.036,-0.209,0.957,0.041
48.046,-0.207,0.955,0.041
48.056,-0.209,0.953,0.043
48.066,-0.211,0.955,0.039
48.076,-0.209,0.953,0.043
48.086,-0.211,0.953,0.043
48.096,-0.209,0.959,0.041
48.106,-0.211,0.959,0.045
48.116,-0.209,0.959,0.043
48.126,-0.211,0.955,0.043
48.136,-0.211,0.957,0.045
48.146,-0.207,0.959,0.043
48.155,-0.205,0.955,0.043
48.165,-0.207,0.955,0.047
48.175,-0.203,0.955,0.043
48.185,-0.211,0.955,0.043
48.195,-0.205,0.959,0.045
48.205,-0.207,0.961,0.043
48.215,-0.205,0.959,0.043
48.225,-0.205,0.961,0.039
48.235,-0.209,0.957,0.041
48.245,-0.209,0.955,0.037
48.255,-0.213,0.955,0.041
48.265,-0.213,0.961,0.041
48.275,-0.213,0.957,0.041
48.285,-0.215,0.957,0.047
48.295,-0.213,0.953,0.043
48.304,-0.215,0.951,0.043
48.314,-0.217,0.949,0.043
48.324,-0.215,0.947,0.049
48.334,-0.217,0.949,0.049
48.344,-0.213,0.949,0.051
48.354,-0.215,0.951,0.053
48.364,-0.217,0.951,0.051
48.374,-0.215,0.951,0.053
48.384,-0.219,0.953,0.053
48.394,-0.219,0.951,0.051
48.404,-0.215,0.951,0.055
48.414,-0.217,0.951,0.061
48.424,-0.219,0.949,0.061
48.434,-0.217,0.949,0.057
48.444,-0.217,0.949,0.059
48.453,-0.217,0.951,0.062
48.463,-0.211,0.947,0.062
48.473,-0.209,0.949,0.061
48.483,-0.211,0.945,0.059
48.493,-0.207,0.941,0.059
48.503,-0.209,0.949,0.061
48.513,-0.209,0.959,0.059
48.523,-0.205,0.953,0.062
48.533,-0.209,0.955,0.061
48.543,-0.209,0.955,0.057
48.553,-0.213,0.947,0.055
48.563,-0.225,0.943,0.045
48.573,-0.236,0.936,0.037
48.583,-0.279,0.902,0.016
48.592,-0.305,0.912,0.016
48.602,-0.309,0.926,0.021
48.612,-0.314,0.920,0.025
48.622,-0.311,0.922,0.025
48.632,-0.307,0.918,0.021
48.642,-0.297,0.922,0.021
48.652,-0.287,0.930,0.025
48.662,-0.285,0.934,0.020
48.672,-0.281,0.920,0.008
48.682,-0.275,0.916,0.006
48.692,-0.270,0.918,-0.006
48.702,-0.271,0.918,-0.008
48.712,-0.273,0.918,-0.016
48.722,-0.264,0.918,-0.018
48.732,-0.256,0.936,-0.020
48.741,-0.246,0.939,-0.023
48.751,-0.232,0.947,-0.027
48.761,-0.217,0.945,-0.039
48.771,-0.213,0.941,-0.045
48.781,-0.207,0.943,-0.041
48.791,-0.197,0.951,-0.045
48.801,-0.195,0.943,-0.047
48.811,-0.191,0.943,-0.045
48.821,-0.189,0.949,-0.045
48.831,-0.186,0.949,-0.045
48.841,-0.189,0.971,-0.039
48.851,-0.182,0.984,-0.033
48.861,-0.174,0.984,-0.041
48.871,-0.168,0.982,-0.049
48.881,-0.166,0.977,-0.055
48.890,-0.170,0.967,-0.062
48.900,-0.176,0.957,-0.066
48.910,-0.189,0.951,-0.074
48.920,-0.195,0.938,-0.080
48.930,-0.199,0.936,-0.078
48.940,-0.205,0.951,-0.082
48.950,-0.197,0.955,-0.084
48.960,-0.203,0.957,-0.084
48.970,-0.201,0.953,-0.092
48.980,-0.189,0.947,-0.096
48.990,-0.191,0.951,-0.105
49.000,-0.193,0.936,-0.111
49.010,-0.217,0.916,-0.123
49.020,-0.234,0.910,-0.135
49.030,-0.242,0.914,-0.139
49.039,-0.246,0.934,-0.141
49.049,-0.248,0.920,-0.145
49.059,-0.254,0.930,-0.150
49.069,-0.250,0.939,-0.154
49.079,-0.246,0.941,-0.158
49.089,-0.244,0.930,-0.166
49.099,-0.254,0.908,-0.180
49.109,-0.262,0.900,-0.191
49.119,-0.270,0.906,-0.189
49.129,-0.271,0.908,-0.188
49.139,-0.264,0.922,-0.186
49.149,-0.254,0.934,-0.186
49.159,-0.246,0.947,-0.189
49.169,-0.242,0.945,-0.191
49.178,-0.246,0.930,-0.193
49.188,-0.250,0.914,-0.201
49.198,-0.256,0.904,-0.211
49.208,-0.246,0.908,-0.213
49.218,-0.242,0.920,-0.215
49.228,-0.256,0.918,-0.223
49.238,-0.264,0.914,-0.225
49.248,-0.264,0.918,-0.223
49.258,-0.271,0.916,-0.227
49.268,-0.279,0.908,-0.230
49.278,-0.273,0.916,-0.230
49.288,-0.275,0.902,-0.238
49.298,-0.273,0.906,-0.238
49.308,-0.270,0.910,-0.244
49.318,-0.266,0.900,-0.248
49.327,-0.262,0.906,-0.244
49.337,-0.266,0.910,-0.242
49.347,-0.266,0.902,-0.246
49.357,-0.266,0.902,-0.248
49.367,-0.264,0.912,-0.252
49.377,-0.268,0.912,-0.256
49.387,-0.264,0.926,-0.262
49.397,-0.264,0.918,-0.262
49.407,-0.262,0.926,-0.260
49.417,-0.254,0.928,-0.258
49.427,-0.258,0.928,-0.256
49.437,-0.254,0.930,-0.260
49.447,-0.250,0.924,-0.260
49.457,-0.240,0.932,-0.260
49.467,-0.242,0.924,-0.258
49.476,-0.232,0.928,-0.256
49.486,-0.236,0.918,-0.256
49.496,-0.230,0.918,-0.258
49.506,-0.236,0.912,-0.254
49.516,-0.240,0.910,-0.254
49.526,-0.246,0.900,-0.252
49.536,-0.246,0.898,-0.248
49.546,-0.248,0.900,-0.248
49.556,-0.246,0.910,-0.246
49.566,-0.242,0.916,-0.236
49.576,-0.240,0.930,-0.232
49.586,-0.238,0.936,-0.219
49.596,-0.244,0.936,-0.211
49.606,-0.248,0.934,-0.203
49.615,-0.246,0.949,-0.195
49.625,-0.262,0.988,-0.184
49.635,-0.271,1.014,-0.162
49.645,-0.268,0.979,-0.158
49.655,-0.248,0.947,-0.162
49.665,-0.240,0.936,-0.154
49.675,-0.248,0.900,-0.152
49.685,-0.242,0.898,-0.145
49.695,-0.248,0.920,-0.125
49.705,-0.256,0.936,-0.111
49.715,-0.248,0.900,-0.115
49.725,-0.254,0.920,-0.094
49.735,-0.256,0.914,-0.086
49.745,-0.262,0.916,-0.080
49.755,-0.268,0.928,-0.066
49.764,-0.268,0.928,-0.062
49.774,-0.271,0.926,-0.049
49.784,-0.271,0.926,-0.045
49.794,-0.271,0.936,-0.039
49.804,-0.275,0.918,-0.033
49.814,-0.287,0.924,-0.031
49.824,-0.303,0.922,-0.025
49.834,-0.311,0.916,-0.025
49.844,-0.318,0.912,-0.016
49.854,-0.328,0.922,-0.012
49.864,-0.332,0.926,-0.002
49.874,-0.324,0.941,0.006
49.884,-0.318,0.941,0.018
49.894,-0.311,0.926,0.021
49.904,-0.301,0.922,0.025
49.913,-0.303,0.916,0.025
49.923,-0.309,0.902,0.021
49.933,-0.318,0.891,0.018
49.943,-0.322,0.900,0.023
49.953,-0.338,0.908,0.031
49.963,-0.340,0.904,0.039
49.973,-0.342,0.904,0.045
49.983,-0.342,0.932,0.061
49.993,-0.338,0.955,0.074
50.003,-0.336,0.930,0.062
50.013,-0.350,0.918,0.061
50.023,-0.350,0.916,0.064
50.033,-0.352,0.910,0.066
50.043,-0.352,0.908,0.068
50.053,-0.352,0.912,0.074
50.062,-0.354,0.916,0.082
50.072,-0.350,0.920,0.090
50.082,-0.344,0.924,0.096
50.092,-0.344,0.918,0.100
50.102,-0.338,0.914,0.100
50.112,-0.342,0.908,0.102
50.122,-0.354,0.896,0.092
50.132,-0.363,0.889,0.092
50.142,-0.361,0.891,0.104
50.152,-0.367,0.893,0.109
50.162,-0.371,0.904,0.111
50.172,-0.373,0.906,0.119
50.182,-0.365,0.908,0.121
50.192,-0.365,0.910,0.117
50.201,-0.365,0.908,0.117
50.211,-0.363,0.906,0.121
50.221,-0.375,0.898,0.117
50.231,-0.383,0.893,0.115
50.241,-0.387,0.891,0.117
50.251,-0.391,0.883,0.117
50.261,-0.396,0.885,0.117
50.271,-0.402,0.885,0.121
50.281,-0.404,0.885,0.121
50.291,-0.402,0.879,0.125
50.301,-0.404,0.877,0.119
