df_hash,22ZHK4.M833G2
device,HZ2X61
project_hash,29R7
project_name,istanbul_aydin_university
person_hash,29R7.3VJX
person_label,V59
date_time_start,2025-10-31_15-29-03.527000_+03
date_time_start_unix,1761910143.527
date_time_end,2025-10-31_15-37-19.121000_+03
length_difference_noticed,no

time,acc_x,acc_y,acc_z
24.973,-0.686,0.777,0.104
24.983,-0.686,0.779,0.104
24.993,-0.680,0.775,0.104
25.003,-0.684,0.775,0.102
25.013,-0.682,0.773,0.102
25.023,-0.686,0.773,0.100
25.033,-0.686,0.779,0.098
25.043,-0.686,0.777,0.102
25.053,-0.688,0.777,0.100
25.063,-0.689,0.779,0.100
25.073,-0.689,0.777,0.102
25.082,-0.688,0.777,0.098
25.092,-0.686,0.775,0.096
25.102,-0.686,0.779,0.096
25.112,-0.682,0.783,0.096
25.122,-0.682,0.783,0.100
25.132,-0.684,0.781,0.100
25.142,-0.688,0.779,0.096
25.152,-0.684,0.777,0.100
25.162,-0.686,0.779,0.100
25.172,-0.686,0.775,0.098
25.182,-0.678,0.773,0.104
25.192,-0.678,0.775,0.100
25.202,-0.680,0.773,0.096
25.212,-0.680,0.775,0.098
25.221,-0.686,0.777,0.096
25.231,-0.689,0.779,0.098
25.241,-0.689,0.785,0.098
25.251,-0.691,0.781,0.094
25.261,-0.691,0.781,0.094
25.271,-0.693,0.779,0.096
25.281,-0.691,0.775,0.094
25.291,-0.693,0.773,0.096
25.301,-0.693,0.773,0.098
25.311,-0.697,0.775,0.094
25.321,-0.693,0.773,0.098
25.331,-0.688,0.773,0.098
25.341,-0.688,0.777,0.102
25.350,-0.688,0.777,0.098
25.360,-0.686,0.773,0.100
25.370,-0.688,0.779,0.100
25.380,-0.686,0.779,0.104
25.390,-0.688,0.775,0.102
25.400,-0.688,0.777,0.104
25.410,-0.684,0.775,0.105
25.420,-0.684,0.777,0.102
25.430,-0.688,0.775,0.104
25.440,-0.684,0.781,0.102
25.450,-0.686,0.775,0.102
25.460,-0.686,0.775,0.098
25.470,-0.686,0.777,0.100
25.480,-0.689,0.779,0.102
25.489,-0.688,0.781,0.102
25.499,-0.686,0.783,0.104
25.509,-0.686,0.781,0.104
25.519,-0.684,0.783,0.102
25.529,-0.686,0.783,0.100
25.539,-0.686,0.781,0.100
25.549,-0.680,0.779,0.104
25.559,-0.684,0.775,0.104
25.569,-0.686,0.777,0.104
25.579,-0.686,0.777,0.105
25.589,-0.688,0.775,0.104
25.599,-0.689,0.775,0.105
25.609,-0.688,0.775,0.105
25.618,-0.688,0.775,0.104
25.628,-0.686,0.775,0.104
25.638,-0.686,0.775,0.100
25.648,-0.682,0.775,0.102
25.658,-0.682,0.777,0.098
25.668,-0.682,0.775,0.100
25.678,-0.684,0.777,0.100
25.688,-0.684,0.779,0.102
25.698,-0.686,0.779,0.102
25.708,-0.686,0.777,0.100
25.718,-0.689,0.777,0.102
25.728,-0.691,0.779,0.102
25.738,-0.693,0.777,0.105
25.747,-0.693,0.781,0.102
25.757,-0.688,0.777,0.107
25.767,-0.686,0.777,0.104
25.777,-0.688,0.773,0.104
25.787,-0.689,0.768,0.104
25.797,-0.689,0.770,0.104
25.807,-0.695,0.777,0.102
25.817,-0.699,0.775,0.105
25.827,-0.697,0.775,0.104
25.837,-0.695,0.777,0.104
25.847,-0.693,0.775,0.102
25.857,-0.689,0.775,0.102
25.867,-0.688,0.771,0.100
25.877,-0.688,0.771,0.096
25.886,-0.686,0.770,0.098
25.896,-0.689,0.773,0.100
25.906,-0.693,0.775,0.102
25.916,-0.695,0.775,0.102
25.926,-0.695,0.777,0.104
25.936,-0.693,0.779,0.102
25.946,-0.695,0.777,0.104
25.956,-0.689,0.771,0.100
25.966,-0.686,0.771,0.104
25.976,-0.684,0.771,0.104
25.986,-0.686,0.777,0.102
25.996,-0.688,0.773,0.104
26.006,-0.688,0.775,0.105
26.015,-0.691,0.771,0.105
26.025,-0.689,0.773,0.102
26.035,-0.693,0.775,0.104
26.045,-0.689,0.775,0.107
26.055,-0.688,0.775,0.104
26.065,-0.686,0.777,0.102
26.075,-0.686,0.771,0.098
26.085,-0.688,0.779,0.100
26.095,-0.689,0.783,0.100
26.105,-0.695,0.785,0.100
26.115,-0.695,0.781,0.100
26.125,-0.691,0.787,0.104
26.135,-0.691,0.777,0.104
26.145,-0.689,0.781,0.105
26.154,-0.686,0.775,0.109
26.164,-0.680,0.770,0.104
26.174,-0.678,0.773,0.107
26.184,-0.678,0.773,0.105
26.194,-0.678,0.771,0.109
26.204,-0.680,0.773,0.104
26.214,-0.682,0.771,0.107
26.224,-0.686,0.773,0.107
26.234,-0.686,0.766,0.107
26.244,-0.693,0.773,0.104
26.254,-0.691,0.777,0.104
26.264,-0.697,0.781,0.105
26.274,-0.697,0.773,0.100
26.283,-0.699,0.773,0.100
26.293,-0.701,0.773,0.098
26.303,-0.699,0.770,0.098
26.313,-0.703,0.777,0.098
26.323,-0.701,0.775,0.102
26.333,-0.701,0.771,0.102
26.343,-0.695,0.777,0.098
26.353,-0.693,0.773,0.102
26.363,-0.691,0.770,0.105
26.373,-0.691,0.768,0.102
26.383,-0.693,0.770,0.105
26.393,-0.693,0.771,0.105
26.403,-0.697,0.770,0.105
26.413,-0.699,0.768,0.109
26.422,-0.699,0.768,0.107
26.432,-0.699,0.768,0.107
26.442,-0.703,0.770,0.104
26.452,-0.701,0.768,0.105
26.462,-0.705,0.773,0.104
26.472,-0.703,0.773,0.100
26.482,-0.697,0.775,0.105
26.492,-0.701,0.773,0.102
26.502,-0.695,0.771,0.105
26.512,-0.689,0.768,0.104
26.522,-0.691,0.770,0.102
26.532,-0.688,0.766,0.107
26.542,-0.689,0.771,0.109
26.551,-0.688,0.771,0.104
26.561,-0.688,0.771,0.109
26.571,-0.688,0.775,0.107
26.581,-0.689,0.771,0.107
26.591,-0.691,0.773,0.107
26.601,-0.691,0.770,0.105
26.611,-0.695,0.768,0.105
26.621,-0.697,0.771,0.104
26.631,-0.695,0.773,0.107
26.641,-0.699,0.777,0.109
26.651,-0.695,0.777,0.105
26.661,-0.695,0.775,0.105
26.671,-0.695,0.770,0.105
26.680,-0.693,0.770,0.105
26.690,-0.695,0.770,0.105
26.700,-0.691,0.770,0.105
26.710,-0.693,0.768,0.104
26.720,-0.691,0.766,0.104
26.730,-0.691,0.771,0.104
26.740,-0.693,0.770,0.102
26.750,-0.695,0.771,0.104
26.760,-0.695,0.773,0.102
26.770,-0.693,0.775,0.102
26.780,-0.697,0.773,0.102
26.790,-0.695,0.771,0.100
26.800,-0.689,0.773,0.102
26.810,-0.693,0.771,0.100
26.819,-0.693,0.771,0.102
26.829,-0.691,0.770,0.100
26.839,-0.693,0.771,0.104
26.849,-0.691,0.775,0.104
26.859,-0.693,0.777,0.104
26.869,-0.693,0.777,0.102
26.879,-0.693,0.773,0.104
26.889,-0.693,0.771,0.104
26.899,-0.695,0.777,0.105
26.909,-0.695,0.771,0.105
26.919,-0.695,0.768,0.105
26.929,-0.691,0.768,0.105
26.939,-0.691,0.766,0.107
26.948,-0.695,0.766,0.102
26.958,-0.699,0.770,0.104
26.968,-0.699,0.773,0.104
26.978,-0.699,0.775,0.104
26.988,-0.697,0.777,0.104
26.998,-0.695,0.779,0.102
27.008,-0.691,0.775,0.105
27.018,-0.693,0.770,0.104
27.028,-0.689,0.764,0.104
27.038,-0.695,0.764,0.100
27.048,-0.695,0.766,0.100
27.058,-0.695,0.766,0.102
27.068,-0.701,0.771,0.105
27.078,-0.699,0.773,0.102
27.087,-0.697,0.775,0.104
27.097,-0.695,0.775,0.104
27.107,-0.697,0.771,0.107
27.117,-0.693,0.768,0.109
27.127,-0.693,0.768,0.105
27.137,-0.693,0.764,0.107
27.147,-0.691,0.773,0.107
27.157,-0.693,0.773,0.105
27.167,-0.691,0.771,0.109
27.177,-0.693,0.775,0.104
27.187,-0.691,0.770,0.105
27.197,-0.693,0.773,0.104
27.207,-0.691,0.775,0.105
27.216,-0.688,0.775,0.102
27.226,-0.691,0.779,0.105
27.236,-0.693,0.773,0.105
27.246,-0.695,0.775,0.104
27.256,-0.691,0.773,0.104
27.266,-0.695,0.770,0.104
27.276,-0.691,0.770,0.107
27.286,-0.693,0.770,0.107
27.296,-0.693,0.771,0.104
27.306,-0.693,0.773,0.105
27.316,-0.691,0.771,0.104
27.326,-0.689,0.773,0.100
27.336,-0.691,0.771,0.105
27.345,-0.691,0.770,0.105
27.355,-0.689,0.770,0.104
27.365,-0.695,0.768,0.104
27.375,-0.693,0.771,0.105
27.385,-0.693,0.773,0.104
27.395,-0.691,0.775,0.100
27.405,-0.689,0.773,0.100
27.415,-0.689,0.771,0.100
27.425,-0.691,0.771,0.100
27.435,-0.689,0.773,0.105
27.445,-0.691,0.771,0.105
27.455,-0.691,0.770,0.107
27.465,-0.695,0.773,0.104
27.475,-0.695,0.770,0.107
27.484,-0.697,0.771,0.102
27.494,-0.699,0.766,0.104
27.504,-0.699,0.770,0.105
27.514,-0.695,0.770,0.105
27.524,-0.695,0.766,0.102
27.534,-0.697,0.768,0.104
27.544,-0.701,0.768,0.104
27.554,-0.705,0.770,0.104
27.564,-0.707,0.775,0.102
27.574,-0.711,0.775,0.104
27.584,-0.709,0.775,0.105
27.594,-0.709,0.768,0.104
27.604,-0.707,0.764,0.102
27.613,-0.703,0.764,0.100
27.623,-0.701,0.766,0.100
27.633,-0.699,0.764,0.102
27.643,-0.701,0.768,0.102
27.653,-0.699,0.768,0.100
27.663,-0.703,0.766,0.102
27.673,-0.699,0.766,0.102
27.683,-0.703,0.768,0.104
27.693,-0.701,0.764,0.102
27.703,-0.699,0.762,0.105
27.713,-0.701,0.760,0.102
27.723,-0.699,0.766,0.102
27.733,-0.697,0.770,0.104
27.743,-0.701,0.775,0.102
27.752,-0.697,0.773,0.104
27.762,-0.697,0.770,0.102
27.772,-0.695,0.764,0.102
27.782,-0.699,0.766,0.100
27.792,-0.697,0.764,0.102
27.802,-0.699,0.764,0.102
27.812,-0.703,0.766,0.102
27.822,-0.703,0.766,0.100
27.832,-0.705,0.762,0.100
27.842,-0.703,0.766,0.100
27.852,-0.703,0.770,0.102
27.862,-0.701,0.773,0.098
27.872,-0.699,0.773,0.098
27.881,-0.699,0.771,0.100
27.891,-0.699,0.775,0.098
27.901,-0.699,0.775,0.096
27.911,-0.691,0.773,0.098
27.921,-0.688,0.770,0.096
27.931,-0.686,0.768,0.100
27.941,-0.684,0.771,0.098
27.951,-0.688,0.768,0.098
27.961,-0.689,0.768,0.100
27.971,-0.693,0.770,0.104
27.981,-0.697,0.768,0.102
27.991,-0.701,0.768,0.102
28.001,-0.703,0.766,0.102
28.010,-0.713,0.768,0.102
28.020,-0.711,0.766,0.104
28.030,-0.707,0.768,0.102
28.040,-0.705,0.768,0.104
28.050,-0.703,0.764,0.102
28.060,-0.699,0.766,0.102
28.070,-0.699,0.764,0.102
28.080,-0.693,0.764,0.100
28.090,-0.688,0.768,0.100
28.100,-0.688,0.768,0.100
28.110,-0.686,0.771,0.100
28.120,-0.691,0.775,0.098
28.130,-0.693,0.770,0.100
28.140,-0.695,0.770,0.102
28.149,-0.699,0.771,0.104
28.159,-0.699,0.762,0.104
28.169,-0.701,0.760,0.105
28.179,-0.705,0.758,0.107
28.189,-0.709,0.756,0.109
28.199,-0.713,0.754,0.107
28.209,-0.713,0.758,0.109
28.219,-0.717,0.760,0.111
28.229,-0.715,0.768,0.115
28.239,-0.709,0.766,0.113
28.249,-0.709,0.766,0.111
28.259,-0.707,0.764,0.109
28.269,-0.703,0.764,0.107
28.278,-0.701,0.764,0.109
28.288,-0.701,0.762,0.109
28.298,-0.697,0.770,0.111
28.308,-0.691,0.768,0.107
28.318,-0.695,0.768,0.111
28.328,-0.693,0.764,0.107
28.338,-0.699,0.764,0.109
28.348,-0.701,0.764,0.109
28.358,-0.705,0.766,0.107
28.368,-0.703,0.764,0.102
28.378,-0.703,0.764,0.105
28.388,-0.705,0.768,0.102
28.398,-0.703,0.766,0.102
28.408,-0.697,0.766,0.104
28.417,-0.697,0.764,0.104
28.427,-0.695,0.766,0.100
28.437,-0.691,0.770,0.100
28.447,-0.693,0.768,0.102
28.457,-0.695,0.768,0.102
28.467,-0.693,0.764,0.102
28.477,-0.697,0.770,0.105
28.487,-0.697,0.770,0.104
28.497,-0.699,0.766,0.102
28.507,-0.703,0.768,0.102
28.517,-0.703,0.768,0.102
28.527,-0.701,0.768,0.102
28.537,-0.701,0.768,0.100
28.546,-0.705,0.762,0.102
28.556,-0.703,0.768,0.102
28.566,-0.703,0.768,0.100
28.576,-0.705,0.768,0.102
28.586,-0.703,0.766,0.105
28.596,-0.699,0.768,0.100
28.606,-0.699,0.770,0.105
28.616,-0.693,0.768,0.102
28.626,-0.689,0.768,0.102
28.636,-0.688,0.768,0.104
28.646,-0.691,0.766,0.105
28.656,-0.691,0.766,0.105
28.666,-0.695,0.766,0.105
28.676,-0.703,0.771,0.107
28.685,-0.705,0.771,0.107
28.695,-0.701,0.770,0.107
28.705,-0.701,0.770,0.105
28.715,-0.701,0.766,0.105
28.725,-0.703,0.762,0.102
28.735,-0.703,0.764,0.102
28.745,-0.703,0.760,0.100
28.755,-0.703,0.766,0.104
28.765,-0.701,0.770,0.107
28.775,-0.699,0.770,0.105
28.785,-0.701,0.768,0.107
28.795,-0.699,0.766,0.107
28.805,-0.697,0.766,0.105
28.814,-0.695,0.764,0.104
28.824,-0.699,0.766,0.102
28.834,-0.697,0.764,0.104
28.844,-0.695,0.766,0.105
28.854,-0.697,0.771,0.105
28.864,-0.697,0.768,0.105
28.874,-0.699,0.771,0.104
28.884,-0.697,0.766,0.102
28.894,-0.701,0.764,0.107
28.904,-0.705,0.768,0.109
28.914,-0.703,0.766,0.109
28.924,-0.705,0.764,0.105
28.934,-0.701,0.766,0.105
28.943,-0.703,0.764,0.105
28.953,-0.705,0.766,0.105
28.963,-0.707,0.764,0.105
28.973,-0.703,0.766,0.107
28.983,-0.703,0.762,0.104
28.993,-0.701,0.762,0.104
29.003,-0.701,0.762,0.105
29.013,-0.699,0.768,0.104
29.023,-0.699,0.770,0.105
29.033,-0.701,0.773,0.104
29.043,-0.701,0.770,0.104
29.053,-0.699,0.771,0.102
29.063,-0.703,0.764,0.102
29.073,-0.701,0.766,0.102
29.082,-0.701,0.760,0.104
29.092,-0.703,0.762,0.104
29.102,-0.707,0.764,0.104
29.112,-0.703,0.766,0.104
29.122,-0.703,0.764,0.102
29.132,-0.705,0.768,0.104
29.142,-0.705,0.768,0.100
29.152,-0.707,0.766,0.104
29.162,-0.701,0.764,0.102
29.172,-0.697,0.770,0.105
29.182,-0.695,0.768,0.102
29.192,-0.695,0.760,0.098
29.202,-0.699,0.762,0.100
29.211,-0.707,0.766,0.098
29.221,-0.705,0.768,0.100
29.231,-0.705,0.768,0.102
29.241,-0.701,0.768,0.100
29.251,-0.705,0.766,0.100
29.261,-0.703,0.764,0.098
29.271,-0.703,0.766,0.096
29.281,-0.705,0.764,0.098
29.291,-0.703,0.762,0.098
29.301,-0.705,0.766,0.098
29.311,-0.709,0.770,0.100
29.321,-0.703,0.768,0.104
29.331,-0.703,0.768,0.102
29.341,-0.697,0.764,0.102
29.350,-0.697,0.764,0.107
29.360,-0.697,0.764,0.105
29.370,-0.695,0.762,0.107
29.380,-0.695,0.766,0.107
29.390,-0.693,0.766,0.107
29.400,-0.691,0.762,0.107
29.410,-0.697,0.762,0.111
29.420,-0.695,0.762,0.109
29.430,-0.703,0.762,0.104
29.440,-0.705,0.766,0.111
29.450,-0.711,0.766,0.104
29.460,-0.707,0.768,0.105
29.470,-0.707,0.771,0.102
29.479,-0.707,0.773,0.104
29.489,-0.707,0.766,0.104
29.499,-0.705,0.768,0.102
29.509,-0.701,0.766,0.102
29.519,-0.703,0.766,0.100
29.529,-0.703,0.766,0.102
29.539,-0.699,0.766,0.102
29.549,-0.699,0.768,0.102
29.559,-0.697,0.768,0.105
29.569,-0.697,0.766,0.102
29.579,-0.699,0.764,0.104
29.589,-0.697,0.768,0.104
29.599,-0.701,0.764,0.105
29.608,-0.701,0.764,0.107
29.618,-0.703,0.764,0.100
29.628,-0.701,0.760,0.104
29.638,-0.707,0.762,0.107
29.648,-0.707,0.762,0.107
29.658,-0.707,0.764,0.104
29.668,-0.707,0.766,0.105
29.678,-0.711,0.760,0.105
29.688,-0.709,0.766,0.105
29.698,-0.709,0.766,0.102
29.708,-0.705,0.766,0.105
29.718,-0.699,0.770,0.105
29.728,-0.699,0.766,0.100
29.738,-0.697,0.764,0.102
29.747,-0.695,0.764,0.104
29.757,-0.699,0.762,0.104
29.767,-0.699,0.762,0.104
29.777,-0.699,0.764,0.104
29.787,-0.701,0.764,0.104
29.797,-0.707,0.764,0.104
29.807,-0.703,0.764,0.102
29.817,-0.707,0.764,0.102
29.827,-0.711,0.764,0.100
29.837,-0.711,0.766,0.102
29.847,-0.709,0.766,0.102
29.857,-0.711,0.762,0.104
29.867,-0.711,0.760,0.105
29.876,-0.707,0.760,0.104
29.886,-0.705,0.760,0.104
29.896,-0.705,0.760,0.105
29.906,-0.705,0.766,0.102
29.916,-0.703,0.766,0.102
29.926,-0.703,0.764,0.105
29.936,-0.695,0.770,0.104
29.946,-0.697,0.768,0.102
29.956,-0.697,0.766,0.104
29.966,-0.693,0.762,0.100
29.976,-0.695,0.762,0.100
29.986,-0.697,0.764,0.100
29.996,-0.701,0.764,0.102
30.006,-0.703,0.766,0.104
30.015,-0.707,0.768,0.105
30.025,-0.705,0.768,0.105
30.035,-0.705,0.766,0.105
30.045,-0.705,0.766,0.105
30.055,-0.707,0.764,0.105
30.065,-0.707,0.764,0.107
30.075,-0.705,0.766,0.105
30.085,-0.701,0.768,0.104
30.095,-0.701,0.766,0.102
30.105,-0.701,0.762,0.104
30.115,-0.699,0.764,0.100
30.125,-0.695,0.762,0.100
30.135,-0.697,0.762,0.105
30.144,-0.701,0.766,0.102
30.154,-0.703,0.768,0.100
30.164,-0.703,0.768,0.098
30.174,-0.703,0.770,0.098
30.184,-0.705,0.766,0.100
30.194,-0.703,0.770,0.102
30.204,-0.707,0.768,0.104
30.214,-0.705,0.764,0.100
30.224,-0.703,0.768,0.098
30.234,-0.703,0.766,0.102
30.244,-0.699,0.762,0.100
30.254,-0.703,0.764,0.104
30.264,-0.707,0.768,0.105
30.273,-0.707,0.764,0.102
30.283,-0.701,0.770,0.102
30.293,-0.699,0.762,0.102
30.303,-0.695,0.766,0.105
30.313,-0.697,0.764,0.102
30.323,-0.699,0.762,0.104
30.333,-0.699,0.766,0.105
30.343,-0.701,0.770,0.105
30.353,-0.703,0.768,0.105
30.363,-0.705,0.764,0.105
30.373,-0.705,0.764,0.102
30.383,-0.705,0.762,0.104
30.393,-0.707,0.760,0.104
30.403,-0.707,0.764,0.104
30.412,-0.703,0.766,0.102
30.422,-0.705,0.766,0.100
30.432,-0.701,0.768,0.102
30.442,-0.699,0.766,0.102
30.452,-0.699,0.766,0.104
30.462,-0.701,0.762,0.104
30.472,-0.701,0.762,0.107
30.482,-0.703,0.764,0.105
30.492,-0.703,0.762,0.109
30.502,-0.701,0.760,0.105
30.512,-0.701,0.764,0.107
30.522,-0.699,0.766,0.104
30.532,-0.703,0.768,0.104
30.541,-0.699,0.764,0.105
30.551,-0.703,0.766,0.104
30.561,-0.701,0.770,0.105
30.571,-0.705,0.770,0.107
30.581,-0.703,0.766,0.104
30.591,-0.699,0.766,0.104
30.601,-0.699,0.762,0.104
30.611,-0.695,0.766,0.104
30.621,-0.695,0.768,0.104
30.631,-0.697,0.766,0.104
30.641,-0.699,0.768,0.102
30.651,-0.701,0.771,0.104
30.661,-0.701,0.771,0.107
30.671,-0.699,0.771,0.105
30.680,-0.695,0.768,0.105
30.690,-0.695,0.768,0.111
30.700,-0.695,0.766,0.105
30.710,-0.699,0.762,0.111
30.720,-0.699,0.762,0.109
30.730,-0.703,0.764,0.109
30.740,-0.703,0.766,0.107
30.750,-0.707,0.766,0.107
30.760,-0.701,0.764,0.107
30.770,-0.703,0.770,0.107
30.780,-0.705,0.768,0.107
30.790,-0.703,0.768,0.105
30.800,-0.699,0.764,0.107
30.809,-0.697,0.766,0.105
30.819,-0.701,0.768,0.105
30.829,-0.699,0.766,0.107
30.839,-0.699,0.766,0.105
30.849,-0.703,0.768,0.107
30.859,-0.703,0.768,0.109
30.869,-0.697,0.766,0.109
30.879,-0.693,0.766,0.105
30.889,-0.693,0.760,0.107
30.899,-0.697,0.760,0.107
30.909,-0.699,0.760,0.111
30.919,-0.703,0.766,0.109
30.929,-0.703,0.766,0.109
30.939,-0.705,0.768,0.109
30.948,-0.709,0.764,0.109
30.958,-0.705,0.764,0.107
30.968,-0.707,0.760,0.105
30.978,-0.703,0.760,0.107
30.988,-0.705,0.764,0.107
30.998,-0.703,0.764,0.107
31.008,-0.703,0.766,0.111
31.018,-0.707,0.768,0.107
31.028,-0.703,0.766,0.107
31.038,-0.703,0.764,0.107
31.048,-0.701,0.762,0.109
31.058,-0.697,0.764,0.111
31.068,-0.699,0.764,0.113
31.077,-0.699,0.764,0.109
31.087,-0.695,0.764,0.107
31.097,-0.693,0.770,0.107
31.107,-0.699,0.766,0.109
31.117,-0.695,0.770,0.105
31.127,-0.697,0.766,0.105
31.137,-0.701,0.762,0.104
31.147,-0.703,0.764,0.105
31.157,-0.705,0.764,0.107
31.167,-0.705,0.768,0.105
31.177,-0.703,0.766,0.105
31.187,-0.703,0.768,0.102
31.197,-0.699,0.766,0.105
31.206,-0.703,0.764,0.104
31.216,-0.703,0.764,0.105
31.226,-0.703,0.766,0.104
31.236,-0.697,0.764,0.104
31.246,-0.703,0.764,0.105
31.256,-0.703,0.770,0.104
31.266,-0.703,0.768,0.105
31.276,-0.701,0.766,0.107
31.286,-0.703,0.764,0.105
31.296,-0.703,0.766,0.107
31.306,-0.705,0.766,0.107
31.316,-0.705,0.762,0.104
31.326,-0.707,0.764,0.104
31.336,-0.707,0.760,0.105
31.345,-0.705,0.762,0.104
31.355,-0.705,0.760,0.104
31.365,-0.703,0.760,0.104
31.375,-0.705,0.760,0.102
31.385,-0.707,0.764,0.105
31.395,-0.705,0.766,0.107
31.405,-0.705,0.768,0.104
31.415,-0.705,0.766,0.105
31.425,-0.703,0.770,0.105
31.435,-0.705,0.764,0.105
31.445,-0.703,0.762,0.104
31.455,-0.701,0.760,0.102
31.465,-0.703,0.760,0.105
31.474,-0.707,0.764,0.107
31.484,-0.709,0.760,0.105
31.494,-0.709,0.760,0.105
31.504,-0.717,0.768,0.109
31.514,-0.717,0.766,0.109
31.524,-0.717,0.762,0.109
31.534,-0.713,0.766,0.109
31.544,-0.713,0.760,0.105
31.554,-0.709,0.760,0.107
31.564,-0.709,0.756,0.107
31.574,-0.705,0.756,0.111
31.584,-0.707,0.758,0.109
31.594,-0.705,0.758,0.109
31.604,-0.703,0.758,0.113
31.613,-0.705,0.762,0.111
31.623,-0.707,0.764,0.109
31.633,-0.707,0.762,0.107
31.643,-0.707,0.760,0.107
31.653,-0.703,0.766,0.109
31.663,-0.707,0.760,0.109
31.673,-0.703,0.764,0.109
31.683,-0.701,0.762,0.107
31.693,-0.703,0.760,0.107
31.703,-0.705,0.762,0.105
31.713,-0.705,0.758,0.105
31.723,-0.709,0.762,0.105
31.733,-0.707,0.766,0.105
31.742,-0.711,0.766,0.107
31.752,-0.713,0.762,0.107
31.762,-0.711,0.768,0.107
31.772,-0.711,0.760,0.105
31.782,-0.711,0.758,0.111
31.792,-0.709,0.760,0.107
31.802,-0.703,0.758,0.109
31.812,-0.703,0.760,0.105
31.822,-0.699,0.760,0.105
31.832,-0.699,0.760,0.104
31.842,-0.697,0.760,0.105
31.852,-0.699,0.762,0.104
31.862,-0.701,0.762,0.105
31.871,-0.703,0.764,0.105
31.881,-0.705,0.768,0.104
31.891,-0.705,0.764,0.104
31.901,-0.709,0.762,0.100
31.911,-0.709,0.760,0.104
31.921,-0.707,0.758,0.104
31.931,-0.705,0.760,0.104
31.941,-0.707,0.762,0.105
31.951,-0.707,0.758,0.105
31.961,-0.707,0.758,0.105
31.971,-0.707,0.760,0.105
31.981,-0.705,0.758,0.105
31.991,-0.711,0.760,0.105
32.001,-0.707,0.760,0.105
32.010,-0.707,0.764,0.105
32.020,-0.703,0.764,0.111
32.030,-0.703,0.764,0.109
32.040,-0.703,0.756,0.107
32.050,-0.709,0.762,0.107
32.060,-0.711,0.762,0.109
32.070,-0.709,0.764,0.109
32.080,-0.711,0.760,0.107
32.090,-0.709,0.762,0.107
32.100,-0.711,0.762,0.107
32.110,-0.711,0.760,0.109
32.120,-0.707,0.760,0.107
32.130,-0.709,0.756,0.105
32.139,-0.711,0.758,0.109
32.149,-0.709,0.758,0.107
32.159,-0.707,0.764,0.105
32.169,-0.713,0.760,0.105
32.179,-0.709,0.756,0.105
32.189,-0.709,0.762,0.105
32.199,-0.709,0.760,0.107
32.209,-0.707,0.758,0.107
32.219,-0.709,0.756,0.107
32.229,-0.707,0.758,0.109
32.239,-0.707,0.760,0.105
32.249,-0.711,0.764,0.107
32.259,-0.709,0.762,0.105
32.269,-0.709,0.760,0.104
32.278,-0.707,0.758,0.105
32.288,-0.711,0.762,0.104
32.298,-0.713,0.762,0.105
32.308,-0.711,0.764,0.105
32.318,-0.709,0.760,0.109
32.328,-0.709,0.762,0.102
32.338,-0.711,0.758,0.107
32.348,-0.709,0.762,0.109
32.358,-0.709,0.762,0.105
32.368,-0.709,0.764,0.104
32.378,-0.707,0.758,0.105
32.388,-0.705,0.758,0.104
32.398,-0.705,0.758,0.105
32.407,-0.707,0.764,0.105
32.417,-0.709,0.760,0.105
32.427,-0.709,0.762,0.107
32.437,-0.709,0.760,0.105
32.447,-0.709,0.758,0.105
32.457,-0.709,0.756,0.104
32.467,-0.713,0.760,0.105
32.477,-0.711,0.758,0.107
32.487,-0.713,0.760,0.105
32.497,-0.707,0.760,0.104
32.507,-0.707,0.762,0.104
32.517,-0.709,0.762,0.104
32.527,-0.705,0.762,0.105
32.536,-0.709,0.762,0.104
32.546,-0.709,0.764,0.105
32.556,-0.705,0.760,0.105
32.566,-0.701,0.758,0.107
32.576,-0.701,0.760,0.104
32.586,-0.703,0.754,0.105
32.596,-0.707,0.754,0.104
32.606,-0.709,0.758,0.105
32.616,-0.713,0.762,0.107
32.626,-0.713,0.768,0.107
32.636,-0.713,0.766,0.109
32.646,-0.715,0.764,0.107
32.656,-0.711,0.760,0.107
32.666,-0.709,0.756,0.105
32.675,-0.711,0.754,0.107
32.685,-0.711,0.754,0.105
32.695,-0.711,0.754,0.107
32.705,-0.711,0.758,0.111
32.715,-0.709,0.760,0.104
32.725,-0.707,0.764,0.105
32.735,-0.709,0.766,0.107
32.745,-0.705,0.768,0.105
32.755,-0.707,0.764,0.107
32.765,-0.705,0.762,0.105
32.775,-0.709,0.760,0.105
32.785,-0.703,0.760,0.109
32.795,-0.703,0.758,0.111
32.804,-0.705,0.760,0.113
32.814,-0.703,0.762,0.109
32.824,-0.703,0.758,0.111
32.834,-0.711,0.760,0.109
32.844,-0.707,0.760,0.109
32.854,-0.711,0.762,0.109
32.864,-0.711,0.764,0.107
32.874,-0.711,0.764,0.105
32.884,-0.709,0.762,0.107
32.894,-0.709,0.762,0.109
32.904,-0.709,0.760,0.104
32.914,-0.711,0.758,0.107
32.924,-0.707,0.760,0.107
32.934,-0.707,0.760,0.107
32.943,-0.707,0.756,0.105
32.953,-0.707,0.760,0.107
32.963,-0.705,0.760,0.105
32.973,-0.703,0.760,0.107
32.983,-0.705,0.760,0.109
32.993,-0.707,0.762,0.107
33.003,-0.709,0.762,0.109
33.013,-0.707,0.764,0.105
33.023,-0.709,0.760,0.104
33.033,-0.705,0.758,0.105
33.043,-0.709,0.758,0.105
33.053,-0.711,0.760,0.107
33.063,-0.713,0.760,0.105
33.072,-0.713,0.760,0.107
33.082,-0.711,0.762,0.105
33.092,-0.711,0.762,0.107
33.102,-0.709,0.762,0.107
33.112,-0.709,0.760,0.105
33.122,-0.713,0.758,0.107
33.132,-0.711,0.760,0.107
33.142,-0.709,0.760,0.107
33.152,-0.707,0.758,0.107
33.162,-0.705,0.762,0.105
33.172,-0.705,0.756,0.104
33.182,-0.709,0.764,0.107
33.192,-0.709,0.758,0.105
33.202,-0.707,0.762,0.105
33.211,-0.707,0.766,0.104
33.221,-0.709,0.766,0.105
33.231,-0.709,0.762,0.104
33.241,-0.707,0.760,0.107
33.251,-0.707,0.758,0.105
33.261,-0.711,0.756,0.105
33.271,-0.715,0.756,0.105
33.281,-0.715,0.760,0.104
33.291,-0.709,0.758,0.107
33.301,-0.711,0.762,0.105
33.311,-0.713,0.762,0.105
33.321,-0.713,0.758,0.109
33.331,-0.709,0.758,0.109
33.340,-0.711,0.760,0.107
33.350,-0.709,0.756,0.109
33.360,-0.709,0.756,0.105
33.370,-0.711,0.760,0.107
33.380,-0.707,0.762,0.104
33.390,-0.707,0.762,0.107
33.400,-0.705,0.760,0.107
33.410,-0.705,0.758,0.107
33.420,-0.705,0.756,0.107
33.430,-0.707,0.760,0.104
33.440,-0.705,0.760,0.107
33.450,-0.709,0.764,0.102
33.460,-0.707,0.764,0.100
33.469,-0.707,0.768,0.098
33.479,-0.711,0.762,0.104
33.489,-0.707,0.762,0.102
33.499,-0.713,0.758,0.104
33.509,-0.709,0.758,0.105
33.519,-0.709,0.760,0.104
33.529,-0.705,0.758,0.109
33.539,-0.707,0.760,0.105
33.549,-0.709,0.760,0.104
33.559,-0.707,0.760,0.105
33.569,-0.705,0.758,0.105
33.579,-0.707,0.758,0.105
33.589,-0.709,0.762,0.107
33.599,-0.707,0.760,0.104
33.608,-0.707,0.760,0.104
33.618,-0.709,0.758,0.105
33.628,-0.709,0.756,0.104
33.638,-0.709,0.758,0.102
33.648,-0.709,0.764,0.102
33.658,-0.709,0.762,0.098
33.668,-0.709,0.758,0.100
33.678,-0.711,0.760,0.102
33.688,-0.711,0.762,0.100
33.698,-0.713,0.760,0.100
33.708,-0.715,0.758,0.102
33.718,-0.711,0.766,0.105
33.728,-0.711,0.762,0.104
33.737,-0.713,0.762,0.105
33.747,-0.705,0.760,0.107
33.757,-0.705,0.762,0.105
33.767,-0.707,0.754,0.104
33.777,-0.705,0.756,0.105
33.787,-0.705,0.756,0.105
33.797,-0.707,0.756,0.105
33.807,-0.711,0.758,0.104
33.817,-0.709,0.760,0.105
33.827,-0.713,0.766,0.105
33.837,-0.713,0.764,0.100
33.847,-0.713,0.762,0.102
33.857,-0.715,0.756,0.102
33.867,-0.719,0.758,0.105
33.876,-0.713,0.760,0.105
33.886,-0.711,0.756,0.102
33.896,-0.713,0.754,0.104
33.906,-0.711,0.756,0.107
33.916,-0.713,0.754,0.107
33.926,-0.709,0.758,0.107
33.936,-0.711,0.756,0.109
33.946,-0.709,0.752,0.109
33.956,-0.715,0.752,0.107
33.966,-0.715,0.756,0.107
33.976,-0.709,0.760,0.107
33.986,-0.705,0.762,0.105
33.996,-0.709,0.756,0.104
34.005,-0.707,0.758,0.105
34.015,-0.711,0.760,0.104
34.025,-0.713,0.762,0.104
34.035,-0.717,0.766,0.107
34.045,-0.717,0.764,0.107
34.055,-0.713,0.762,0.104
34.065,-0.711,0.760,0.105
34.075,-0.713,0.756,0.105
34.085,-0.709,0.754,0.105
34.095,-0.709,0.754,0.107
34.105,-0.705,0.754,0.109
34.115,-0.709,0.752,0.109
34.125,-0.711,0.758,0.109
34.134,-0.709,0.760,0.113
34.144,-0.711,0.756,0.107
34.154,-0.713,0.750,0.111
34.164,-0.711,0.750,0.113
34.174,-0.709,0.752,0.111
34.184,-0.707,0.752,0.111
34.194,-0.713,0.758,0.113
34.204,-0.707,0.758,0.111
34.214,-0.709,0.760,0.113
34.224,-0.705,0.756,0.111
34.234,-0.703,0.756,0.113
34.244,-0.701,0.758,0.107
34.254,-0.705,0.756,0.104
34.264,-0.705,0.758,0.105
34.273,-0.709,0.760,0.102
34.283,-0.713,0.760,0.104
34.293,-0.717,0.764,0.105
34.303,-0.721,0.766,0.109
34.313,-0.721,0.764,0.109
34.323,-0.723,0.762,0.111
34.333,-0.721,0.758,0.113
34.343,-0.719,0.752,0.111
34.353,-0.717,0.744,0.111
34.363,-0.713,0.746,0.111
34.373,-0.709,0.750,0.111
34.383,-0.707,0.750,0.107
34.393,-0.713,0.746,0.105
34.402,-0.717,0.758,0.105
34.412,-0.723,0.760,0.105
34.422,-0.723,0.762,0.102
34.432,-0.723,0.760,0.102
34.442,-0.723,0.754,0.104
34.452,-0.723,0.748,0.104
34.462,-0.723,0.746,0.104
34.472,-0.719,0.746,0.102
34.482,-0.723,0.748,0.104
34.492,-0.725,0.752,0.104
34.502,-0.727,0.750,0.105
34.512,-0.723,0.750,0.104
34.522,-0.725,0.752,0.109
34.532,-0.727,0.754,0.109
34.541,-0.725,0.754,0.107
34.551,-0.725,0.752,0.107
34.561,-0.727,0.752,0.107
34.571,-0.723,0.750,0.113
34.581,-0.719,0.750,0.113
34.591,-0.717,0.750,0.109
34.601,-0.717,0.744,0.109
34.611,-0.721,0.744,0.109
34.621,-0.725,0.746,0.111
34.631,-0.725,0.748,0.109
34.641,-0.727,0.750,0.107
34.651,-0.727,0.754,0.105
34.661,-0.729,0.754,0.105
34.670,-0.725,0.754,0.105
34.680,-0.725,0.752,0.104
34.690,-0.723,0.752,0.107
34.700,-0.717,0.750,0.109
34.710,-0.715,0.748,0.107
34.720,-0.715,0.748,0.104
34.730,-0.715,0.750,0.105
34.740,-0.715,0.744,0.105
34.750,-0.719,0.748,0.104
34.760,-0.721,0.750,0.105
34.770,-0.723,0.746,0.105
34.780,-0.723,0.750,0.105
34.790,-0.719,0.748,0.102
34.799,-0.721,0.750,0.104
34.809,-0.721,0.748,0.105
34.819,-0.725,0.750,0.105
34.829,-0.725,0.750,0.104
34.839,-0.723,0.748,0.104
34.849,-0.723,0.748,0.102
34.859,-0.721,0.748,0.104
34.869,-0.725,0.748,0.100
34.879,-0.721,0.750,0.104
34.889,-0.725,0.750,0.100
34.899,-0.727,0.750,0.104
34.909,-0.723,0.748,0.104
34.919,-0.721,0.754,0.104
34.929,-0.725,0.752,0.104
34.938,-0.725,0.746,0.107
34.948,-0.723,0.750,0.107
34.958,-0.723,0.750,0.104
34.968,-0.725,0.748,0.104
34.978,-0.730,0.746,0.104
34.988,-0.729,0.744,0.107
34.998,-0.727,0.752,0.104
35.008,-0.723,0.748,0.107
35.018,-0.723,0.748,0.105
35.028,-0.721,0.746,0.107
35.038,-0.719,0.744,0.105
35.048,-0.723,0.746,0.107
35.058,-0.723,0.746,0.109
35.067,-0.723,0.750,0.105
35.077,-0.721,0.748,0.107
35.087,-0.723,0.750,0.107
35.097,-0.721,0.750,0.109
35.107,-0.719,0.750,0.109
35.117,-0.719,0.752,0.109
35.127,-0.713,0.748,0.109
35.137,-0.713,0.748,0.109
35.147,-0.713,0.746,0.111
35.157,-0.715,0.746,0.109
35.167,-0.715,0.754,0.109
35.177,-0.713,0.754,0.105
35.187,-0.715,0.752,0.105
35.197,-0.719,0.758,0.107
35.206,-0.715,0.750,0.107
35.216,-0.717,0.754,0.105
35.226,-0.715,0.754,0.105
35.236,-0.717,0.760,0.109
35.246,-0.717,0.758,0.107
35.256,-0.717,0.754,0.105
35.266,-0.717,0.752,0.107
35.276,-0.717,0.752,0.105
35.286,-0.719,0.752,0.107
35.296,-0.721,0.750,0.107
35.306,-0.721,0.752,0.105
35.316,-0.721,0.752,0.105
35.326,-0.721,0.752,0.109
35.335,-0.719,0.752,0.105
35.345,-0.719,0.752,0.105
35.355,-0.719,0.752,0.107
35.365,-0.715,0.750,0.107
35.375,-0.717,0.748,0.109
35.385,-0.717,0.752,0.105
35.395,-0.715,0.752,0.104
35.405,-0.717,0.752,0.104
35.415,-0.717,0.748,0.102
35.425,-0.721,0.750,0.102
35.435,-0.719,0.754,0.105
35.445,-0.721,0.754,0.104
35.455,-0.719,0.754,0.104
35.464,-0.721,0.754,0.104
35.474,-0.723,0.752,0.107
35.484,-0.723,0.752,0.105
35.494,-0.721,0.752,0.107
35.504,-0.719,0.754,0.107
35.514,-0.717,0.750,0.104
35.524,-0.717,0.748,0.105
35.534,-0.719,0.750,0.105
35.544,-0.725,0.750,0.107
35.554,-0.727,0.752,0.107
35.564,-0.729,0.756,0.107
35.574,-0.725,0.758,0.105
35.584,-0.725,0.756,0.107
35.594,-0.721,0.750,0.105
35.603,-0.719,0.750,0.102
35.613,-0.725,0.752,0.105
35.623,-0.723,0.750,0.104
35.633,-0.723,0.752,0.104
35.643,-0.721,0.752,0.105
35.653,-0.719,0.754,0.104
35.663,-0.719,0.752,0.105
35.673,-0.717,0.750,0.105
35.683,-0.713,0.752,0.109
35.693,-0.715,0.752,0.105
35.703,-0.713,0.752,0.107
35.713,-0.715,0.754,0.102
35.723,-0.709,0.760,0.105
35.732,-0.709,0.760,0.104
35.742,-0.711,0.756,0.102
35.752,-0.711,0.760,0.102
35.762,-0.707,0.756,0.100
35.772,-0.709,0.758,0.102
35.782,-0.709,0.758,0.104
35.792,-0.713,0.762,0.102
35.802,-0.711,0.760,0.104
35.812,-0.713,0.762,0.105
35.822,-0.711,0.762,0.105
35.832,-0.707,0.758,0.105
35.842,-0.711,0.756,0.104
35.852,-0.709,0.758,0.107
35.862,-0.709,0.760,0.107
35.871,-0.713,0.760,0.105
35.881,-0.713,0.756,0.107
35.891,-0.715,0.758,0.105
35.901,-0.715,0.758,0.109
35.911,-0.711,0.756,0.109
35.921,-0.711,0.754,0.105
35.931,-0.709,0.756,0.105
35.941,-0.709,0.756,0.104
35.951,-0.709,0.754,0.105
35.961,-0.707,0.756,0.105
35.971,-0.707,0.760,0.105
35.981,-0.711,0.762,0.104
35.991,-0.711,0.762,0.105
36.000,-0.707,0.760,0.104
36.010,-0.707,0.762,0.102
36.020,-0.711,0.762,0.107
36.030,-0.711,0.756,0.107
36.040,-0.715,0.756,0.105
36.050,-0.717,0.756,0.109
36.060,-0.719,0.756,0.111
36.070,-0.717,0.754,0.107
36.080,-0.717,0.760,0.111
36.090,-0.713,0.752,0.107
36.100,-0.717,0.750,0.109
36.110,-0.721,0.750,0.109
36.120,-0.721,0.750,0.105
36.130,-0.727,0.762,0.109
36.139,-0.727,0.760,0.111
36.149,-0.725,0.756,0.105
36.159,-0.725,0.756,0.104
36.169,-0.727,0.754,0.105
36.179,-0.725,0.756,0.104
36.189,-0.723,0.750,0.100
36.199,-0.721,0.748,0.105
36.209,-0.721,0.750,0.102
36.219,-0.717,0.752,0.105
36.229,-0.717,0.752,0.109
36.239,-0.709,0.756,0.107
36.249,-0.711,0.756,0.105
36.259,-0.711,0.750,0.104
36.268,-0.713,0.754,0.105
36.278,-0.709,0.758,0.105
36.288,-0.709,0.756,0.111
36.298,-0.709,0.758,0.107
36.308,-0.705,0.760,0.109
36.318,-0.705,0.762,0.107
36.328,-0.703,0.754,0.111
36.338,-0.709,0.758,0.113
36.348,-0.709,0.758,0.109
36.358,-0.709,0.764,0.113
36.368,-0.705,0.762,0.111
36.378,-0.707,0.762,0.113
36.388,-0.705,0.762,0.105
36.397,-0.701,0.762,0.107
36.407,-0.701,0.762,0.109
36.417,-0.703,0.762,0.111
36.427,-0.697,0.766,0.105
36.437,-0.699,0.766,0.107
36.447,-0.697,0.764,0.105
36.457,-0.701,0.766,0.107
36.467,-0.701,0.766,0.111
36.477,-0.701,0.768,0.109
36.487,-0.695,0.768,0.109
36.497,-0.697,0.766,0.105
36.507,-0.697,0.768,0.105
36.517,-0.697,0.768,0.105
36.527,-0.697,0.766,0.105
36.536,-0.697,0.768,0.107
36.546,-0.699,0.764,0.105
36.556,-0.699,0.766,0.107
36.566,-0.699,0.766,0.107
36.576,-0.699,0.768,0.104
36.586,-0.697,0.762,0.105
36.596,-0.697,0.766,0.105
36.606,-0.693,0.766,0.105
36.616,-0.697,0.768,0.105
36.626,-0.701,0.766,0.111
36.636,-0.701,0.768,0.111
36.646,-0.699,0.762,0.109
36.656,-0.701,0.762,0.111
36.665,-0.701,0.762,0.111
36.675,-0.705,0.760,0.109
36.685,-0.707,0.758,0.111
36.695,-0.707,0.762,0.113
36.705,-0.713,0.766,0.113
36.715,-0.715,0.768,0.109
36.725,-0.713,0.764,0.111
36.735,-0.713,0.756,0.109
36.745,-0.717,0.754,0.109
36.755,-0.719,0.754,0.113
36.765,-0.721,0.750,0.115
36.775,-0.721,0.752,0.113
36.785,-0.721,0.754,0.111
36.795,-0.719,0.750,0.113
36.804,-0.717,0.754,0.113
36.814,-0.719,0.752,0.115
36.824,-0.719,0.754,0.113
36.834,-0.719,0.754,0.109
36.844,-0.717,0.754,0.111
36.854,-0.717,0.752,0.113
36.864,-0.713,0.754,0.115
36.874,-0.709,0.756,0.111
36.884,-0.711,0.754,0.111
36.894,-0.715,0.752,0.115
36.904,-0.711,0.748,0.111
36.914,-0.715,0.750,0.107
36.924,-0.719,0.750,0.111
36.933,-0.721,0.756,0.109
36.943,-0.719,0.760,0.109
36.953,-0.719,0.760,0.109
36.963,-0.721,0.762,0.105
36.973,-0.719,0.758,0.107
36.983,-0.719,0.760,0.109
36.993,-0.717,0.758,0.109
37.003,-0.713,0.760,0.109
37.013,-0.713,0.760,0.111
37.023,-0.709,0.758,0.105
37.033,-0.709,0.756,0.107
37.043,-0.705,0.760,0.109
37.053,-0.707,0.762,0.107
37.062,-0.711,0.762,0.111
37.072,-0.709,0.760,0.107
37.082,-0.709,0.762,0.111
37.092,-0.707,0.762,0.109
37.102,-0.707,0.760,0.111
37.112,-0.707,0.756,0.111
37.122,-0.709,0.754,0.109
37.132,-0.711,0.756,0.109
37.142,-0.711,0.756,0.109
37.152,-0.711,0.762,0.109
37.162,-0.711,0.760,0.111
37.172,-0.711,0.760,0.111
37.182,-0.711,0.760,0.111
37.192,-0.711,0.762,0.111
37.201,-0.711,0.762,0.113
37.211,-0.705,0.756,0.111
37.221,-0.703,0.758,0.111
37.231,-0.701,0.756,0.111
37.241,-0.703,0.754,0.109
37.251,-0.709,0.756,0.111
37.261,-0.711,0.756,0.111
37.271,-0.713,0.760,0.109
37.281,-0.715,0.762,0.115
37.291,-0.713,0.762,0.109
37.301,-0.715,0.756,0.109
37.311,-0.715,0.758,0.111
37.321,-0.715,0.758,0.109
37.330,-0.715,0.754,0.107
37.340,-0.715,0.758,0.109
37.350,-0.717,0.756,0.109
37.360,-0.721,0.754,0.111
37.370,-0.715,0.758,0.111
37.380,-0.713,0.754,0.111
37.390,-0.711,0.754,0.115
37.400,-0.711,0.756,0.113
37.410,-0.709,0.754,0.113
37.420,-0.707,0.758,0.111
37.430,-0.707,0.758,0.115
37.440,-0.705,0.762,0.113
37.450,-0.709,0.758,0.115
37.460,-0.707,0.758,0.111
37.469,-0.711,0.754,0.111
37.479,-0.711,0.752,0.115
37.489,-0.713,0.752,0.111
37.499,-0.713,0.756,0.109
37.509,-0.715,0.756,0.111
37.519,-0.715,0.762,0.111
37.529,-0.715,0.760,0.107
37.539,-0.719,0.758,0.105
37.549,-0.715,0.758,0.107
37.559,-0.717,0.756,0.107
37.569,-0.715,0.760,0.113
37.579,-0.713,0.758,0.109
37.589,-0.711,0.756,0.111
37.598,-0.713,0.756,0.111
37.608,-0.717,0.756,0.113
37.618,-0.719,0.756,0.113
37.628,-0.721,0.756,0.115
37.638,-0.719,0.758,0.115
37.648,-0.725,0.752,0.117
37.658,-0.723,0.750,0.113
37.668,-0.717,0.748,0.113
37.678,-0.717,0.746,0.111
37.688,-0.721,0.748,0.111
37.698,-0.719,0.750,0.111
37.708,-0.717,0.750,0.111
37.718,-0.721,0.748,0.109
37.727,-0.723,0.754,0.107
37.737,-0.727,0.754,0.107
37.747,-0.723,0.754,0.107
37.757,-0.723,0.758,0.111
37.767,-0.715,0.756,0.107
37.777,-0.711,0.754,0.107
37.787,-0.709,0.754,0.105
37.797,-0.715,0.754,0.107
37.807,-0.715,0.750,0.107
37.817,-0.717,0.748,0.107
37.827,-0.723,0.752,0.107
37.837,-0.725,0.754,0.111
37.847,-0.729,0.754,0.113
37.857,-0.727,0.754,0.109
37.866,-0.727,0.750,0.109
37.876,-0.730,0.748,0.111
37.886,-0.729,0.748,0.111
37.896,-0.727,0.750,0.115
37.906,-0.729,0.748,0.113
37.916,-0.723,0.744,0.113
37.926,-0.723,0.750,0.113
37.936,-0.723,0.750,0.111
37.946,-0.719,0.748,0.109
37.956,-0.719,0.744,0.107
37.966,-0.717,0.750,0.111
37.976,-0.719,0.746,0.109
37.986,-0.719,0.750,0.105
37.995,-0.715,0.752,0.105
38.005,-0.715,0.756,0.104
38.015,-0.715,0.756,0.105
38.025,-0.715,0.752,0.105
38.035,-0.715,0.752,0.105
38.045,-0.721,0.752,0.105
38.055,-0.723,0.756,0.107
38.065,-0.725,0.752,0.107
38.075,-0.725,0.758,0.109
38.085,-0.721,0.760,0.107
38.095,-0.721,0.758,0.109
38.105,-0.721,0.756,0.111
38.115,-0.721,0.754,0.107
38.125,-0.719,0.750,0.111
38.134,-0.715,0.748,0.115
38.144,-0.715,0.750,0.109
38.154,-0.717,0.748,0.111
38.164,-0.711,0.754,0.111
38.174,-0.713,0.752,0.111
38.184,-0.715,0.756,0.111
38.194,-0.713,0.754,0.111
38.204,-0.715,0.752,0.111
38.214,-0.717,0.756,0.109
38.224,-0.715,0.758,0.111
38.234,-0.719,0.756,0.107
38.244,-0.717,0.756,0.107
38.254,-0.715,0.758,0.107
38.263,-0.717,0.760,0.109
38.273,-0.715,0.756,0.107
38.283,-0.713,0.758,0.109
38.293,-0.711,0.756,0.111
38.303,-0.715,0.760,0.109
38.313,-0.711,0.758,0.111
38.323,-0.709,0.754,0.111
38.333,-0.711,0.754,0.111
38.343,-0.711,0.752,0.115
38.353,-0.711,0.750,0.113
38.363,-0.715,0.754,0.117
38.373,-0.715,0.756,0.117
38.383,-0.713,0.758,0.115
38.393,-0.719,0.758,0.111
38.402,-0.719,0.752,0.111
38.412,-0.723,0.754,0.109
38.422,-0.721,0.750,0.105
38.432,-0.721,0.750,0.111
38.442,-0.717,0.752,0.109
38.452,-0.719,0.758,0.109
38.462,-0.717,0.760,0.111
38.472,-0.715,0.756,0.109
38.482,-0.713,0.760,0.113
38.492,-0.709,0.760,0.109
38.502,-0.711,0.754,0.113
38.512,-0.711,0.752,0.111
38.522,-0.713,0.750,0.109
38.531,-0.711,0.756,0.111
38.541,-0.711,0.756,0.115
38.551,-0.713,0.754,0.115
38.561,-0.709,0.756,0.113
38.571,-0.713,0.760,0.109
38.581,-0.709,0.752,0.105
38.591,-0.709,0.756,0.109
38.601,-0.715,0.758,0.111
38.611,-0.713,0.756,0.109
38.621,-0.713,0.758,0.109
38.631,-0.713,0.756,0.111
38.641,-0.713,0.756,0.111
38.651,-0.715,0.756,0.113
38.660,-0.715,0.754,0.113
38.670,-0.719,0.754,0.113
38.680,-0.713,0.756,0.111
38.690,-0.713,0.754,0.111
38.700,-0.713,0.754,0.113
38.710,-0.715,0.758,0.111
38.720,-0.715,0.758,0.109
38.730,-0.715,0.756,0.111
38.740,-0.713,0.756,0.111
38.750,-0.715,0.756,0.107
38.760,-0.715,0.758,0.107
38.770,-0.713,0.756,0.109
38.780,-0.717,0.754,0.107
38.790,-0.711,0.754,0.107
38.799,-0.715,0.754,0.107
38.809,-0.711,0.756,0.104
38.819,-0.715,0.754,0.107
38.829,-0.713,0.758,0.104
38.839,-0.719,0.758,0.107
38.849,-0.717,0.758,0.105
38.859,-0.717,0.760,0.105
38.869,-0.713,0.760,0.107
38.879,-0.713,0.750,0.107
38.889,-0.715,0.754,0.107
38.899,-0.715,0.752,0.107
38.909,-0.715,0.754,0.109
38.919,-0.715,0.756,0.111
38.928,-0.715,0.756,0.109
38.938,-0.719,0.756,0.111
38.948,-0.717,0.754,0.111
38.958,-0.721,0.754,0.107
38.968,-0.723,0.752,0.111
38.978,-0.721,0.750,0.109
38.988,-0.725,0.752,0.111
38.998,-0.723,0.756,0.109
39.008,-0.721,0.758,0.115
39.018,-0.719,0.756,0.111
39.028,-0.715,0.756,0.109
39.038,-0.715,0.750,0.113
39.048,-0.713,0.754,0.111
39.058,-0.713,0.754,0.107
39.067,-0.709,0.756,0.111
39.077,-0.707,0.758,0.111
39.087,-0.705,0.758,0.111
39.097,-0.705,0.760,0.109
39.107,-0.705,0.758,0.111
39.117,-0.707,0.756,0.109
39.127,-0.711,0.758,0.109
39.137,-0.711,0.760,0.113
39.147,-0.711,0.760,0.111
39.157,-0.715,0.762,0.107
39.167,-0.713,0.760,0.109
39.177,-0.717,0.760,0.109
39.187,-0.717,0.758,0.107
39.196,-0.717,0.756,0.109
39.206,-0.715,0.758,0.111
39.216,-0.711,0.756,0.111
39.226,-0.713,0.754,0.115
39.236,-0.717,0.756,0.115
39.246,-0.713,0.754,0.113
39.256,-0.707,0.754,0.113
39.266,-0.711,0.754,0.115
39.276,-0.711,0.754,0.113
39.286,-0.711,0.756,0.113
39.296,-0.709,0.758,0.113
39.306,-0.711,0.756,0.109
39.316,-0.713,0.756,0.111
39.325,-0.713,0.756,0.111
39.335,-0.713,0.756,0.111
39.345,-0.715,0.758,0.109
39.355,-0.715,0.754,0.111
39.365,-0.717,0.758,0.113
39.375,-0.715,0.762,0.109
39.385,-0.721,0.760,0.113
39.395,-0.715,0.758,0.115
39.405,-0.713,0.756,0.111
39.415,-0.711,0.758,0.113
39.425,-0.707,0.752,0.115
39.435,-0.715,0.750,0.111
39.445,-0.715,0.750,0.117
39.455,-0.715,0.756,0.117
39.464,-0.717,0.758,0.113
39.474,-0.715,0.760,0.115
39.484,-0.717,0.758,0.113
39.494,-0.715,0.752,0.113
39.504,-0.717,0.754,0.111
39.514,-0.719,0.752,0.109
39.524,-0.719,0.754,0.111
39.534,-0.719,0.756,0.107
39.544,-0.719,0.760,0.111
39.554,-0.715,0.758,0.111
39.564,-0.713,0.760,0.111
39.574,-0.713,0.758,0.113
39.584,-0.711,0.752,0.115
39.593,-0.711,0.752,0.115
39.603,-0.713,0.754,0.113
39.613,-0.707,0.754,0.115
39.623,-0.709,0.754,0.115
39.633,-0.715,0.756,0.115
39.643,-0.711,0.758,0.115
39.653,-0.707,0.758,0.111
39.663,-0.711,0.752,0.115
39.673,-0.711,0.756,0.111
39.683,-0.715,0.760,0.113
39.693,-0.717,0.756,0.111
39.703,-0.715,0.758,0.115
39.713,-0.715,0.758,0.113
39.723,-0.719,0.758,0.115
39.732,-0.713,0.756,0.113
39.742,-0.713,0.754,0.111
39.752,-0.713,0.758,0.111
39.762,-0.717,0.754,0.111
39.772,-0.715,0.746,0.109
39.782,-0.723,0.746,0.109
39.792,-0.725,0.750,0.111
39.802,-0.727,0.750,0.111
39.812,-0.721,0.748,0.113
39.822,-0.713,0.740,0.109
39.832,-0.705,0.766,0.113
39.842,-0.701,0.770,0.113
39.852,-0.705,0.764,0.111
39.861,-0.709,0.756,0.109
39.871,-0.709,0.752,0.109
39.881,-0.715,0.754,0.109
39.891,-0.713,0.754,0.107
39.901,-0.717,0.756,0.107
39.911,-0.719,0.756,0.109
39.921,-0.717,0.756,0.109
39.931,-0.723,0.756,0.109
39.941,-0.725,0.758,0.111
39.951,-0.719,0.752,0.109
39.961,-0.719,0.754,0.109
39.971,-0.719,0.754,0.107
39.981,-0.717,0.758,0.109
39.990,-0.715,0.752,0.107
40.000,-0.715,0.754,0.109
40.010,-0.717,0.756,0.111
40.020,-0.717,0.758,0.111
40.030,-0.715,0.758,0.111
40.040,-0.713,0.752,0.111
40.050,-0.719,0.754,0.111
40.060,-0.717,0.750,0.109
40.070,-0.715,0.750,0.109
40.080,-0.713,0.752,0.107
40.090,-0.715,0.754,0.109
40.100,-0.719,0.756,0.107
40.110,-0.721,0.760,0.109
40.120,-0.715,0.758,0.104
40.129,-0.713,0.760,0.107
40.139,-0.711,0.758,0.109
40.149,-0.711,0.758,0.109
40.159,-0.715,0.758,0.109
40.169,-0.709,0.754,0.109
40.179,-0.713,0.758,0.109
40.189,-0.715,0.758,0.109
40.199,-0.711,0.758,0.109
40.209,-0.711,0.760,0.107
40.219,-0.707,0.760,0.107
40.229,-0.705,0.758,0.109
40.239,-0.709,0.762,0.111
40.249,-0.705,0.764,0.109
40.258,-0.705,0.762,0.109
40.268,-0.709,0.760,0.109
40.278,-0.711,0.762,0.107
40.288,-0.711,0.758,0.107
40.298,-0.713,0.760,0.107
40.308,-0.713,0.756,0.107
40.318,-0.713,0.760,0.105
40.328,-0.709,0.760,0.104
40.338,-0.709,0.760,0.105
40.348,-0.711,0.764,0.107
40.358,-0.709,0.762,0.107
40.368,-0.709,0.764,0.107
40.378,-0.707,0.764,0.109
40.388,-0.705,0.764,0.109
40.397,-0.703,0.760,0.109
40.407,-0.705,0.760,0.107
40.417,-0.703,0.760,0.107
40.427,-0.707,0.754,0.111
40.437,-0.711,0.760,0.109
40.447,-0.709,0.762,0.105
40.457,-0.709,0.760,0.109
40.467,-0.709,0.762,0.111
40.477,-0.707,0.760,0.111
40.487,-0.705,0.762,0.107
40.497,-0.711,0.762,0.113
40.507,-0.709,0.758,0.109
40.517,-0.703,0.760,0.113
40.526,-0.701,0.756,0.111
40.536,-0.709,0.758,0.113
40.546,-0.709,0.760,0.111
40.556,-0.711,0.756,0.109
40.566,-0.711,0.760,0.113
40.576,-0.715,0.770,0.117
40.586,-0.715,0.770,0.111
40.596,-0.715,0.762,0.115
40.606,-0.713,0.756,0.113
40.616,-0.717,0.756,0.111
40.626,-0.715,0.756,0.111
40.636,-0.715,0.750,0.111
40.646,-0.713,0.760,0.113
40.656,-0.717,0.756,0.119
40.665,-0.711,0.764,0.111
40.675,-0.707,0.760,0.117
40.685,-0.713,0.764,0.119
40.695,-0.707,0.758,0.113
40.705,-0.709,0.754,0.117
40.715,-0.715,0.756,0.119
40.725,-0.715,0.754,0.117
40.735,-0.709,0.760,0.121
40.745,-0.705,0.758,0.117
40.755,-0.713,0.754,0.119
40.765,-0.713,0.760,0.115
40.775,-0.713,0.756,0.117
40.785,-0.711,0.750,0.119
40.794,-0.717,0.754,0.115
40.804,-0.713,0.752,0.115
40.814,-0.717,0.752,0.115
40.824,-0.715,0.762,0.123
40.834,-0.717,0.754,0.119
40.844,-0.719,0.754,0.119
40.854,-0.713,0.752,0.117
40.864,-0.715,0.756,0.119
40.874,-0.717,0.758,0.119
40.884,-0.715,0.752,0.119
40.894,-0.717,0.752,0.117
40.904,-0.713,0.756,0.117
40.914,-0.711,0.758,0.117
40.923,-0.709,0.756,0.113
40.933,-0.709,0.756,0.115
40.943,-0.713,0.762,0.117
40.953,-0.715,0.758,0.117
40.963,-0.719,0.756,0.119
40.973,-0.719,0.758,0.119
40.983,-0.713,0.758,0.115
40.993,-0.717,0.752,0.117
41.003,-0.719,0.752,0.121
41.013,-0.717,0.754,0.119
41.023,-0.719,0.756,0.123
41.033,-0.719,0.754,0.121
41.043,-0.721,0.752,0.119
41.053,-0.723,0.750,0.127
41.062,-0.723,0.756,0.121
41.072,-0.719,0.750,0.125
41.082,-0.717,0.756,0.123
41.092,-0.711,0.756,0.125
41.102,-0.711,0.752,0.127
41.112,-0.715,0.752,0.123
41.122,-0.713,0.752,0.119
41.132,-0.713,0.756,0.123
41.142,-0.715,0.752,0.119
41.152,-0.719,0.754,0.123
41.162,-0.715,0.752,0.121
41.172,-0.719,0.754,0.121
41.182,-0.715,0.754,0.119
41.191,-0.715,0.752,0.117
41.201,-0.715,0.754,0.121
41.211,-0.715,0.756,0.121
41.221,-0.717,0.756,0.123
41.231,-0.717,0.760,0.121
41.241,-0.721,0.758,0.119
41.251,-0.717,0.758,0.117
41.261,-0.715,0.754,0.125
41.271,-0.713,0.750,0.125
41.281,-0.715,0.750,0.123
41.291,-0.717,0.752,0.123
41.301,-0.713,0.756,0.127
41.311,-0.713,0.758,0.127
41.321,-0.711,0.758,0.123
41.330,-0.715,0.756,0.123
41.340,-0.711,0.754,0.123
41.350,-0.711,0.752,0.123
41.360,-0.713,0.756,0.123
41.370,-0.711,0.758,0.121
41.380,-0.713,0.756,0.123
41.390,-0.711,0.754,0.123
41.400,-0.713,0.754,0.125
41.410,-0.719,0.754,0.123
41.420,-0.719,0.754,0.125
41.430,-0.719,0.754,0.123
41.440,-0.717,0.756,0.127
41.450,-0.717,0.756,0.121
41.459,-0.713,0.754,0.123
41.469,-0.711,0.754,0.123
41.479,-0.715,0.754,0.123
41.489,-0.713,0.756,0.119
41.499,-0.711,0.732,0.121
41.509,-0.721,0.764,0.121
41.519,-0.713,0.754,0.123
41.529,-0.715,0.756,0.121
41.539,-0.719,0.754,0.119
41.549,-0.721,0.768,0.119
41.559,-0.717,0.764,0.117
41.569,-0.713,0.756,0.121
41.579,-0.713,0.750,0.119
41.588,-0.715,0.748,0.123
41.598,-0.717,0.754,0.119
41.608,-0.721,0.754,0.123
41.618,-0.719,0.758,0.125
41.628,-0.719,0.754,0.119
41.638,-0.711,0.758,0.121
41.648,-0.715,0.756,0.121
41.658,-0.713,0.754,0.119
41.668,-0.715,0.752,0.119
41.678,-0.717,0.754,0.121
41.688,-0.715,0.758,0.117
41.698,-0.719,0.756,0.117
41.708,-0.713,0.754,0.119
41.718,-0.713,0.754,0.115
41.727,-0.709,0.750,0.113
41.737,-0.711,0.754,0.113
41.747,-0.717,0.756,0.113
41.757,-0.717,0.758,0.117
41.767,-0.717,0.756,0.113
41.777,-0.719,0.756,0.115
41.787,-0.715,0.754,0.117
41.797,-0.715,0.752,0.117
41.807,-0.715,0.752,0.115
41.817,-0.713,0.754,0.119
41.827,-0.709,0.752,0.115
41.837,-0.711,0.752,0.117
41.847,-0.707,0.760,0.117
41.856,-0.707,0.760,0.117
41.866,-0.709,0.758,0.113
41.876,-0.709,0.760,0.115
41.886,-0.709,0.760,0.113
41.896,-0.711,0.762,0.115
41.906,-0.715,0.758,0.115
41.916,-0.717,0.760,0.115
41.926,-0.717,0.762,0.111
41.936,-0.713,0.760,0.115
41.946,-0.713,0.760,0.111
41.956,-0.709,0.756,0.111
41.966,-0.715,0.756,0.113
41.976,-0.717,0.756,0.111
41.986,-0.713,0.760,0.111
41.995,-0.715,0.758,0.113
42.005,-0.713,0.756,0.113
42.015,-0.709,0.760,0.115
42.025,-0.711,0.758,0.113
42.035,-0.709,0.760,0.111
42.045,-0.709,0.758,0.111
42.055,-0.707,0.760,0.113
42.065,-0.713,0.756,0.113
42.075,-0.711,0.752,0.111
42.085,-0.715,0.758,0.115
42.095,-0.717,0.760,0.111
42.105,-0.719,0.760,0.117
42.115,-0.719,0.756,0.119
42.124,-0.717,0.758,0.117
42.134,-0.719,0.758,0.117
42.144,-0.713,0.754,0.117
42.154,-0.711,0.760,0.115
42.164,-0.707,0.756,0.115
42.174,-0.705,0.756,0.115
42.184,-0.713,0.752,0.111
42.194,-0.711,0.758,0.117
42.204,-0.711,0.766,0.117
42.214,-0.711,0.762,0.119
42.224,-0.717,0.766,0.117
42.234,-0.717,0.762,0.117
42.244,-0.715,0.758,0.117
42.253,-0.713,0.754,0.115
42.263,-0.717,0.754,0.117
42.273,-0.715,0.754,0.115
42.283,-0.715,0.758,0.115
42.293,-0.713,0.760,0.115
42.303,-0.715,0.758,0.121
42.313,-0.715,0.760,0.117
42.323,-0.713,0.760,0.117
42.333,-0.711,0.760,0.121
42.343,-0.713,0.756,0.119
42.353,-0.711,0.754,0.119
42.363,-0.707,0.760,0.119
42.373,-0.705,0.762,0.119
42.383,-0.705,0.756,0.125
42.392,-0.707,0.758,0.119
42.402,-0.705,0.754,0.115
42.412,-0.705,0.758,0.119
42.422,-0.707,0.758,0.119
42.432,-0.713,0.762,0.119
42.442,-0.711,0.764,0.115
42.452,-0.711,0.760,0.119
42.462,-0.713,0.760,0.117
42.472,-0.715,0.760,0.117
42.482,-0.709,0.758,0.121
42.492,-0.711,0.758,0.119
42.502,-0.709,0.762,0.121
42.512,-0.709,0.760,0.119
42.521,-0.709,0.758,0.119
42.531,-0.709,0.758,0.115
42.541,-0.707,0.758,0.117
42.551,-0.707,0.758,0.113
42.561,-0.707,0.758,0.115
42.571,-0.711,0.758,0.117
42.581,-0.709,0.762,0.117
42.591,-0.711,0.760,0.121
42.601,-0.711,0.764,0.115
42.611,-0.711,0.762,0.117
42.621,-0.713,0.758,0.119
42.631,-0.711,0.758,0.117
42.641,-0.711,0.758,0.117
42.651,-0.711,0.756,0.117
42.660,-0.713,0.760,0.119
42.670,-0.711,0.760,0.119
42.680,-0.709,0.758,0.117
42.690,-0.709,0.754,0.117
42.700,-0.709,0.754,0.117
42.710,-0.711,0.760,0.119
42.720,-0.709,0.760,0.119
42.730,-0.711,0.758,0.121
42.740,-0.709,0.758,0.119
42.750,-0.711,0.758,0.117
42.760,-0.713,0.758,0.119
42.770,-0.713,0.756,0.115
42.780,-0.711,0.754,0.115
42.789,-0.715,0.756,0.113
42.799,-0.719,0.758,0.113
42.809,-0.715,0.762,0.115
42.819,-0.717,0.760,0.117
42.829,-0.713,0.760,0.117
42.839,-0.709,0.760,0.117
42.849,-0.709,0.758,0.117
42.859,-0.709,0.760,0.117
42.869,-0.705,0.754,0.119
42.879,-0.707,0.758,0.121
42.889,-0.703,0.760,0.121
42.899,-0.703,0.756,0.119
42.909,-0.705,0.762,0.119
42.919,-0.707,0.756,0.113
42.928,-0.705,0.758,0.115
42.938,-0.705,0.762,0.121
42.948,-0.709,0.762,0.117
42.958,-0.709,0.762,0.113
42.968,-0.711,0.762,0.117
42.978,-0.709,0.760,0.113
42.988,-0.711,0.760,0.115
42.998,-0.713,0.760,0.113
43.008,-0.713,0.758,0.115
43.018,-0.711,0.758,0.115
43.028,-0.711,0.760,0.117
43.038,-0.711,0.760,0.117
43.048,-0.709,0.762,0.115
43.057,-0.711,0.762,0.115
43.067,-0.709,0.760,0.119
43.077,-0.709,0.762,0.113
43.087,-0.707,0.760,0.117
43.097,-0.707,0.756,0.113
43.107,-0.707,0.760,0.115
43.117,-0.709,0.762,0.117
43.127,-0.709,0.758,0.117
43.137,-0.713,0.762,0.115
43.147,-0.713,0.760,0.119
43.157,-0.715,0.760,0.115
43.167,-0.717,0.758,0.117
43.177,-0.713,0.764,0.115
43.186,-0.713,0.758,0.117
43.196,-0.711,0.756,0.117
43.206,-0.705,0.762,0.113
43.216,-0.705,0.754,0.115
43.226,-0.705,0.750,0.117
43.236,-0.707,0.750,0.115
43.246,-0.711,0.758,0.117
43.256,-0.717,0.760,0.119
43.266,-0.715,0.766,0.119
43.276,-0.715,0.764,0.117
43.286,-0.715,0.760,0.115
43.296,-0.715,0.760,0.111
43.306,-0.715,0.758,0.115
43.316,-0.717,0.754,0.117
43.325,-0.713,0.756,0.113
43.335,-0.715,0.756,0.117
43.345,-0.713,0.758,0.115
43.355,-0.713,0.762,0.117
43.365,-0.713,0.756,0.117
43.375,-0.711,0.756,0.117
43.385,-0.711,0.756,0.117
43.395,-0.709,0.754,0.117
43.405,-0.709,0.758,0.119
43.415,-0.707,0.756,0.117
43.425,-0.703,0.752,0.119
43.435,-0.705,0.758,0.117
43.445,-0.707,0.760,0.115
43.454,-0.707,0.760,0.117
43.464,-0.713,0.764,0.117
43.474,-0.713,0.762,0.113
43.484,-0.715,0.762,0.115
43.494,-0.715,0.762,0.115
43.504,-0.717,0.760,0.111
43.514,-0.713,0.760,0.115
43.524,-0.717,0.756,0.115
43.534,-0.717,0.758,0.117
43.544,-0.713,0.758,0.117
43.554,-0.711,0.760,0.117
43.564,-0.707,0.758,0.117
43.574,-0.705,0.760,0.115
43.584,-0.707,0.758,0.117
43.593,-0.707,0.758,0.121
43.603,-0.707,0.756,0.115
43.613,-0.711,0.758,0.115
43.623,-0.707,0.754,0.117
43.633,-0.713,0.758,0.117
43.643,-0.715,0.758,0.117
43.653,-0.717,0.760,0.113
43.663,-0.717,0.756,0.111
43.673,-0.717,0.760,0.111
43.683,-0.715,0.762,0.115
43.693,-0.717,0.760,0.117
43.703,-0.711,0.756,0.115
43.713,-0.717,0.758,0.117
43.722,-0.713,0.756,0.117
43.732,-0.711,0.754,0.113
43.742,-0.711,0.754,0.115
43.752,-0.713,0.752,0.117
43.762,-0.715,0.754,0.113
43.772,-0.717,0.756,0.117
43.782,-0.721,0.758,0.121
43.792,-0.725,0.760,0.119
43.802,-0.723,0.756,0.121
43.812,-0.723,0.752,0.115
43.822,-0.721,0.750,0.117
43.832,-0.723,0.750,0.115
43.842,-0.719,0.748,0.115
43.851,-0.719,0.748,0.113
43.861,-0.723,0.754,0.117
43.871,-0.719,0.756,0.115
43.881,-0.717,0.756,0.113
43.891,-0.715,0.756,0.115
43.901,-0.713,0.756,0.115
43.911,-0.707,0.756,0.115
43.921,-0.707,0.754,0.115
43.931,-0.711,0.754,0.111
43.941,-0.711,0.758,0.117
43.951,-0.707,0.758,0.113
43.961,-0.707,0.760,0.115
43.971,-0.709,0.760,0.111
43.981,-0.707,0.754,0.107
43.990,-0.709,0.756,0.109
44.000,-0.713,0.758,0.113
44.010,-0.713,0.758,0.113
44.020,-0.713,0.762,0.115
44.030,-0.711,0.762,0.115
44.040,-0.711,0.764,0.115
44.050,-0.711,0.762,0.117
44.060,-0.709,0.764,0.117
44.070,-0.709,0.764,0.117
44.080,-0.705,0.762,0.115
44.090,-0.707,0.762,0.119
44.100,-0.709,0.760,0.115
44.110,-0.709,0.760,0.115
44.119,-0.709,0.762,0.117
44.129,-0.709,0.762,0.117
44.139,-0.707,0.756,0.117
44.149,-0.707,0.758,0.117
44.159,-0.713,0.754,0.115
44.169,-0.711,0.754,0.115
44.179,-0.709,0.758,0.115
44.189,-0.717,0.756,0.113
44.199,-0.715,0.758,0.113
44.209,-0.711,0.758,0.111
44.219,-0.713,0.760,0.109
44.229,-0.713,0.758,0.113
44.239,-0.713,0.768,0.109
44.249,-0.707,0.762,0.109
44.258,-0.709,0.762,0.107
44.268,-0.705,0.762,0.109
44.278,-0.703,0.760,0.107
44.288,-0.707,0.758,0.105
44.298,-0.707,0.756,0.107
44.308,-0.707,0.758,0.109
44.318,-0.711,0.766,0.113
44.328,-0.715,0.766,0.111
44.338,-0.717,0.762,0.109
44.348,-0.717,0.758,0.111
44.358,-0.717,0.756,0.111
44.368,-0.719,0.758,0.113
44.378,-0.721,0.760,0.109
44.387,-0.717,0.762,0.111
44.397,-0.717,0.762,0.115
44.407,-0.711,0.762,0.113
44.417,-0.711,0.760,0.111
44.427,-0.709,0.762,0.117
44.437,-0.703,0.760,0.115
44.447,-0.703,0.758,0.119
44.457,-0.707,0.756,0.117
44.467,-0.703,0.756,0.119
44.477,-0.705,0.760,0.121
44.487,-0.709,0.762,0.121
44.497,-0.709,0.760,0.117
44.507,-0.707,0.760,0.115
44.516,-0.711,0.756,0.115
44.526,-0.713,0.758,0.115
44.536,-0.713,0.760,0.111
44.546,-0.715,0.764,0.113
44.556,-0.713,0.766,0.109
44.566,-0.711,0.762,0.109
44.576,-0.713,0.762,0.107
44.586,-0.711,0.768,0.109
44.596,-0.711,0.766,0.107
44.606,-0.711,0.766,0.105
44.616,-0.705,0.762,0.111
44.626,-0.703,0.766,0.109
44.636,-0.699,0.764,0.111
44.646,-0.697,0.764,0.115
44.655,-0.699,0.762,0.115
44.665,-0.699,0.760,0.113
44.675,-0.707,0.760,0.115
44.685,-0.707,0.762,0.117
44.695,-0.707,0.760,0.115
44.705,-0.707,0.764,0.115
44.715,-0.713,0.764,0.115
44.725,-0.707,0.764,0.115
44.735,-0.709,0.766,0.111
44.745,-0.705,0.764,0.113
44.755,-0.709,0.771,0.117
44.765,-0.705,0.768,0.113
44.775,-0.707,0.760,0.115
44.784,-0.709,0.764,0.117
44.794,-0.709,0.762,0.115
44.804,-0.701,0.762,0.113
44.814,-0.699,0.766,0.117
44.824,-0.699,0.762,0.117
44.834,-0.699,0.762,0.115
44.844,-0.701,0.762,0.117
44.854,-0.703,0.764,0.117
44.864,-0.703,0.766,0.117
44.874,-0.705,0.766,0.115
44.884,-0.707,0.764,0.113
44.894,-0.709,0.764,0.115
44.904,-0.713,0.764,0.111
44.914,-0.709,0.768,0.109
44.923,-0.709,0.768,0.109
44.933,-0.709,0.771,0.107
44.943,-0.707,0.773,0.109
44.953,-0.707,0.770,0.111
44.963,-0.703,0.768,0.113
44.973,-0.705,0.766,0.113
44.983,-0.699,0.762,0.117
44.993,-0.699,0.756,0.117
45.003,-0.703,0.762,0.121
45.013,-0.703,0.760,0.123
45.023,-0.701,0.766,0.123
45.033,-0.703,0.766,0.121
45.043,-0.705,0.766,0.117
45.052,-0.709,0.766,0.117
45.062,-0.707,0.762,0.115
45.072,-0.705,0.764,0.115
45.082,-0.707,0.766,0.115
45.092,-0.709,0.770,0.117
45.102,-0.713,0.768,0.115
45.112,-0.713,0.770,0.119
45.122,-0.711,0.764,0.111
45.132,-0.715,0.771,0.107
45.142,-0.719,0.766,0.104
45.152,-0.717,0.770,0.098
45.162,-0.717,0.768,0.098
45.172,-0.719,0.768,0.098
45.181,-0.713,0.770,0.100
45.191,-0.715,0.764,0.096
45.201,-0.713,0.764,0.102
45.211,-0.709,0.766,0.105
45.221,-0.709,0.768,0.105
45.231,-0.699,0.770,0.104
45.241,-0.691,0.770,0.111
45.251,-0.686,0.771,0.111
45.261,-0.674,0.764,0.113
45.271,-0.672,0.770,0.117
45.281,-0.670,0.771,0.125
45.291,-0.672,0.775,0.131
45.301,-0.674,0.781,0.135
45.311,-0.678,0.775,0.139
45.320,-0.684,0.771,0.139
45.330,-0.686,0.771,0.139
45.340,-0.693,0.775,0.143
45.350,-0.701,0.773,0.146
45.360,-0.693,0.777,0.143
45.370,-0.693,0.771,0.143
45.380,-0.693,0.766,0.141
45.390,-0.697,0.766,0.143
45.400,-0.699,0.760,0.141
45.410,-0.699,0.756,0.141
45.420,-0.699,0.758,0.139
45.430,-0.701,0.754,0.143
45.440,-0.701,0.752,0.139
45.449,-0.699,0.754,0.133
45.459,-0.697,0.752,0.133
45.469,-0.701,0.752,0.131
45.479,-0.697,0.752,0.131
45.489,-0.697,0.760,0.127
45.499,-0.701,0.768,0.125
45.509,-0.703,0.768,0.127
45.519,-0.709,0.770,0.125
45.529,-0.709,0.771,0.129
45.539,-0.707,0.773,0.131
45.549,-0.707,0.771,0.131
45.559,-0.707,0.768,0.135
45.569,-0.709,0.764,0.137
45.579,-0.711,0.766,0.139
45.588,-0.705,0.760,0.139
45.598,-0.707,0.766,0.139
45.608,-0.707,0.756,0.135
45.618,-0.707,0.758,0.133
45.628,-0.699,0.762,0.137
45.638,-0.693,0.771,0.137
45.648,-0.695,0.775,0.135
45.658,-0.701,0.783,0.139
45.668,-0.705,0.785,0.135
45.678,-0.707,0.779,0.137
45.688,-0.705,0.766,0.137
45.698,-0.695,0.762,0.137
45.708,-0.691,0.762,0.135
45.717,-0.688,0.756,0.131
45.727,-0.691,0.752,0.129
45.737,-0.701,0.746,0.127
45.747,-0.709,0.750,0.127
45.757,-0.709,0.754,0.127
45.767,-0.713,0.752,0.127
45.777,-0.715,0.754,0.127
45.787,-0.723,0.754,0.125
45.797,-0.725,0.754,0.127
45.807,-0.727,0.760,0.127
45.817,-0.723,0.762,0.125
45.827,-0.721,0.756,0.125
45.837,-0.719,0.758,0.123
45.847,-0.707,0.760,0.115
45.856,-0.709,0.768,0.117
45.866,-0.711,0.764,0.121
45.876,-0.717,0.760,0.123
45.886,-0.721,0.760,0.123
45.896,-0.727,0.762,0.123
45.906,-0.727,0.762,0.127
45.916,-0.719,0.762,0.125
45.926,-0.707,0.758,0.123
45.936,-0.701,0.754,0.121
45.946,-0.699,0.760,0.115
45.956,-0.697,0.762,0.119
45.966,-0.701,0.762,0.115
45.976,-0.703,0.768,0.121
45.985,-0.705,0.770,0.121
45.995,-0.705,0.766,0.117
46.005,-0.711,0.762,0.119
46.015,-0.707,0.760,0.117
46.025,-0.707,0.760,0.115
46.035,-0.707,0.760,0.115
46.045,-0.705,0.762,0.115
46.055,-0.705,0.760,0.113
46.065,-0.699,0.760,0.115
46.075,-0.703,0.756,0.117
46.085,-0.701,0.756,0.121
46.095,-0.703,0.758,0.119
46.105,-0.709,0.758,0.115
46.114,-0.709,0.756,0.117
46.124,-0.713,0.758,0.115
46.134,-0.715,0.760,0.113
46.144,-0.713,0.760,0.113
46.154,-0.711,0.762,0.115
46.164,-0.711,0.768,0.115
46.174,-0.715,0.766,0.113
46.184,-0.715,0.762,0.117
46.194,-0.715,0.764,0.113
46.204,-0.713,0.764,0.117
46.214,-0.717,0.764,0.115
46.224,-0.723,0.752,0.113
46.234,-0.727,0.748,0.113
46.244,-0.730,0.750,0.111
46.253,-0.723,0.752,0.109
46.263,-0.715,0.752,0.105
46.273,-0.707,0.758,0.100
46.283,-0.703,0.762,0.102
46.293,-0.715,0.766,0.098
46.303,-0.715,0.760,0.104
46.313,-0.717,0.764,0.098
46.323,-0.721,0.764,0.096
46.333,-0.723,0.764,0.098
46.343,-0.715,0.754,0.088
46.353,-0.717,0.768,0.094
46.363,-0.719,0.773,0.098
46.373,-0.723,0.771,0.098
46.382,-0.725,0.771,0.096
46.392,-0.730,0.770,0.098
46.402,-0.727,0.768,0.100
46.412,-0.725,0.773,0.100
46.422,-0.717,0.770,0.102
46.432,-0.715,0.773,0.105
46.442,-0.713,0.768,0.107
46.452,-0.711,0.766,0.107
46.462,-0.705,0.758,0.113
46.472,-0.699,0.758,0.107
46.482,-0.678,0.752,0.107
46.492,-0.680,0.768,0.111
46.502,-0.670,0.773,0.123
46.512,-0.666,0.779,0.131
46.521,-0.670,0.771,0.135
46.531,-0.684,0.777,0.143
46.541,-0.695,0.764,0.141
46.551,-0.709,0.762,0.148
46.561,-0.715,0.760,0.145
46.571,-0.721,0.756,0.143
46.581,-0.707,0.756,0.141
46.591,-0.703,0.768,0.143
46.601,-0.703,0.771,0.143
46.611,-0.709,0.770,0.141
46.621,-0.723,0.770,0.143
46.631,-0.730,0.771,0.145
46.641,-0.729,0.771,0.141
46.650,-0.713,0.773,0.137
46.660,-0.693,0.779,0.135
46.670,-0.666,0.783,0.131
46.680,-0.652,0.789,0.133
46.690,-0.654,0.789,0.135
46.700,-0.664,0.793,0.139
46.710,-0.670,0.793,0.146
46.720,-0.670,0.789,0.150
46.730,-0.666,0.779,0.152
46.740,-0.658,0.779,0.156
46.750,-0.650,0.764,0.152
46.760,-0.643,0.754,0.148
46.770,-0.639,0.756,0.145
46.779,-0.641,0.764,0.143
46.789,-0.645,0.789,0.141
46.799,-0.654,0.801,0.146
46.809,-0.664,0.795,0.145
46.819,-0.682,0.797,0.143
46.829,-0.689,0.793,0.137
46.839,-0.697,0.785,0.135
46.849,-0.701,0.783,0.119
46.859,-0.701,0.787,0.119
46.869,-0.699,0.781,0.111
46.879,-0.693,0.785,0.102
46.889,-0.689,0.787,0.102
46.899,-0.682,0.789,0.094
46.909,-0.676,0.787,0.092
46.918,-0.664,0.793,0.090
46.928,-0.660,0.801,0.092
46.938,-0.648,0.814,0.100
46.948,-0.645,0.814,0.105
46.958,-0.645,0.812,0.111
46.968,-0.648,0.809,0.109
46.978,-0.652,0.803,0.119
46.988,-0.656,0.803,0.121
46.998,-0.660,0.799,0.125
47.008,-0.656,0.789,0.127
47.018,-0.654,0.789,0.125
47.028,-0.654,0.783,0.131
47.038,-0.662,0.785,0.131
47.047,-0.670,0.785,0.129
47.057,-0.672,0.781,0.131
47.067,-0.678,0.783,0.133
47.077,-0.680,0.783,0.131
47.087,-0.684,0.785,0.133
47.097,-0.688,0.779,0.131
47.107,-0.686,0.785,0.133
47.117,-0.686,0.777,0.129
47.127,-0.686,0.773,0.123
47.137,-0.684,0.770,0.123
47.147,-0.684,0.773,0.127
47.157,-0.684,0.781,0.121
47.167,-0.684,0.785,0.119
47.177,-0.682,0.791,0.119
47.186,-0.688,0.791,0.123
47.196,-0.686,0.793,0.119
47.206,-0.689,0.783,0.123
47.216,-0.693,0.777,0.119
47.226,-0.693,0.771,0.127
47.236,-0.691,0.779,0.127
47.246,-0.695,0.779,0.127
47.256,-0.697,0.777,0.127
47.266,-0.701,0.777,0.127
47.276,-0.699,0.775,0.125
47.286,-0.701,0.773,0.123
47.296,-0.705,0.775,0.125
47.306,-0.699,0.777,0.131
47.315,-0.695,0.773,0.123
47.325,-0.688,0.777,0.125
47.335,-0.684,0.775,0.129
47.345,-0.684,0.775,0.125
47.355,-0.680,0.773,0.123
47.365,-0.680,0.775,0.123
47.375,-0.682,0.775,0.123
47.385,-0.686,0.771,0.123
47.395,-0.686,0.771,0.123
47.405,-0.682,0.773,0.125
47.415,-0.688,0.777,0.121
47.425,-0.688,0.779,0.123
47.435,-0.689,0.783,0.125
47.444,-0.691,0.787,0.121
47.454,-0.689,0.783,0.121
47.464,-0.695,0.781,0.119
47.474,-0.697,0.773,0.123
47.484,-0.699,0.775,0.121
47.494,-0.705,0.771,0.125
47.504,-0.703,0.773,0.127
47.514,-0.703,0.771,0.131
47.524,-0.701,0.770,0.129
47.534,-0.699,0.768,0.127
47.544,-0.695,0.770,0.129
47.554,-0.695,0.771,0.123
47.564,-0.691,0.771,0.123
47.574,-0.686,0.770,0.125
47.583,-0.689,0.770,0.127
47.593,-0.689,0.770,0.127
47.603,-0.695,0.770,0.129
47.613,-0.701,0.771,0.129
47.623,-0.701,0.773,0.127
47.633,-0.697,0.770,0.129
47.643,-0.699,0.770,0.125
47.653,-0.697,0.766,0.127
47.663,-0.699,0.768,0.123
47.673,-0.703,0.771,0.127
47.683,-0.701,0.770,0.129
47.693,-0.699,0.766,0.129
47.703,-0.699,0.768,0.131
47.712,-0.699,0.762,0.131
47.722,-0.703,0.760,0.133
47.732,-0.703,0.756,0.137
47.742,-0.711,0.754,0.137
47.752,-0.715,0.756,0.137
47.762,-0.717,0.762,0.141
47.772,-0.715,0.764,0.141
47.782,-0.715,0.766,0.143
47.792,-0.709,0.764,0.139
47.802,-0.715,0.762,0.137
47.812,-0.709,0.754,0.133
47.822,-0.707,0.756,0.133
47.832,-0.709,0.758,0.137
47.842,-0.713,0.758,0.135
47.851,-0.715,0.760,0.133
47.861,-0.715,0.762,0.131
47.871,-0.713,0.762,0.135
47.881,-0.709,0.764,0.133
47.891,-0.707,0.764,0.131
47.901,-0.705,0.764,0.133
47.911,-0.705,0.762,0.133
47.921,-0.707,0.760,0.131
47.931,-0.703,0.762,0.129
47.941,-0.705,0.762,0.129
47.951,-0.701,0.760,0.131
47.961,-0.701,0.760,0.127
47.971,-0.707,0.760,0.129
47.980,-0.703,0.760,0.131
47.990,-0.703,0.762,0.127
48.000,-0.709,0.760,0.129
48.010,-0.709,0.764,0.129
48.020,-0.711,0.768,0.131
48.030,-0.713,0.762,0.129
48.040,-0.715,0.760,0.131
48.050,-0.717,0.758,0.131
48.060,-0.713,0.760,0.131
48.070,-0.711,0.758,0.127
48.080,-0.705,0.754,0.131
48.090,-0.699,0.754,0.125
48.100,-0.697,0.754,0.129
48.110,-0.699,0.760,0.129
48.119,-0.699,0.758,0.125
48.129,-0.703,0.760,0.123
48.139,-0.711,0.762,0.127
48.149,-0.709,0.770,0.129
48.159,-0.709,0.768,0.131
48.169,-0.707,0.766,0.125
48.179,-0.707,0.762,0.127
48.189,-0.703,0.756,0.125
48.199,-0.709,0.756,0.129
48.209,-0.713,0.756,0.129
48.219,-0.715,0.760,0.131
48.229,-0.719,0.766,0.133
48.239,-0.717,0.764,0.131
48.248,-0.719,0.766,0.129
48.258,-0.715,0.766,0.133
48.268,-0.711,0.758,0.133
48.278,-0.707,0.758,0.131
48.288,-0.709,0.756,0.133
48.298,-0.709,0.756,0.135
48.308,-0.709,0.762,0.133
48.318,-0.707,0.758,0.129
48.328,-0.707,0.760,0.133
48.338,-0.705,0.754,0.133
48.348,-0.709,0.754,0.133
48.358,-0.709,0.760,0.131
48.368,-0.709,0.760,0.135
48.377,-0.713,0.758,0.135
48.387,-0.711,0.764,0.131
48.397,-0.713,0.764,0.129
48.407,-0.713,0.766,0.129
48.417,-0.713,0.762,0.129
48.427,-0.709,0.762,0.129
48.437,-0.709,0.764,0.131
48.447,-0.711,0.760,0.129
48.457,-0.709,0.758,0.129
48.467,-0.703,0.760,0.129
48.477,-0.703,0.760,0.131
48.487,-0.705,0.764,0.129
48.497,-0.705,0.762,0.129
48.507,-0.705,0.760,0.127
48.516,-0.707,0.764,0.125
48.526,-0.705,0.764,0.119
48.536,-0.707,0.766,0.123
48.546,-0.709,0.771,0.123
48.556,-0.707,0.770,0.125
48.566,-0.703,0.771,0.129
48.576,-0.703,0.770,0.127
48.586,-0.707,0.764,0.133
48.596,-0.707,0.768,0.129
48.606,-0.705,0.764,0.133
48.616,-0.703,0.760,0.133
48.626,-0.697,0.760,0.129
48.636,-0.695,0.758,0.129
48.645,-0.699,0.756,0.129
48.655,-0.701,0.760,0.127
48.665,-0.705,0.771,0.127
48.675,-0.711,0.771,0.129
48.685,-0.709,0.775,0.131
48.695,-0.705,0.768,0.129
48.705,-0.705,0.768,0.125
48.715,-0.705,0.766,0.127
48.725,-0.705,0.768,0.125
48.735,-0.703,0.766,0.125
48.745,-0.703,0.768,0.123
48.755,-0.701,0.764,0.125
48.765,-0.701,0.760,0.127
48.775,-0.703,0.762,0.129
48.784,-0.699,0.760,0.127
48.794,-0.701,0.760,0.133
48.804,-0.701,0.758,0.131
48.814,-0.699,0.760,0.133
48.824,-0.699,0.764,0.137
48.834,-0.701,0.764,0.139
48.844,-0.697,0.762,0.137
48.854,-0.695,0.764,0.139
48.864,-0.693,0.762,0.135
48.874,-0.695,0.762,0.133
48.884,-0.693,0.762,0.133
48.894,-0.693,0.770,0.135
48.904,-0.697,0.768,0.135
48.913,-0.695,0.770,0.135
48.923,-0.695,0.768,0.131
48.933,-0.697,0.766,0.131
48.943,-0.697,0.768,0.131
48.953,-0.701,0.762,0.133
48.963,-0.701,0.760,0.135
48.973,-0.701,0.760,0.133
48.983,-0.701,0.764,0.133
48.993,-0.701,0.766,0.139
49.003,-0.701,0.771,0.133
49.013,-0.699,0.771,0.133
49.023,-0.699,0.766,0.139
49.033,-0.699,0.770,0.135
49.042,-0.699,0.766,0.131
49.052,-0.701,0.764,0.135
49.062,-0.705,0.762,0.131
49.072,-0.701,0.766,0.133
49.082,-0.701,0.764,0.133
49.092,-0.707,0.766,0.131
49.102,-0.707,0.768,0.131
49.112,-0.705,0.764,0.133
49.122,-0.713,0.771,0.133
49.132,-0.705,0.770,0.131
49.142,-0.703,0.764,0.133
49.152,-0.695,0.766,0.133
49.162,-0.695,0.760,0.133
49.172,-0.695,0.760,0.131
49.181,-0.693,0.762,0.131
49.191,-0.697,0.764,0.133
49.201,-0.703,0.768,0.131
49.211,-0.705,0.770,0.137
49.221,-0.705,0.764,0.135
49.231,-0.701,0.762,0.137
49.241,-0.699,0.764,0.135
49.251,-0.701,0.762,0.135
49.261,-0.703,0.758,0.133
49.271,-0.695,0.760,0.133
49.281,-0.699,0.766,0.135
49.291,-0.703,0.766,0.133
49.301,-0.703,0.768,0.137
49.310,-0.703,0.766,0.139
49.320,-0.703,0.764,0.137
49.330,-0.705,0.766,0.139
49.340,-0.705,0.764,0.139
49.350,-0.705,0.764,0.139
49.360,-0.701,0.766,0.139
49.370,-0.701,0.773,0.139
49.380,-0.697,0.770,0.137
49.390,-0.703,0.768,0.135
49.400,-0.703,0.764,0.135
49.410,-0.707,0.768,0.131
49.420,-0.709,0.764,0.137
49.430,-0.707,0.768,0.137
49.440,-0.703,0.768,0.135
49.449,-0.703,0.764,0.137
49.459,-0.703,0.762,0.139
49.469,-0.703,0.760,0.139
49.479,-0.701,0.762,0.139
49.489,-0.705,0.764,0.143
49.499,-0.703,0.764,0.141
49.509,-0.703,0.764,0.139
49.519,-0.707,0.766,0.143
49.529,-0.705,0.770,0.143
49.539,-0.699,0.768,0.141
49.549,-0.703,0.762,0.139
49.559,-0.703,0.764,0.139
49.569,-0.701,0.766,0.139
49.578,-0.701,0.760,0.135
49.588,-0.699,0.760,0.141
49.598,-0.707,0.764,0.139
49.608,-0.707,0.764,0.141
49.618,-0.707,0.762,0.145
49.628,-0.711,0.764,0.141
49.638,-0.713,0.758,0.143
49.648,-0.713,0.756,0.145
49.658,-0.711,0.756,0.143
49.668,-0.707,0.758,0.143
49.678,-0.711,0.760,0.141
49.688,-0.711,0.756,0.143
49.698,-0.711,0.756,0.141
49.707,-0.715,0.756,0.146
49.717,-0.719,0.764,0.146
49.727,-0.713,0.760,0.145
49.737,-0.713,0.760,0.145
49.747,-0.713,0.762,0.143
49.757,-0.707,0.758,0.143
49.767,-0.707,0.758,0.145
49.777,-0.711,0.754,0.143
49.787,-0.713,0.752,0.143
49.797,-0.713,0.758,0.143
49.807,-0.713,0.760,0.143
49.817,-0.711,0.762,0.143
49.827,-0.711,0.760,0.139
49.837,-0.711,0.760,0.145
49.846,-0.709,0.762,0.141
49.856,-0.709,0.758,0.143
49.866,-0.709,0.758,0.141
49.876,-0.703,0.760,0.143
49.886,-0.703,0.762,0.141
49.896,-0.707,0.758,0.143
49.906,-0.703,0.766,0.141
49.916,-0.705,0.758,0.141
49.926,-0.705,0.760,0.141
49.936,-0.709,0.762,0.141
49.946,-0.709,0.760,0.143
49.956,-0.713,0.762,0.145
49.966,-0.713,0.762,0.141
49.975,-0.713,0.762,0.139
49.985,-0.711,0.760,0.139
49.995,-0.709,0.760,0.139
50.005,-0.703,0.758,0.137
50.015,-0.707,0.758,0.139
50.025,-0.707,0.758,0.139
50.035,-0.711,0.758,0.141
50.045,-0.709,0.760,0.139
50.055,-0.705,0.762,0.143
50.065,-0.709,0.760,0.141
50.075,-0.705,0.758,0.141
50.085,-0.709,0.760,0.141
50.095,-0.711,0.760,0.143
50.105,-0.711,0.758,0.143
50.114,-0.713,0.760,0.143
50.124,-0.713,0.764,0.145
50.134,-0.713,0.762,0.141
50.144,-0.717,0.762,0.141
50.154,-0.711,0.762,0.141
50.164,-0.713,0.758,0.137
50.174,-0.709,0.758,0.139
50.184,-0.711,0.764,0.143
50.194,-0.705,0.764,0.145
50.204,-0.701,0.764,0.139
50.214,-0.697,0.760,0.139
50.224,-0.699,0.758,0.137
50.234,-0.705,0.758,0.139
50.243,-0.707,0.756,0.141
50.253,-0.701,0.762,0.141
50.263,-0.701,0.766,0.143
50.273,-0.703,0.764,0.137
50.283,-0.705,0.760,0.139
50.293,-0.709,0.760,0.135
50.303,-0.713,0.758,0.135
50.313,-0.717,0.762,0.133
50.323,-0.721,0.768,0.133
50.333,-0.727,0.764,0.133
50.343,-0.723,0.770,0.131
50.353,-0.723,0.766,0.133
50.363,-0.719,0.768,0.135
50.373,-0.713,0.766,0.135
50.382,-0.703,0.762,0.135
50.392,-0.699,0.766,0.133
50.402,-0.693,0.766,0.137
50.412,-0.689,0.768,0.139
50.422,-0.688,0.768,0.137
50.432,-0.688,0.758,0.141
50.442,-0.689,0.766,0.139
50.452,-0.689,0.764,0.137
50.462,-0.689,0.764,0.137
50.472,-0.686,0.766,0.135
50.482,-0.688,0.771,0.137
50.492,-0.689,0.768,0.135
50.502,-0.695,0.773,0.133
50.511,-0.697,0.775,0.137
50.521,-0.703,0.771,0.131
50.531,-0.703,0.771,0.133
50.541,-0.705,0.768,0.133
50.551,-0.705,0.764,0.139
50.561,-0.703,0.768,0.135
50.571,-0.703,0.760,0.135
50.581,-0.701,0.762,0.137
50.591,-0.699,0.766,0.133
50.601,-0.699,0.766,0.131
50.611,-0.699,0.770,0.135
50.621,-0.693,0.770,0.133
50.631,-0.697,0.771,0.131
50.640,-0.697,0.771,0.131
50.650,-0.693,0.771,0.131
50.660,-0.697,0.771,0.135
50.670,-0.695,0.771,0.131
50.680,-0.693,0.771,0.133
50.690,-0.695,0.770,0.135
50.700,-0.697,0.766,0.131
50.710,-0.693,0.771,0.131
50.720,-0.699,0.773,0.133
50.730,-0.695,0.771,0.131
50.740,-0.693,0.773,0.133
50.750,-0.691,0.771,0.135
50.760,-0.695,0.770,0.137
50.770,-0.699,0.771,0.137
50.779,-0.701,0.764,0.137
50.789,-0.705,0.770,0.139
50.799,-0.699,0.768,0.141
50.809,-0.697,0.768,0.139
50.819,-0.695,0.766,0.135
50.829,-0.691,0.768,0.139
50.839,-0.695,0.768,0.135
50.849,-0.699,0.764,0.137
50.859,-0.699,0.770,0.135
50.869,-0.701,0.770,0.139
50.879,-0.703,0.770,0.141
50.889,-0.703,0.768,0.141
50.899,-0.701,0.764,0.143
50.908,-0.699,0.766,0.139
50.918,-0.697,0.766,0.143
50.928,-0.697,0.762,0.141
50.938,-0.697,0.766,0.139
50.948,-0.697,0.766,0.143
50.958,-0.695,0.771,0.141
50.968,-0.691,0.768,0.141
50.978,-0.693,0.766,0.139
50.988,-0.693,0.770,0.137
50.998,-0.693,0.768,0.135
51.008,-0.695,0.770,0.139
51.018,-0.697,0.771,0.141
51.028,-0.697,0.771,0.137
51.038,-0.697,0.770,0.141
51.047,-0.699,0.770,0.137
51.057,-0.701,0.768,0.141
51.067,-0.701,0.770,0.137
51.077,-0.701,0.768,0.137
51.087,-0.703,0.770,0.139
51.097,-0.699,0.770,0.141
51.107,-0.699,0.762,0.139
51.117,-0.697,0.768,0.141
51.127,-0.697,0.768,0.141
51.137,-0.697,0.764,0.139
51.147,-0.697,0.766,0.139
51.157,-0.697,0.764,0.141
51.167,-0.699,0.766,0.137
51.176,-0.697,0.768,0.139
51.186,-0.693,0.768,0.139
51.196,-0.697,0.764,0.137
51.206,-0.695,0.766,0.137
51.216,-0.699,0.770,0.141
51.226,-0.699,0.768,0.139
51.236,-0.701,0.766,0.137
51.246,-0.703,0.764,0.137
51.256,-0.709,0.766,0.137
51.266,-0.711,0.764,0.141
51.276,-0.703,0.768,0.139
51.286,-0.697,0.770,0.135
51.296,-0.699,0.762,0.139
51.305,-0.699,0.764,0.135
51.315,-0.699,0.762,0.137
51.325,-0.707,0.764,0.137
51.335,-0.709,0.768,0.141
51.345,-0.707,0.770,0.141
51.355,-0.703,0.766,0.139
51.365,-0.705,0.764,0.137
51.375,-0.705,0.762,0.137
51.385,-0.703,0.760,0.135
51.395,-0.705,0.762,0.135
51.405,-0.705,0.764,0.133
51.415,-0.705,0.766,0.135
51.425,-0.705,0.768,0.133
51.435,-0.705,0.768,0.137
51.444,-0.703,0.768,0.135
51.454,-0.701,0.762,0.135
51.464,-0.703,0.764,0.135
51.474,-0.699,0.762,0.137
51.484,-0.701,0.762,0.137
51.494,-0.699,0.766,0.135
51.504,-0.699,0.764,0.139
51.514,-0.699,0.766,0.139
51.524,-0.703,0.762,0.141
51.534,-0.699,0.762,0.139
51.544,-0.703,0.766,0.139
51.554,-0.703,0.766,0.139
51.564,-0.707,0.768,0.137
51.573,-0.709,0.766,0.139
51.583,-0.707,0.766,0.139
51.593,-0.707,0.768,0.137
51.603,-0.705,0.764,0.139
51.613,-0.705,0.766,0.135
51.623,-0.703,0.764,0.137
51.633,-0.703,0.766,0.137
51.643,-0.701,0.764,0.131
51.653,-0.699,0.764,0.133
51.663,-0.701,0.766,0.133
51.673,-0.701,0.768,0.133
51.683,-0.701,0.768,0.133
51.693,-0.699,0.768,0.135
51.703,-0.701,0.766,0.131
51.712,-0.701,0.764,0.131
51.722,-0.703,0.768,0.135
51.732,-0.701,0.766,0.135
51.742,-0.705,0.768,0.131
51.752,-0.701,0.766,0.137
51.762,-0.701,0.764,0.131
51.772,-0.705,0.764,0.131
51.782,-0.705,0.764,0.131
51.792,-0.705,0.768,0.131
51.802,-0.705,0.770,0.131
51.812,-0.707,0.766,0.135
51.822,-0.707,0.766,0.135
51.832,-0.701,0.768,0.137
51.841,-0.701,0.764,0.137
51.851,-0.701,0.762,0.137
51.861,-0.707,0.764,0.137
51.871,-0.707,0.764,0.135
51.881,-0.705,0.766,0.137
51.891,-0.705,0.766,0.135
51.901,-0.703,0.762,0.133
51.911,-0.705,0.762,0.135
51.921,-0.709,0.762,0.133
51.931,-0.711,0.758,0.135
51.941,-0.707,0.760,0.131
51.951,-0.709,0.760,0.135
51.961,-0.707,0.762,0.133
51.970,-0.709,0.762,0.133
51.980,-0.705,0.762,0.133
51.990,-0.705,0.762,0.133
52.000,-0.701,0.762,0.131
52.010,-0.701,0.762,0.133
52.020,-0.701,0.764,0.131
52.030,-0.707,0.764,0.131
52.040,-0.703,0.764,0.131
52.050,-0.703,0.766,0.133
52.060,-0.705,0.766,0.131
52.070,-0.707,0.766,0.135
52.080,-0.703,0.760,0.131
52.090,-0.705,0.758,0.131
52.100,-0.705,0.760,0.135
52.109,-0.701,0.764,0.133
52.119,-0.703,0.768,0.131
52.129,-0.703,0.768,0.133
52.139,-0.705,0.768,0.129
52.149,-0.705,0.771,0.129
52.159,-0.701,0.770,0.131
52.169,-0.705,0.766,0.129
52.179,-0.701,0.766,0.131
52.189,-0.697,0.766,0.131
52.199,-0.699,0.766,0.129
52.209,-0.699,0.762,0.127
52.219,-0.697,0.766,0.131
52.229,-0.701,0.768,0.131
52.238,-0.699,0.766,0.131
52.248,-0.703,0.764,0.135
52.258,-0.703,0.764,0.129
52.268,-0.705,0.764,0.133
52.278,-0.707,0.762,0.133
52.288,-0.703,0.764,0.133
52.298,-0.703,0.760,0.135
52.308,-0.699,0.766,0.133
52.318,-0.703,0.764,0.131
52.328,-0.707,0.766,0.133
52.338,-0.711,0.766,0.127
52.348,-0.709,0.766,0.129
52.358,-0.711,0.768,0.131
52.368,-0.705,0.766,0.131
52.377,-0.701,0.764,0.129
52.387,-0.699,0.760,0.131
52.397,-0.705,0.760,0.135
52.407,-0.703,0.760,0.131
52.417,-0.705,0.764,0.135
52.427,-0.707,0.770,0.133
52.437,-0.707,0.768,0.135
52.447,-0.707,0.766,0.131
52.457,-0.707,0.762,0.133
52.467,-0.709,0.760,0.131
52.477,-0.709,0.756,0.131
52.487,-0.705,0.756,0.133
52.497,-0.705,0.764,0.131
52.506,-0.707,0.760,0.133
52.516,-0.705,0.766,0.131
52.526,-0.709,0.766,0.133
52.536,-0.705,0.766,0.133
52.546,-0.707,0.766,0.133
52.556,-0.705,0.762,0.135
52.566,-0.707,0.760,0.133
52.576,-0.705,0.762,0.135
52.586,-0.701,0.762,0.137
52.596,-0.699,0.764,0.133
52.606,-0.701,0.764,0.133
52.616,-0.701,0.766,0.131
52.626,-0.699,0.760,0.133
52.636,-0.703,0.766,0.135
52.645,-0.705,0.766,0.135
52.655,-0.707,0.764,0.133
52.665,-0.707,0.764,0.135
52.675,-0.707,0.764,0.131
52.685,-0.709,0.764,0.129
52.695,-0.705,0.766,0.129
52.705,-0.709,0.762,0.133
52.715,-0.705,0.764,0.129
52.725,-0.705,0.764,0.127
52.735,-0.703,0.764,0.125
52.745,-0.699,0.764,0.131
52.755,-0.701,0.764,0.127
52.765,-0.699,0.768,0.127
52.774,-0.699,0.766,0.131
52.784,-0.701,0.770,0.129
52.794,-0.703,0.768,0.127
52.804,-0.703,0.764,0.131
52.814,-0.705,0.762,0.125
52.824,-0.703,0.762,0.125
52.834,-0.703,0.760,0.129
52.844,-0.707,0.760,0.129
52.854,-0.707,0.764,0.131
52.864,-0.707,0.766,0.129
52.874,-0.705,0.766,0.127
52.884,-0.707,0.766,0.129
52.894,-0.705,0.766,0.127
52.903,-0.709,0.766,0.129
52.913,-0.707,0.760,0.131
52.923,-0.703,0.764,0.127
52.933,-0.703,0.762,0.129
52.943,-0.703,0.758,0.127
52.953,-0.707,0.758,0.129
52.963,-0.709,0.764,0.129
52.973,-0.711,0.766,0.127
52.983,-0.709,0.768,0.127
52.993,-0.705,0.766,0.131
53.003,-0.709,0.762,0.129
53.013,-0.709,0.762,0.129
53.023,-0.707,0.760,0.125
53.033,-0.707,0.762,0.125
53.042,-0.709,0.762,0.127
53.052,-0.707,0.766,0.125
53.062,-0.707,0.768,0.131
53.072,-0.707,0.762,0.127
53.082,-0.707,0.764,0.129
53.092,-0.707,0.762,0.133
53.102,-0.703,0.758,0.129
53.112,-0.703,0.758,0.131
53.122,-0.703,0.760,0.131
53.132,-0.701,0.760,0.133
53.142,-0.703,0.768,0.129
53.152,-0.705,0.760,0.131
53.162,-0.705,0.764,0.131
53.171,-0.705,0.762,0.129
53.181,-0.711,0.764,0.131
53.191,-0.709,0.762,0.129
53.201,-0.709,0.766,0.129
53.211,-0.709,0.766,0.129
53.221,-0.707,0.762,0.127
53.231,-0.705,0.764,0.125
53.241,-0.703,0.764,0.129
53.251,-0.707,0.764,0.129
53.261,-0.707,0.764,0.131
53.271,-0.707,0.764,0.129
53.281,-0.703,0.764,0.129
53.291,-0.701,0.760,0.127
53.301,-0.699,0.760,0.129
53.310,-0.699,0.758,0.129
53.320,-0.703,0.762,0.127
53.330,-0.705,0.762,0.131
53.340,-0.705,0.762,0.129
53.350,-0.707,0.762,0.127
53.360,-0.709,0.760,0.127
53.370,-0.713,0.762,0.127
53.380,-0.715,0.760,0.123
53.390,-0.711,0.760,0.125
53.400,-0.715,0.760,0.125
53.410,-0.713,0.760,0.125
53.420,-0.711,0.760,0.127
53.430,-0.709,0.758,0.127
53.439,-0.713,0.758,0.129
53.449,-0.713,0.760,0.129
53.459,-0.713,0.762,0.131
53.469,-0.713,0.764,0.131
53.479,-0.707,0.764,0.131
53.489,-0.707,0.758,0.127
53.499,-0.707,0.756,0.131
53.509,-0.711,0.756,0.131
53.519,-0.713,0.758,0.131
53.529,-0.715,0.762,0.129
53.539,-0.711,0.762,0.133
53.549,-0.713,0.762,0.131
53.559,-0.713,0.762,0.131
53.568,-0.713,0.756,0.129
53.578,-0.713,0.758,0.131
53.588,-0.715,0.756,0.127
53.598,-0.713,0.756,0.127
53.608,-0.715,0.758,0.125
53.618,-0.715,0.760,0.127
53.628,-0.713,0.762,0.127
53.638,-0.709,0.762,0.129
53.648,-0.709,0.760,0.129
53.658,-0.709,0.760,0.129
53.668,-0.705,0.758,0.129
53.678,-0.707,0.760,0.127
53.688,-0.707,0.760,0.131
53.698,-0.707,0.760,0.127
53.707,-0.707,0.760,0.131
53.717,-0.707,0.756,0.129
53.727,-0.709,0.758,0.129
53.737,-0.707,0.760,0.131
53.747,-0.709,0.760,0.135
53.757,-0.711,0.764,0.131
53.767,-0.713,0.760,0.131
53.777,-0.713,0.762,0.129
53.787,-0.713,0.760,0.129
53.797,-0.709,0.762,0.129
53.807,-0.711,0.762,0.127
53.817,-0.709,0.758,0.127
53.827,-0.709,0.762,0.127
53.836,-0.709,0.760,0.131
53.846,-0.707,0.760,0.131
53.856,-0.707,0.762,0.127
53.866,-0.705,0.760,0.127
53.876,-0.705,0.764,0.131
53.886,-0.705,0.764,0.129
53.896,-0.707,0.762,0.127
53.906,-0.709,0.760,0.129
53.916,-0.709,0.758,0.131
53.926,-0.709,0.760,0.131
53.936,-0.707,0.758,0.131
53.946,-0.707,0.758,0.129
53.956,-0.711,0.760,0.131
53.966,-0.713,0.760,0.133
53.975,-0.711,0.764,0.133
53.985,-0.715,0.764,0.133
53.995,-0.713,0.760,0.133
54.005,-0.711,0.762,0.135
54.015,-0.715,0.762,0.137
54.025,-0.705,0.758,0.137
54.035,-0.703,0.760,0.137
54.045,-0.699,0.758,0.139
54.055,-0.703,0.758,0.135
54.065,-0.707,0.756,0.135
54.075,-0.713,0.758,0.133
54.085,-0.711,0.766,0.133
54.095,-0.711,0.768,0.133
54.104,-0.711,0.768,0.137
54.114,-0.711,0.764,0.133
54.124,-0.709,0.762,0.135
54.134,-0.711,0.758,0.133
54.144,-0.709,0.758,0.133
54.154,-0.715,0.754,0.133
54.164,-0.711,0.758,0.133
54.174,-0.713,0.762,0.135
54.184,-0.707,0.762,0.135
54.194,-0.707,0.760,0.133
54.204,-0.707,0.760,0.135
54.214,-0.707,0.758,0.135
54.224,-0.707,0.762,0.137
54.233,-0.707,0.760,0.135
54.243,-0.711,0.758,0.135
54.253,-0.703,0.762,0.131
54.263,-0.705,0.762,0.137
54.273,-0.707,0.764,0.137
54.283,-0.703,0.760,0.131
54.293,-0.705,0.758,0.131
54.303,-0.707,0.760,0.137
54.313,-0.711,0.762,0.135
54.323,-0.711,0.762,0.133
54.333,-0.715,0.762,0.133
54.343,-0.715,0.762,0.135
54.353,-0.713,0.762,0.139
54.363,-0.715,0.760,0.133
54.372,-0.713,0.756,0.133
54.382,-0.711,0.762,0.133
54.392,-0.705,0.758,0.129
54.402,-0.707,0.760,0.129
54.412,-0.705,0.762,0.129
54.422,-0.709,0.762,0.131
54.432,-0.703,0.760,0.133
54.442,-0.707,0.760,0.133
54.452,-0.709,0.762,0.131
54.462,-0.709,0.762,0.135
54.472,-0.709,0.762,0.133
54.482,-0.709,0.764,0.131
54.492,-0.711,0.760,0.131
54.501,-0.711,0.758,0.131
54.511,-0.717,0.758,0.133
54.521,-0.717,0.758,0.137
54.531,-0.713,0.760,0.137
54.541,-0.711,0.760,0.135
54.551,-0.717,0.756,0.139
54.561,-0.717,0.760,0.137
54.571,-0.717,0.760,0.141
54.581,-0.713,0.756,0.135
54.591,-0.707,0.758,0.135
54.601,-0.707,0.758,0.141
54.611,-0.709,0.754,0.137
54.621,-0.711,0.752,0.137
54.631,-0.713,0.758,0.139
54.640,-0.713,0.758,0.137
54.650,-0.713,0.762,0.139
54.660,-0.711,0.764,0.139
54.670,-0.709,0.760,0.135
54.680,-0.709,0.754,0.135
54.690,-0.711,0.758,0.131
54.700,-0.711,0.758,0.135
54.710,-0.713,0.758,0.133
54.720,-0.711,0.760,0.137
54.730,-0.713,0.762,0.135
54.740,-0.713,0.762,0.137
54.750,-0.713,0.758,0.139
54.760,-0.711,0.760,0.135
54.769,-0.709,0.756,0.135
54.779,-0.709,0.756,0.135
54.789,-0.705,0.758,0.135
54.799,-0.707,0.760,0.139
54.809,-0.705,0.766,0.143
54.819,-0.703,0.764,0.141
54.829,-0.705,0.766,0.143
54.839,-0.705,0.758,0.139
54.849,-0.705,0.756,0.139
54.859,-0.709,0.758,0.133
54.869,-0.709,0.756,0.137
54.879,-0.713,0.758,0.139
54.889,-0.711,0.760,0.139
54.899,-0.711,0.758,0.137
54.908,-0.711,0.758,0.139
54.918,-0.711,0.766,0.141
54.928,-0.711,0.762,0.135
54.938,-0.711,0.764,0.135
54.948,-0.711,0.760,0.135
54.958,-0.705,0.762,0.137
54.968,-0.705,0.758,0.139
54.978,-0.703,0.758,0.141
54.988,-0.705,0.758,0.141
54.998,-0.705,0.756,0.141
55.008,-0.705,0.758,0.137
55.018,-0.709,0.762,0.137
55.028,-0.709,0.760,0.135
55.037,-0.707,0.760,0.135
55.047,-0.711,0.762,0.137
55.057,-0.711,0.760,0.135
55.067,-0.711,0.758,0.135
55.077,-0.715,0.762,0.139
55.087,-0.713,0.764,0.137
55.097,-0.709,0.760,0.135
55.107,-0.711,0.758,0.137
55.117,-0.711,0.764,0.137
55.127,-0.715,0.762,0.141
55.137,-0.707,0.762,0.139
55.147,-0.705,0.766,0.137
55.157,-0.703,0.758,0.137
55.166,-0.705,0.756,0.139
55.176,-0.705,0.756,0.139
55.186,-0.707,0.758,0.141
55.196,-0.709,0.762,0.139
55.206,-0.711,0.766,0.141
55.216,-0.711,0.764,0.137
55.226,-0.715,0.760,0.137
55.236,-0.711,0.758,0.135
55.246,-0.713,0.756,0.137
55.256,-0.711,0.758,0.137
55.266,-0.711,0.758,0.135
55.276,-0.711,0.760,0.139
55.286,-0.707,0.760,0.139
55.296,-0.703,0.764,0.141
55.305,-0.707,0.762,0.141
55.315,-0.703,0.760,0.137
55.325,-0.703,0.762,0.135
55.335,-0.705,0.758,0.139
55.345,-0.707,0.758,0.139
55.355,-0.705,0.762,0.141
55.365,-0.705,0.762,0.137
55.375,-0.707,0.760,0.141
55.385,-0.705,0.762,0.139
55.395,-0.705,0.762,0.139
55.405,-0.707,0.760,0.137
55.415,-0.711,0.760,0.139
55.425,-0.713,0.758,0.137
55.434,-0.711,0.762,0.137
55.444,-0.711,0.762,0.135
55.454,-0.709,0.766,0.139
55.464,-0.711,0.762,0.135
55.474,-0.705,0.764,0.139
55.484,-0.703,0.760,0.135
55.494,-0.707,0.758,0.133
55.504,-0.707,0.762,0.137
55.514,-0.707,0.756,0.137
55.524,-0.705,0.764,0.135
55.534,-0.705,0.764,0.133
55.544,-0.705,0.764,0.139
55.554,-0.709,0.762,0.137
55.564,-0.707,0.764,0.137
55.573,-0.703,0.762,0.135
55.583,-0.707,0.760,0.137
55.593,-0.705,0.758,0.135
55.603,-0.707,0.758,0.133
55.613,-0.707,0.756,0.133
55.623,-0.705,0.758,0.135
55.633,-0.709,0.762,0.135
55.643,-0.707,0.766,0.133
55.653,-0.709,0.766,0.135
55.663,-0.711,0.762,0.133
55.673,-0.711,0.764,0.137
55.683,-0.711,0.762,0.139
55.693,-0.709,0.760,0.139
55.702,-0.705,0.762,0.139
55.712,-0.705,0.760,0.141
55.722,-0.705,0.758,0.141
55.732,-0.709,0.758,0.139
55.742,-0.713,0.758,0.137
55.752,-0.715,0.764,0.145
55.762,-0.713,0.766,0.141
55.772,-0.711,0.764,0.143
55.782,-0.711,0.758,0.139
55.792,-0.709,0.758,0.137
55.802,-0.707,0.758,0.133
55.812,-0.707,0.758,0.133
55.822,-0.709,0.760,0.135
55.831,-0.711,0.762,0.133
55.841,-0.715,0.764,0.133
55.851,-0.711,0.766,0.137
55.861,-0.711,0.762,0.135
55.871,-0.707,0.758,0.139
55.881,-0.707,0.752,0.141
55.891,-0.707,0.756,0.141
55.901,-0.707,0.754,0.141
55.911,-0.705,0.756,0.139
55.921,-0.707,0.760,0.135
55.931,-0.709,0.760,0.139
55.941,-0.707,0.766,0.137
55.951,-0.705,0.760,0.135
55.961,-0.709,0.760,0.129
55.970,-0.709,0.764,0.135
55.980,-0.709,0.766,0.135
55.990,-0.711,0.764,0.133
56.000,-0.709,0.764,0.129
56.010,-0.709,0.764,0.129
56.020,-0.709,0.766,0.131
56.030,-0.709,0.762,0.131
56.040,-0.711,0.764,0.133
56.050,-0.709,0.762,0.133
56.060,-0.707,0.762,0.133
56.070,-0.707,0.764,0.131
56.080,-0.705,0.762,0.137
56.090,-0.703,0.764,0.133
56.099,-0.707,0.762,0.135
56.109,-0.703,0.764,0.137
56.119,-0.707,0.760,0.133
56.129,-0.707,0.762,0.135
56.139,-0.707,0.760,0.135
56.149,-0.709,0.754,0.135
56.159,-0.707,0.756,0.135
56.169,-0.709,0.760,0.135
56.179,-0.711,0.762,0.135
56.189,-0.709,0.762,0.133
56.199,-0.705,0.762,0.135
56.209,-0.711,0.762,0.135
56.219,-0.711,0.758,0.131
56.229,-0.713,0.764,0.129
56.238,-0.713,0.766,0.133
56.248,-0.709,0.764,0.133
56.258,-0.707,0.764,0.131
56.268,-0.703,0.758,0.133
56.278,-0.707,0.756,0.135
56.288,-0.705,0.758,0.135
56.298,-0.709,0.760,0.135
56.308,-0.709,0.760,0.137
56.318,-0.711,0.760,0.137
56.328,-0.707,0.762,0.135
56.338,-0.711,0.760,0.135
56.348,-0.715,0.760,0.137
56.358,-0.715,0.756,0.129
56.367,-0.717,0.754,0.141
56.377,-0.715,0.752,0.137
56.387,-0.715,0.758,0.135
56.397,-0.717,0.760,0.137
56.407,-0.713,0.762,0.135
56.417,-0.707,0.762,0.135
56.427,-0.707,0.764,0.137
56.437,-0.707,0.760,0.137
56.447,-0.705,0.762,0.133
56.457,-0.707,0.758,0.129
56.467,-0.701,0.762,0.137
56.477,-0.701,0.762,0.139
56.487,-0.701,0.762,0.137
56.496,-0.701,0.764,0.137
56.506,-0.701,0.762,0.133
56.516,-0.709,0.762,0.133
56.526,-0.709,0.762,0.135
56.536,-0.709,0.764,0.139
56.546,-0.713,0.764,0.139
56.556,-0.711,0.762,0.137
56.566,-0.709,0.762,0.135
56.576,-0.709,0.762,0.137
56.586,-0.709,0.764,0.137
56.596,-0.709,0.764,0.133
56.606,-0.709,0.760,0.137
56.616,-0.707,0.760,0.133
56.626,-0.709,0.762,0.135
56.635,-0.703,0.758,0.135
56.645,-0.703,0.758,0.139
56.655,-0.707,0.760,0.137
56.665,-0.705,0.762,0.133
56.675,-0.711,0.764,0.137
56.685,-0.709,0.766,0.133
56.695,-0.709,0.766,0.133
56.705,-0.711,0.760,0.135
56.715,-0.711,0.760,0.131
56.725,-0.709,0.760,0.133
56.735,-0.709,0.758,0.135
56.745,-0.711,0.762,0.133
56.755,-0.709,0.760,0.133
56.764,-0.709,0.762,0.133
56.774,-0.707,0.762,0.131
56.784,-0.707,0.762,0.135
56.794,-0.705,0.762,0.133
56.804,-0.705,0.764,0.131
56.814,-0.701,0.758,0.135
56.824,-0.707,0.758,0.135
56.834,-0.707,0.760,0.133
56.844,-0.709,0.764,0.135
56.854,-0.707,0.764,0.135
56.864,-0.711,0.764,0.137
56.874,-0.709,0.758,0.133
56.884,-0.709,0.760,0.137
56.894,-0.709,0.760,0.135
56.903,-0.709,0.756,0.133
56.913,-0.709,0.756,0.135
56.923,-0.713,0.760,0.133
56.933,-0.717,0.764,0.137
56.943,-0.713,0.760,0.137
56.953,-0.713,0.762,0.139
56.963,-0.711,0.762,0.137
56.973,-0.711,0.760,0.137
56.983,-0.707,0.760,0.137
56.993,-0.705,0.756,0.137
57.003,-0.705,0.762,0.139
57.013,-0.701,0.762,0.137
57.023,-0.705,0.760,0.139
57.032,-0.705,0.764,0.139
57.042,-0.707,0.760,0.135
57.052,-0.707,0.760,0.133
57.062,-0.711,0.768,0.135
57.072,-0.711,0.762,0.137
57.082,-0.709,0.766,0.137
57.092,-0.707,0.766,0.133
57.102,-0.707,0.762,0.137
57.112,-0.707,0.764,0.135
57.122,-0.705,0.760,0.133
57.132,-0.707,0.760,0.135
57.142,-0.705,0.764,0.135
57.152,-0.705,0.762,0.135
57.161,-0.705,0.760,0.137
57.171,-0.701,0.762,0.135
57.181,-0.703,0.762,0.133
57.191,-0.703,0.764,0.135
57.201,-0.705,0.762,0.137
57.211,-0.707,0.766,0.137
57.221,-0.707,0.766,0.133
57.231,-0.707,0.764,0.131
57.241,-0.709,0.764,0.131
57.251,-0.711,0.762,0.135
57.261,-0.707,0.764,0.135
57.271,-0.711,0.764,0.135
57.281,-0.709,0.764,0.131
57.291,-0.711,0.764,0.133
57.300,-0.705,0.760,0.133
57.310,-0.713,0.764,0.133
57.320,-0.711,0.762,0.129
57.330,-0.705,0.766,0.133
57.340,-0.701,0.766,0.133
57.350,-0.699,0.762,0.133
57.360,-0.701,0.756,0.135
57.370,-0.701,0.754,0.135
57.380,-0.701,0.758,0.137
57.390,-0.705,0.764,0.137
57.400,-0.705,0.768,0.137
57.410,-0.707,0.764,0.135
57.420,-0.709,0.762,0.135
57.429,-0.707,0.762,0.135
57.439,-0.707,0.758,0.129
57.449,-0.709,0.760,0.133
57.459,-0.709,0.762,0.133
57.469,-0.711,0.768,0.131
57.479,-0.711,0.768,0.133
57.489,-0.709,0.766,0.131
57.499,-0.709,0.764,0.137
57.509,-0.705,0.764,0.137
57.519,-0.707,0.760,0.133
57.529,-0.703,0.756,0.139
57.539,-0.705,0.756,0.135
57.549,-0.703,0.764,0.137
57.559,-0.701,0.762,0.137
57.568,-0.703,0.764,0.139
57.578,-0.703,0.768,0.133
57.588,-0.707,0.764,0.135
57.598,-0.709,0.762,0.133
57.608,-0.711,0.764,0.135
57.618,-0.715,0.766,0.135
57.628,-0.713,0.766,0.133
57.638,-0.713,0.766,0.135
57.648,-0.707,0.762,0.133
57.658,-0.707,0.760,0.135
57.668,-0.701,0.760,0.135
57.678,-0.701,0.764,0.137
57.688,-0.697,0.764,0.137
57.697,-0.699,0.764,0.133
57.707,-0.701,0.766,0.139
57.717,-0.701,0.768,0.133
57.727,-0.699,0.766,0.135
57.737,-0.703,0.766,0.133
57.747,-0.703,0.764,0.137
57.757,-0.707,0.764,0.139
57.767,-0.705,0.762,0.135
57.777,-0.705,0.762,0.133
57.787,-0.703,0.760,0.135
57.797,-0.705,0.762,0.133
57.807,-0.703,0.762,0.133
57.817,-0.707,0.764,0.135
57.827,-0.705,0.764,0.139
57.836,-0.707,0.768,0.137
57.846,-0.709,0.766,0.139
57.856,-0.711,0.766,0.135
57.866,-0.711,0.762,0.139
57.876,-0.711,0.760,0.135
57.886,-0.705,0.758,0.133
57.896,-0.701,0.758,0.137
57.906,-0.703,0.758,0.133
57.916,-0.707,0.760,0.131
57.926,-0.703,0.762,0.131
57.936,-0.709,0.768,0.135
57.946,-0.707,0.766,0.137
57.956,-0.705,0.768,0.135
57.965,-0.705,0.764,0.137
57.975,-0.707,0.760,0.137
57.985,-0.709,0.758,0.135
57.995,-0.711,0.756,0.135
58.005,-0.711,0.758,0.135
58.015,-0.711,0.760,0.137
58.025,-0.711,0.762,0.133
58.035,-0.711,0.762,0.133
58.045,-0.711,0.766,0.135
58.055,-0.709,0.766,0.135
58.065,-0.709,0.762,0.133
58.075,-0.707,0.762,0.137
58.085,-0.703,0.760,0.135
58.094,-0.699,0.762,0.137
58.104,-0.699,0.762,0.139
58.114,-0.699,0.764,0.137
58.124,-0.701,0.764,0.141
58.134,-0.699,0.760,0.141
58.144,-0.703,0.760,0.141
58.154,-0.707,0.762,0.139
58.164,-0.711,0.762,0.137
58.174,-0.711,0.764,0.137
58.184,-0.711,0.766,0.135
58.194,-0.711,0.768,0.135
58.204,-0.711,0.764,0.133
58.214,-0.707,0.768,0.133
58.224,-0.707,0.764,0.135
58.233,-0.705,0.766,0.135
58.243,-0.701,0.766,0.133
58.253,-0.699,0.766,0.133
58.263,-0.699,0.766,0.135
58.273,-0.701,0.764,0.135
58.283,-0.701,0.766,0.135
58.293,-0.703,0.766,0.135
58.303,-0.703,0.762,0.139
58.313,-0.703,0.764,0.137
58.323,-0.705,0.764,0.141
58.333,-0.705,0.764,0.137
58.343,-0.703,0.762,0.139
58.353,-0.707,0.762,0.135
58.362,-0.705,0.766,0.133
58.372,-0.703,0.764,0.137
58.382,-0.707,0.766,0.135
58.392,-0.705,0.766,0.139
58.402,-0.707,0.764,0.139
58.412,-0.705,0.768,0.139
58.422,-0.707,0.766,0.137
58.432,-0.705,0.766,0.137
58.442,-0.699,0.764,0.139
58.452,-0.699,0.762,0.139
58.462,-0.703,0.762,0.139
58.472,-0.705,0.758,0.139
58.482,-0.705,0.762,0.141
58.492,-0.705,0.766,0.139
58.501,-0.703,0.768,0.135
58.511,-0.707,0.768,0.141
58.521,-0.705,0.766,0.133
58.531,-0.709,0.762,0.135
58.541,-0.707,0.760,0.137
58.551,-0.709,0.758,0.135
58.561,-0.711,0.760,0.135
58.571,-0.711,0.760,0.139
58.581,-0.709,0.764,0.137
58.591,-0.709,0.764,0.139
58.601,-0.707,0.762,0.137
58.611,-0.705,0.762,0.137
58.621,-0.703,0.764,0.137
58.630,-0.705,0.764,0.139
58.640,-0.701,0.764,0.139
58.650,-0.699,0.768,0.137
58.660,-0.701,0.766,0.139
58.670,-0.697,0.766,0.143
58.680,-0.705,0.766,0.137
58.690,-0.705,0.762,0.139
58.700,-0.703,0.758,0.135
58.710,-0.705,0.764,0.139
58.720,-0.707,0.764,0.139
58.730,-0.707,0.768,0.135
58.740,-0.703,0.764,0.137
58.750,-0.701,0.764,0.139
58.759,-0.701,0.766,0.135
58.769,-0.703,0.764,0.135
58.779,-0.703,0.764,0.135
58.789,-0.703,0.764,0.137
58.799,-0.701,0.768,0.133
58.809,-0.703,0.766,0.135
58.819,-0.703,0.768,0.135
58.829,-0.703,0.762,0.135
58.839,-0.703,0.766,0.137
58.849,-0.703,0.760,0.135
58.859,-0.705,0.764,0.135
58.869,-0.705,0.764,0.137
58.879,-0.707,0.766,0.135
58.889,-0.705,0.764,0.139
58.898,-0.707,0.764,0.135
58.908,-0.705,0.766,0.133
58.918,-0.703,0.764,0.135
58.928,-0.705,0.764,0.135
58.938,-0.705,0.764,0.133
58.948,-0.705,0.766,0.133
58.958,-0.705,0.766,0.135
58.968,-0.703,0.764,0.135
58.978,-0.707,0.766,0.137
58.988,-0.709,0.768,0.141
58.998,-0.705,0.764,0.141
59.008,-0.703,0.764,0.137
59.018,-0.699,0.764,0.139
59.027,-0.699,0.758,0.137
59.037,-0.703,0.760,0.139
59.047,-0.707,0.762,0.139
59.057,-0.707,0.770,0.137
59.067,-0.711,0.770,0.139
59.077,-0.711,0.771,0.139
59.087,-0.709,0.766,0.137
59.097,-0.709,0.762,0.135
59.107,-0.707,0.762,0.135
59.117,-0.705,0.758,0.135
59.127,-0.703,0.760,0.133
59.137,-0.707,0.764,0.135
59.147,-0.707,0.766,0.135
59.157,-0.707,0.768,0.137
59.166,-0.707,0.768,0.139
59.176,-0.705,0.768,0.137
59.186,-0.701,0.764,0.133
59.196,-0.701,0.760,0.137
59.206,-0.701,0.758,0.139
59.216,-0.707,0.762,0.135
59.226,-0.703,0.766,0.139
59.236,-0.703,0.766,0.139
59.246,-0.707,0.766,0.137
59.256,-0.707,0.764,0.137
59.266,-0.709,0.760,0.135
59.276,-0.709,0.762,0.139
59.286,-0.711,0.762,0.137
59.295,-0.709,0.764,0.137
59.305,-0.709,0.764,0.135
59.315,-0.709,0.764,0.137
59.325,-0.705,0.764,0.137
59.335,-0.705,0.760,0.137
59.345,-0.707,0.764,0.133
59.355,-0.705,0.766,0.133
59.365,-0.705,0.768,0.135
59.375,-0.707,0.764,0.133
59.385,-0.701,0.768,0.135
59.395,-0.703,0.764,0.133
59.405,-0.705,0.766,0.131
59.415,-0.703,0.764,0.133
59.424,-0.705,0.764,0.131
59.434,-0.697,0.764,0.133
59.444,-0.703,0.770,0.133
59.454,-0.701,0.764,0.131
59.464,-0.705,0.768,0.135
59.474,-0.705,0.768,0.135
59.484,-0.707,0.762,0.131
59.494,-0.707,0.764,0.131
59.504,-0.709,0.762,0.135
59.514,-0.707,0.764,0.135
59.524,-0.703,0.764,0.135
59.534,-0.701,0.764,0.133
59.544,-0.701,0.762,0.137
59.554,-0.703,0.760,0.135
59.563,-0.703,0.764,0.135
59.573,-0.697,0.768,0.137
59.583,-0.699,0.760,0.139
59.593,-0.697,0.764,0.137
59.603,-0.699,0.762,0.133
59.613,-0.699,0.762,0.133
59.623,-0.705,0.768,0.133
59.633,-0.707,0.768,0.137
59.643,-0.709,0.768,0.137
59.653,-0.709,0.768,0.135
59.663,-0.711,0.766,0.135
59.673,-0.709,0.762,0.133
59.683,-0.709,0.764,0.131
59.692,-0.707,0.762,0.133
59.702,-0.705,0.762,0.133
59.712,-0.707,0.760,0.135
59.722,-0.703,0.764,0.137
59.732,-0.703,0.764,0.133
59.742,-0.705,0.764,0.139
59.752,-0.701,0.760,0.139
59.762,-0.703,0.760,0.137
59.772,-0.705,0.758,0.135
59.782,-0.705,0.760,0.135
59.792,-0.707,0.756,0.137
59.802,-0.705,0.762,0.137
59.812,-0.703,0.766,0.137
59.822,-0.701,0.766,0.135
59.831,-0.703,0.766,0.133
59.841,-0.705,0.764,0.133
59.851,-0.703,0.764,0.131
59.861,-0.707,0.766,0.131
59.871,-0.707,0.768,0.137
59.881,-0.711,0.768,0.137
59.891,-0.711,0.768,0.137
59.901,-0.707,0.766,0.133
59.911,-0.709,0.762,0.133
59.921,-0.707,0.760,0.137
59.931,-0.705,0.760,0.133
59.941,-0.701,0.762,0.139
59.951,-0.705,0.764,0.135
59.960,-0.703,0.762,0.135
59.970,-0.703,0.762,0.137
59.980,-0.705,0.762,0.131
59.990,-0.703,0.764,0.137
60.000,-0.705,0.762,0.135
60.010,-0.707,0.766,0.133
60.020,-0.703,0.762,0.135
60.030,-0.705,0.762,0.135
60.040,-0.703,0.760,0.135
60.050,-0.707,0.762,0.135
60.060,-0.707,0.760,0.133
60.070,-0.705,0.768,0.133
60.080,-0.707,0.766,0.135
60.090,-0.707,0.768,0.137
60.099,-0.709,0.762,0.137
60.109,-0.711,0.766,0.135
60.119,-0.709,0.762,0.137
60.129,-0.707,0.762,0.141
60.139,-0.701,0.758,0.137
60.149,-0.699,0.758,0.135
60.159,-0.705,0.756,0.139
60.169,-0.703,0.758,0.141
60.179,-0.707,0.762,0.141
60.189,-0.711,0.766,0.137
60.199,-0.715,0.766,0.143
60.209,-0.713,0.762,0.139
60.219,-0.711,0.760,0.137
60.228,-0.711,0.758,0.135
60.238,-0.709,0.760,0.137
60.248,-0.711,0.758,0.135
60.258,-0.709,0.758,0.139
60.268,-0.709,0.760,0.139
60.278,-0.711,0.768,0.141
60.288,-0.707,0.764,0.139
60.298,-0.705,0.760,0.139
60.308,-0.705,0.758,0.139
60.318,-0.703,0.760,0.137
60.328,-0.705,0.758,0.141
60.338,-0.707,0.764,0.135
60.348,-0.705,0.764,0.137
60.357,-0.705,0.766,0.139
60.367,-0.701,0.766,0.135
60.377,-0.703,0.762,0.137
60.387,-0.705,0.762,0.137
60.397,-0.703,0.758,0.135
60.407,-0.705,0.758,0.137
60.417,-0.707,0.758,0.137
60.427,-0.709,0.762,0.135
60.437,-0.713,0.762,0.135
60.447,-0.711,0.768,0.135
60.457,-0.707,0.766,0.135
60.467,-0.709,0.764,0.133
60.477,-0.707,0.762,0.137
60.487,-0.707,0.764,0.139
60.496,-0.707,0.762,0.137
60.506,-0.707,0.760,0.139
60.516,-0.707,0.762,0.139
60.526,-0.707,0.758,0.135
60.536,-0.711,0.760,0.139
60.546,-0.709,0.762,0.135
60.556,-0.711,0.762,0.137
60.566,-0.715,0.760,0.135
60.576,-0.709,0.758,0.141
60.586,-0.711,0.754,0.135
60.596,-0.713,0.756,0.137
60.606,-0.711,0.762,0.139
60.616,-0.713,0.764,0.137
60.625,-0.709,0.762,0.137
60.635,-0.707,0.764,0.137
60.645,-0.711,0.766,0.139
60.655,-0.709,0.764,0.139
60.665,-0.709,0.764,0.139
60.675,-0.707,0.762,0.141
60.685,-0.707,0.762,0.143
60.695,-0.703,0.760,0.141
60.705,-0.705,0.752,0.141
60.715,-0.707,0.752,0.141
60.725,-0.709,0.754,0.141
60.735,-0.713,0.760,0.141
60.745,-0.713,0.762,0.139
60.755,-0.715,0.762,0.141
60.764,-0.713,0.762,0.139
60.774,-0.713,0.762,0.137
60.784,-0.715,0.762,0.137
60.794,-0.717,0.760,0.137
60.804,-0.713,0.756,0.133
60.814,-0.717,0.760,0.135
60.824,-0.717,0.762,0.139
60.834,-0.713,0.760,0.139
60.844,-0.707,0.760,0.139
60.854,-0.705,0.760,0.143
60.864,-0.707,0.760,0.143
60.874,-0.705,0.762,0.141
60.884,-0.705,0.758,0.143
60.893,-0.703,0.756,0.141
60.903,-0.705,0.756,0.143
60.913,-0.703,0.758,0.145
60.923,-0.703,0.756,0.143
60.933,-0.701,0.760,0.143
60.943,-0.703,0.758,0.141
60.953,-0.709,0.764,0.137
60.963,-0.711,0.764,0.139
60.973,-0.711,0.764,0.141
60.983,-0.715,0.764,0.139
60.993,-0.715,0.764,0.141
61.003,-0.715,0.756,0.139
61.013,-0.715,0.758,0.139
61.022,-0.717,0.758,0.137
61.032,-0.713,0.760,0.143
61.042,-0.713,0.756,0.139
61.052,-0.715,0.758,0.139
61.062,-0.713,0.756,0.139
61.072,-0.713,0.758,0.139
61.082,-0.713,0.754,0.141
61.092,-0.713,0.758,0.141
61.102,-0.713,0.758,0.135
61.112,-0.709,0.758,0.137
61.122,-0.713,0.756,0.143
61.132,-0.711,0.756,0.139
61.142,-0.713,0.756,0.137
61.152,-0.715,0.760,0.139
61.161,-0.715,0.758,0.137
61.171,-0.717,0.760,0.137
61.181,-0.715,0.760,0.139
61.191,-0.715,0.758,0.137
61.201,-0.713,0.756,0.137
61.211,-0.709,0.754,0.139
61.221,-0.709,0.756,0.137
61.231,-0.711,0.758,0.143
61.241,-0.711,0.760,0.141
61.251,-0.707,0.762,0.139
61.261,-0.707,0.758,0.137
61.271,-0.707,0.754,0.139
61.281,-0.711,0.752,0.141
61.290,-0.711,0.754,0.139
61.300,-0.715,0.762,0.137
61.310,-0.717,0.764,0.143
61.320,-0.719,0.764,0.139
61.330,-0.717,0.760,0.137
61.340,-0.715,0.760,0.137
61.350,-0.717,0.754,0.135
61.360,-0.717,0.750,0.137
61.370,-0.721,0.754,0.133
61.380,-0.721,0.758,0.139
61.390,-0.713,0.756,0.139
61.400,-0.713,0.762,0.137
61.410,-0.713,0.764,0.135
61.420,-0.707,0.758,0.135
61.429,-0.709,0.756,0.137
61.439,-0.705,0.756,0.141
61.449,-0.709,0.752,0.135
61.459,-0.709,0.756,0.137
61.469,-0.705,0.758,0.139
61.479,-0.709,0.762,0.135
61.489,-0.707,0.760,0.139
61.499,-0.713,0.760,0.133
61.509,-0.711,0.760,0.135
61.519,-0.715,0.758,0.137
61.529,-0.719,0.758,0.133
61.539,-0.715,0.764,0.135
61.549,-0.713,0.758,0.137
61.558,-0.715,0.760,0.135
61.568,-0.717,0.758,0.135
61.578,-0.711,0.760,0.139
61.588,-0.713,0.758,0.135
61.598,-0.709,0.762,0.135
61.608,-0.705,0.762,0.135
61.618,-0.707,0.766,0.137
61.628,-0.701,0.762,0.133
61.638,-0.701,0.762,0.133
61.648,-0.701,0.760,0.135
61.658,-0.697,0.764,0.139
61.668,-0.701,0.766,0.139
61.678,-0.701,0.764,0.133
61.687,-0.701,0.766,0.137
61.697,-0.703,0.762,0.133
61.707,-0.705,0.762,0.137
61.717,-0.703,0.760,0.137
61.727,-0.703,0.766,0.141
61.737,-0.705,0.766,0.137
61.747,-0.701,0.768,0.137
61.757,-0.703,0.764,0.139
61.767,-0.707,0.766,0.141
61.777,-0.709,0.768,0.137
61.787,-0.707,0.766,0.143
61.797,-0.701,0.768,0.145
61.807,-0.701,0.764,0.146
61.817,-0.699,0.758,0.143
61.826,-0.699,0.760,0.145
61.836,-0.699,0.760,0.143
61.846,-0.701,0.762,0.146
61.856,-0.699,0.764,0.143
61.866,-0.701,0.764,0.145
61.876,-0.703,0.762,0.143
61.886,-0.705,0.762,0.139
61.896,-0.705,0.754,0.139
61.906,-0.711,0.758,0.141
61.916,-0.713,0.758,0.139
61.926,-0.717,0.762,0.139
61.936,-0.715,0.764,0.143
61.946,-0.711,0.764,0.137
61.955,-0.711,0.760,0.143
61.965,-0.713,0.758,0.139
61.975,-0.707,0.756,0.143
61.985,-0.709,0.760,0.141
61.995,-0.707,0.754,0.145
62.005,-0.707,0.758,0.141
62.015,-0.709,0.760,0.141
62.025,-0.707,0.762,0.135
62.035,-0.703,0.758,0.141
62.045,-0.709,0.762,0.135
62.055,-0.705,0.760,0.137
62.065,-0.711,0.760,0.137
62.075,-0.709,0.762,0.137
62.085,-0.709,0.762,0.139
62.094,-0.709,0.760,0.139
62.104,-0.713,0.764,0.141
62.114,-0.713,0.764,0.141
62.124,-0.713,0.762,0.141
62.134,-0.713,0.760,0.141
62.144,-0.711,0.762,0.141
62.154,-0.711,0.758,0.141
62.164,-0.707,0.758,0.133
62.174,-0.709,0.760,0.135
62.184,-0.705,0.760,0.137
62.194,-0.709,0.762,0.141
62.204,-0.705,0.764,0.137
62.214,-0.709,0.760,0.141
62.223,-0.713,0.758,0.139
62.233,-0.705,0.756,0.135
62.243,-0.709,0.756,0.139
62.253,-0.709,0.756,0.137
62.263,-0.711,0.758,0.137
62.273,-0.707,0.764,0.139
62.283,-0.709,0.766,0.139
62.293,-0.707,0.762,0.139
62.303,-0.705,0.764,0.137
62.313,-0.703,0.764,0.137
62.323,-0.707,0.764,0.139
62.333,-0.707,0.762,0.139
62.343,-0.701,0.762,0.135
62.353,-0.703,0.760,0.137
62.362,-0.699,0.756,0.139
62.372,-0.701,0.762,0.137
62.382,-0.697,0.762,0.139
62.392,-0.703,0.766,0.139
62.402,-0.705,0.773,0.137
62.412,-0.699,0.777,0.135
62.422,-0.703,0.775,0.137
62.432,-0.705,0.777,0.135
62.442,-0.705,0.770,0.135
62.452,-0.705,0.766,0.131
62.462,-0.707,0.766,0.135
62.472,-0.711,0.760,0.133
62.482,-0.711,0.760,0.139
62.491,-0.711,0.764,0.139
62.501,-0.711,0.760,0.139
62.511,-0.711,0.762,0.141
62.521,-0.707,0.760,0.141
62.531,-0.711,0.762,0.141
62.541,-0.705,0.760,0.139
62.551,-0.699,0.760,0.141
62.561,-0.695,0.762,0.143
62.571,-0.691,0.762,0.137
62.581,-0.693,0.760,0.141
62.591,-0.699,0.770,0.141
62.601,-0.699,0.768,0.141
62.611,-0.705,0.771,0.137
62.620,-0.703,0.773,0.137
62.630,-0.707,0.777,0.137
62.640,-0.713,0.773,0.143
62.650,-0.713,0.773,0.139
62.660,-0.709,0.770,0.137
62.670,-0.707,0.766,0.137
62.680,-0.705,0.764,0.133
62.690,-0.705,0.764,0.135
62.700,-0.705,0.766,0.131
62.710,-0.701,0.764,0.137
62.720,-0.701,0.764,0.137
62.730,-0.697,0.762,0.139
62.740,-0.705,0.762,0.135
62.750,-0.701,0.768,0.139
62.759,-0.701,0.764,0.137
62.769,-0.705,0.762,0.139
62.779,-0.703,0.762,0.135
62.789,-0.711,0.766,0.139
62.799,-0.709,0.764,0.139
62.809,-0.705,0.770,0.135
62.819,-0.703,0.771,0.137
62.829,-0.701,0.773,0.133
62.839,-0.703,0.770,0.133
62.849,-0.699,0.768,0.133
62.859,-0.703,0.770,0.131
62.869,-0.703,0.768,0.133
62.879,-0.705,0.764,0.135
62.888,-0.701,0.766,0.133
62.898,-0.697,0.766,0.133
62.908,-0.695,0.764,0.133
62.918,-0.695,0.760,0.135
62.928,-0.701,0.760,0.135
62.938,-0.705,0.766,0.133
62.948,-0.703,0.770,0.139
62.958,-0.703,0.768,0.139
62.968,-0.709,0.770,0.141
62.978,-0.711,0.768,0.137
62.988,-0.715,0.762,0.137
62.998,-0.711,0.754,0.133
63.008,-0.713,0.758,0.137
63.018,-0.709,0.756,0.137
63.027,-0.713,0.756,0.137
63.037,-0.713,0.760,0.135
63.047,-0.711,0.762,0.139
63.057,-0.709,0.768,0.141
63.067,-0.707,0.762,0.145
63.077,-0.705,0.764,0.145
63.087,-0.709,0.764,0.148
63.097,-0.707,0.756,0.145
63.107,-0.701,0.764,0.143
63.117,-0.709,0.760,0.148
63.127,-0.703,0.760,0.148
63.137,-0.703,0.760,0.145
63.147,-0.701,0.762,0.146
63.156,-0.703,0.756,0.141
63.166,-0.705,0.762,0.145
63.176,-0.705,0.768,0.146
63.186,-0.707,0.768,0.146
63.196,-0.707,0.770,0.143
63.206,-0.711,0.762,0.146
63.216,-0.711,0.764,0.143
63.226,-0.703,0.764,0.141
63.236,-0.705,0.760,0.145
63.246,-0.697,0.760,0.143
63.256,-0.697,0.766,0.141
63.266,-0.697,0.766,0.143
63.276,-0.701,0.764,0.141
63.285,-0.703,0.770,0.148
63.295,-0.705,0.764,0.145
63.305,-0.701,0.764,0.143
63.315,-0.705,0.758,0.145
63.325,-0.707,0.762,0.148
63.335,-0.711,0.758,0.146
63.345,-0.709,0.754,0.143
63.355,-0.709,0.758,0.141
63.365,-0.715,0.752,0.146
63.375,-0.715,0.758,0.146
63.385,-0.719,0.758,0.150
63.395,-0.715,0.760,0.148
63.405,-0.715,0.760,0.146
63.415,-0.713,0.756,0.148
63.424,-0.707,0.758,0.154
63.434,-0.705,0.758,0.150
63.444,-0.703,0.754,0.150
63.454,-0.705,0.752,0.150
63.464,-0.707,0.754,0.150
63.474,-0.711,0.764,0.148
63.484,-0.711,0.760,0.146
63.494,-0.715,0.756,0.152
63.504,-0.711,0.758,0.150
63.514,-0.715,0.758,0.150
63.524,-0.717,0.752,0.154
63.534,-0.717,0.754,0.154
63.544,-0.715,0.752,0.150
63.553,-0.721,0.752,0.150
63.563,-0.715,0.754,0.152
63.573,-0.721,0.756,0.152
63.583,-0.713,0.754,0.150
63.593,-0.713,0.756,0.150
63.603,-0.713,0.756,0.150
63.613,-0.711,0.756,0.152
63.623,-0.709,0.758,0.148
63.633,-0.703,0.758,0.148
63.643,-0.705,0.758,0.150
63.653,-0.701,0.762,0.148
63.663,-0.699,0.762,0.154
63.673,-0.707,0.764,0.150
63.683,-0.703,0.760,0.148
63.692,-0.705,0.758,0.148
63.702,-0.709,0.760,0.150
63.712,-0.711,0.762,0.150
63.722,-0.713,0.758,0.150
63.732,-0.703,0.758,0.150
63.742,-0.711,0.762,0.154
63.752,-0.713,0.760,0.154
63.762,-0.709,0.760,0.150
63.772,-0.709,0.768,0.152
63.782,-0.709,0.764,0.150
63.792,-0.715,0.768,0.150
63.802,-0.713,0.766,0.154
63.812,-0.711,0.766,0.150
63.821,-0.705,0.758,0.150
63.831,-0.703,0.760,0.150
63.841,-0.701,0.762,0.145
63.851,-0.703,0.762,0.146
63.861,-0.707,0.762,0.148
63.871,-0.707,0.764,0.146
63.881,-0.711,0.770,0.146
63.891,-0.711,0.771,0.146
63.901,-0.715,0.770,0.146
63.911,-0.719,0.766,0.146
63.921,-0.721,0.764,0.145
63.931,-0.727,0.762,0.146
63.941,-0.727,0.768,0.148
63.950,-0.721,0.764,0.148
63.960,-0.717,0.762,0.146
63.970,-0.711,0.766,0.146
63.980,-0.713,0.766,0.148
63.990,-0.707,0.764,0.150
64.000,-0.709,0.762,0.148
64.010,-0.709,0.762,0.150
64.020,-0.705,0.764,0.148
64.030,-0.707,0.764,0.148
64.040,-0.701,0.758,0.145
64.050,-0.699,0.756,0.143
64.060,-0.697,0.756,0.141
64.070,-0.697,0.758,0.145
64.080,-0.697,0.764,0.139
64.089,-0.697,0.768,0.143
64.099,-0.697,0.770,0.146
64.109,-0.697,0.773,0.145
64.119,-0.697,0.773,0.145
64.129,-0.697,0.768,0.145
64.139,-0.693,0.766,0.146
64.149,-0.693,0.764,0.143
64.159,-0.695,0.760,0.148
64.169,-0.691,0.760,0.146
64.179,-0.689,0.762,0.145
64.189,-0.693,0.764,0.146
64.199,-0.693,0.760,0.145
64.209,-0.697,0.760,0.145
64.218,-0.695,0.764,0.148
64.228,-0.697,0.760,0.148
64.238,-0.699,0.762,0.148
64.248,-0.701,0.764,0.152
64.258,-0.699,0.766,0.148
64.268,-0.699,0.762,0.154
64.278,-0.697,0.766,0.150
64.288,-0.701,0.764,0.152
64.298,-0.703,0.758,0.154
64.308,-0.707,0.760,0.158
64.318,-0.709,0.764,0.156
64.328,-0.707,0.764,0.156
64.338,-0.709,0.762,0.152
64.348,-0.707,0.758,0.148
64.357,-0.709,0.758,0.146
64.367,-0.711,0.762,0.148
64.377,-0.707,0.766,0.145
64.387,-0.711,0.766,0.145
64.397,-0.709,0.771,0.143
64.407,-0.705,0.775,0.141
64.417,-0.697,0.783,0.137
64.427,-0.686,0.783,0.139
64.437,-0.684,0.779,0.133
64.447,-0.664,0.775,0.131
64.457,-0.656,0.777,0.127
64.467,-0.654,0.789,0.123
64.477,-0.650,0.791,0.127
64.486,-0.645,0.801,0.117
64.496,-0.643,0.797,0.117
64.506,-0.643,0.812,0.115
64.516,-0.643,0.814,0.119
64.526,-0.645,0.816,0.125
64.536,-0.646,0.826,0.121
64.546,-0.656,0.832,0.123
64.556,-0.658,0.832,0.125
64.566,-0.662,0.818,0.125
64.576,-0.664,0.814,0.125
64.586,-0.656,0.801,0.127
64.596,-0.652,0.787,0.123
64.606,-0.654,0.777,0.125
64.615,-0.654,0.768,0.127
64.625,-0.666,0.775,0.133
64.635,-0.670,0.803,0.139
64.645,-0.670,0.809,0.143
64.655,-0.664,0.805,0.137
64.665,-0.660,0.793,0.139
64.675,-0.662,0.781,0.133
64.685,-0.664,0.779,0.131
64.695,-0.668,0.781,0.131
64.705,-0.670,0.781,0.129
64.715,-0.678,0.777,0.133
64.725,-0.682,0.779,0.135
64.735,-0.688,0.779,0.133
64.745,-0.693,0.779,0.137
64.754,-0.695,0.783,0.139
64.764,-0.701,0.781,0.139
64.774,-0.703,0.781,0.139
64.784,-0.703,0.775,0.139
64.794,-0.703,0.768,0.137
64.804,-0.703,0.771,0.135
64.814,-0.701,0.770,0.137
64.824,-0.705,0.771,0.131
64.834,-0.705,0.768,0.129
64.844,-0.703,0.771,0.125
64.854,-0.709,0.777,0.129
64.864,-0.709,0.787,0.127
64.874,-0.709,0.791,0.133
64.883,-0.709,0.783,0.127
64.893,-0.701,0.785,0.131
64.903,-0.689,0.783,0.129
64.913,-0.688,0.779,0.131
64.923,-0.680,0.775,0.129
64.933,-0.676,0.773,0.133
64.943,-0.676,0.775,0.137
64.953,-0.680,0.773,0.139
64.963,-0.688,0.773,0.139
64.973,-0.689,0.766,0.143
64.983,-0.693,0.766,0.141
64.993,-0.693,0.764,0.141
65.003,-0.693,0.760,0.141
65.013,-0.695,0.756,0.141
65.022,-0.701,0.756,0.137
65.032,-0.705,0.762,0.139
65.042,-0.709,0.766,0.141
65.052,-0.713,0.771,0.135
65.062,-0.713,0.773,0.141
65.072,-0.715,0.773,0.137
65.082,-0.715,0.770,0.139
65.092,-0.715,0.768,0.137
65.102,-0.711,0.768,0.141
65.112,-0.709,0.762,0.141
65.122,-0.711,0.756,0.139
65.132,-0.709,0.760,0.143
65.142,-0.709,0.760,0.143
65.151,-0.713,0.758,0.145
65.161,-0.711,0.764,0.148
65.171,-0.711,0.768,0.148
65.181,-0.709,0.764,0.150
65.191,-0.707,0.762,0.148
65.201,-0.703,0.760,0.148
65.211,-0.693,0.758,0.145
65.221,-0.695,0.760,0.139
65.231,-0.695,0.758,0.139
65.241,-0.693,0.760,0.135
65.251,-0.693,0.760,0.137
65.261,-0.697,0.764,0.137
65.271,-0.693,0.770,0.139
65.281,-0.699,0.770,0.139
65.290,-0.703,0.768,0.139
65.300,-0.703,0.766,0.143
65.310,-0.707,0.768,0.146
65.320,-0.709,0.760,0.143
65.330,-0.709,0.758,0.143
65.340,-0.711,0.760,0.145
65.350,-0.715,0.760,0.143
65.360,-0.715,0.764,0.145
65.370,-0.715,0.768,0.145
65.380,-0.715,0.766,0.145
65.390,-0.713,0.766,0.141
65.400,-0.713,0.768,0.141
65.410,-0.713,0.768,0.143
65.419,-0.709,0.764,0.143
65.429,-0.703,0.762,0.139
65.439,-0.703,0.762,0.137
65.449,-0.699,0.762,0.137
65.459,-0.703,0.758,0.139
65.469,-0.705,0.756,0.139
65.479,-0.701,0.760,0.137
65.489,-0.705,0.760,0.137
65.499,-0.703,0.762,0.139
65.509,-0.701,0.766,0.141
65.519,-0.705,0.758,0.139
65.529,-0.707,0.760,0.139
65.539,-0.705,0.760,0.143
65.548,-0.707,0.758,0.141
65.558,-0.711,0.764,0.146
65.568,-0.711,0.762,0.145
65.578,-0.711,0.756,0.143
65.588,-0.713,0.756,0.145
65.598,-0.715,0.756,0.143
65.608,-0.719,0.758,0.143
65.618,-0.719,0.756,0.143
65.628,-0.721,0.758,0.141
65.638,-0.719,0.760,0.143
65.648,-0.719,0.758,0.145
65.658,-0.715,0.758,0.141
65.668,-0.717,0.756,0.145
65.678,-0.711,0.760,0.146
65.687,-0.709,0.756,0.141
65.697,-0.713,0.758,0.143
65.707,-0.711,0.754,0.143
65.717,-0.711,0.756,0.143
65.727,-0.703,0.764,0.143
65.737,-0.707,0.756,0.145
65.747,-0.709,0.760,0.143
65.757,-0.705,0.756,0.143
65.767,-0.709,0.756,0.145
65.777,-0.713,0.762,0.146
65.787,-0.715,0.762,0.143
65.797,-0.719,0.768,0.146
65.807,-0.717,0.768,0.146
65.816,-0.715,0.766,0.145
65.826,-0.713,0.760,0.146
65.836,-0.709,0.758,0.146
65.846,-0.711,0.752,0.148
65.856,-0.709,0.752,0.146
65.866,-0.709,0.754,0.146
65.876,-0.709,0.752,0.148
65.886,-0.713,0.756,0.150
65.896,-0.711,0.760,0.146
65.906,-0.713,0.758,0.148
65.916,-0.711,0.758,0.150
65.926,-0.709,0.756,0.148
65.936,-0.709,0.756,0.146
65.946,-0.711,0.756,0.146
65.955,-0.709,0.752,0.145
65.965,-0.705,0.754,0.145
65.975,-0.705,0.760,0.143
65.985,-0.711,0.760,0.141
65.995,-0.713,0.758,0.141
66.005,-0.715,0.762,0.141
66.015,-0.713,0.764,0.143
66.025,-0.711,0.766,0.141
66.035,-0.707,0.762,0.143
66.045,-0.705,0.756,0.143
66.055,-0.705,0.756,0.139
66.065,-0.707,0.750,0.141
66.075,-0.709,0.754,0.143
66.084,-0.713,0.758,0.141
66.094,-0.713,0.758,0.145
66.104,-0.709,0.752,0.141
66.114,-0.705,0.750,0.141
66.124,-0.701,0.744,0.145
66.134,-0.705,0.752,0.148
66.144,-0.719,0.760,0.152
66.154,-0.729,0.760,0.154
66.164,-0.732,0.764,0.156
66.174,-0.734,0.770,0.154
66.184,-0.725,0.764,0.152
66.194,-0.719,0.766,0.150
66.204,-0.713,0.758,0.148
66.213,-0.709,0.748,0.150
66.223,-0.709,0.744,0.150
66.233,-0.715,0.746,0.146
66.243,-0.719,0.744,0.148
66.253,-0.719,0.750,0.148
66.263,-0.719,0.752,0.145
66.273,-0.721,0.752,0.141
66.283,-0.717,0.748,0.141
66.293,-0.721,0.750,0.137
66.303,-0.721,0.750,0.135
66.313,-0.719,0.754,0.135
66.323,-0.719,0.752,0.131
66.333,-0.715,0.750,0.131
66.343,-0.719,0.752,0.129
66.352,-0.721,0.758,0.129
66.362,-0.721,0.756,0.125
66.372,-0.721,0.766,0.127
66.382,-0.723,0.766,0.123
66.392,-0.725,0.770,0.127
66.402,-0.723,0.768,0.125
66.412,-0.721,0.766,0.123
66.422,-0.717,0.760,0.127
66.432,-0.715,0.756,0.125
66.442,-0.713,0.758,0.127
66.452,-0.717,0.756,0.133
66.462,-0.719,0.754,0.133
66.472,-0.717,0.750,0.137
66.481,-0.721,0.752,0.135
66.491,-0.723,0.752,0.137
66.501,-0.721,0.754,0.139
66.511,-0.719,0.758,0.139
66.521,-0.719,0.756,0.135
66.531,-0.719,0.756,0.135
66.541,-0.719,0.754,0.137
66.551,-0.721,0.752,0.137
66.561,-0.719,0.758,0.133
66.571,-0.715,0.752,0.133
66.581,-0.715,0.750,0.137
66.591,-0.713,0.750,0.135
66.601,-0.719,0.748,0.133
66.611,-0.723,0.746,0.135
66.620,-0.727,0.762,0.137
66.630,-0.729,0.756,0.139
66.640,-0.727,0.752,0.141
66.650,-0.725,0.752,0.137
66.660,-0.723,0.750,0.135
66.670,-0.715,0.750,0.133
66.680,-0.717,0.748,0.131
66.690,-0.717,0.748,0.137
66.700,-0.715,0.750,0.135
66.710,-0.717,0.754,0.139
66.720,-0.715,0.754,0.137
66.730,-0.713,0.758,0.137
66.740,-0.717,0.754,0.141
66.749,-0.709,0.754,0.139
66.759,-0.713,0.754,0.139
66.769,-0.711,0.748,0.141
66.779,-0.713,0.750,0.139
66.789,-0.711,0.750,0.143
66.799,-0.713,0.756,0.141
66.809,-0.715,0.752,0.143
66.819,-0.713,0.754,0.141
66.829,-0.713,0.750,0.141
66.839,-0.721,0.752,0.143
66.849,-0.723,0.762,0.143
66.859,-0.721,0.758,0.146
66.869,-0.721,0.758,0.145
66.879,-0.715,0.758,0.141
66.888,-0.711,0.754,0.145
66.898,-0.707,0.750,0.141
66.908,-0.709,0.750,0.143
66.918,-0.707,0.752,0.143
66.928,-0.703,0.756,0.141
66.938,-0.709,0.754,0.145
66.948,-0.707,0.750,0.139
66.958,-0.703,0.754,0.141
66.968,-0.703,0.754,0.143
66.978,-0.705,0.754,0.143
66.988,-0.705,0.756,0.141
66.998,-0.705,0.760,0.141
67.008,-0.709,0.758,0.143
67.017,-0.713,0.758,0.143
67.027,-0.717,0.758,0.141
67.037,-0.717,0.756,0.145
67.047,-0.717,0.752,0.141
67.057,-0.717,0.752,0.143
67.067,-0.715,0.754,0.141
67.077,-0.717,0.752,0.143
67.087,-0.719,0.758,0.145
67.097,-0.715,0.758,0.145
67.107,-0.717,0.760,0.139
67.117,-0.711,0.758,0.139
67.127,-0.715,0.754,0.137
67.137,-0.717,0.752,0.137
67.146,-0.715,0.754,0.143
67.156,-0.721,0.750,0.139
67.166,-0.721,0.752,0.145
67.176,-0.717,0.750,0.141
67.186,-0.715,0.746,0.145
67.196,-0.717,0.752,0.145
67.206,-0.719,0.750,0.141
67.216,-0.723,0.748,0.143
67.226,-0.721,0.748,0.145
67.236,-0.725,0.752,0.146
67.246,-0.721,0.752,0.148
67.256,-0.723,0.752,0.148
67.266,-0.721,0.750,0.148
67.276,-0.721,0.748,0.150
67.285,-0.725,0.750,0.150
67.295,-0.723,0.746,0.148
67.305,-0.721,0.746,0.148
67.315,-0.721,0.746,0.150
67.325,-0.717,0.750,0.152
67.335,-0.715,0.752,0.150
67.345,-0.719,0.748,0.152
67.355,-0.721,0.748,0.146
67.365,-0.719,0.746,0.150
67.375,-0.723,0.748,0.148
67.385,-0.723,0.748,0.154
67.395,-0.729,0.748,0.154
67.405,-0.729,0.744,0.154
67.414,-0.730,0.748,0.152
67.424,-0.730,0.748,0.152
67.434,-0.730,0.742,0.154
67.444,-0.730,0.744,0.154
67.454,-0.729,0.742,0.156
67.464,-0.729,0.740,0.154
67.474,-0.727,0.744,0.154
67.484,-0.727,0.746,0.152
67.494,-0.723,0.746,0.150
67.504,-0.727,0.748,0.150
67.514,-0.725,0.750,0.150
67.524,-0.725,0.752,0.152
67.534,-0.721,0.748,0.152
67.544,-0.725,0.750,0.152
67.553,-0.723,0.748,0.148
67.563,-0.721,0.746,0.148
67.573,-0.725,0.748,0.148
67.583,-0.727,0.750,0.145
67.593,-0.732,0.748,0.148
67.603,-0.729,0.752,0.148
67.613,-0.730,0.754,0.146
67.623,-0.727,0.748,0.148
67.633,-0.721,0.746,0.150
67.643,-0.717,0.746,0.150
67.653,-0.717,0.744,0.152
67.663,-0.717,0.744,0.152
67.673,-0.719,0.742,0.150
67.682,-0.725,0.748,0.152
67.692,-0.725,0.748,0.154
67.702,-0.729,0.744,0.156
67.712,-0.725,0.742,0.154
67.722,-0.725,0.742,0.158
67.732,-0.725,0.746,0.156
67.742,-0.727,0.742,0.152
67.752,-0.725,0.744,0.150
67.762,-0.725,0.748,0.152
67.772,-0.727,0.748,0.154
67.782,-0.727,0.750,0.154
67.792,-0.727,0.744,0.154
67.802,-0.723,0.748,0.150
67.811,-0.721,0.748,0.156
67.821,-0.721,0.744,0.154
67.831,-0.721,0.742,0.150
67.841,-0.721,0.748,0.154
67.851,-0.717,0.746,0.154
67.861,-0.719,0.748,0.150
67.871,-0.719,0.748,0.152
67.881,-0.723,0.748,0.154
67.891,-0.721,0.738,0.150
67.901,-0.723,0.746,0.156
67.911,-0.727,0.746,0.152
67.921,-0.727,0.748,0.154
67.931,-0.725,0.750,0.158
67.941,-0.729,0.750,0.154
67.950,-0.730,0.748,0.154
67.960,-0.732,0.748,0.152
67.970,-0.730,0.750,0.152
67.980,-0.729,0.744,0.152
67.990,-0.725,0.740,0.154
68.000,-0.725,0.744,0.152
68.010,-0.721,0.742,0.148
68.020,-0.717,0.746,0.150
68.030,-0.719,0.748,0.150
68.040,-0.721,0.750,0.152
68.050,-0.723,0.750,0.154
68.060,-0.727,0.748,0.150
68.070,-0.723,0.746,0.152
68.079,-0.725,0.742,0.152
68.089,-0.727,0.746,0.154
68.099,-0.725,0.746,0.154
68.109,-0.725,0.746,0.156
68.119,-0.727,0.746,0.156
68.129,-0.727,0.746,0.156
68.139,-0.729,0.744,0.154
68.149,-0.730,0.750,0.158
68.159,-0.729,0.748,0.158
68.169,-0.725,0.750,0.154
68.179,-0.719,0.746,0.152
68.189,-0.721,0.738,0.154
68.199,-0.715,0.738,0.152
68.209,-0.721,0.742,0.158
68.218,-0.729,0.746,0.158
68.228,-0.727,0.748,0.160
68.238,-0.730,0.748,0.160
68.248,-0.729,0.748,0.156
68.258,-0.730,0.744,0.156
68.268,-0.734,0.744,0.154
68.278,-0.730,0.744,0.156
68.288,-0.730,0.742,0.152
68.298,-0.730,0.740,0.150
68.308,-0.727,0.746,0.154
68.318,-0.729,0.744,0.152
68.328,-0.727,0.744,0.152
68.338,-0.725,0.748,0.154
68.347,-0.725,0.744,0.154
68.357,-0.725,0.740,0.160
68.367,-0.729,0.744,0.156
68.377,-0.727,0.738,0.160
68.387,-0.721,0.744,0.158
68.397,-0.721,0.744,0.156
68.407,-0.727,0.744,0.158
68.417,-0.725,0.746,0.154
68.427,-0.727,0.746,0.156
68.437,-0.727,0.744,0.154
68.447,-0.729,0.742,0.152
68.457,-0.732,0.746,0.154
68.467,-0.730,0.746,0.150
68.476,-0.730,0.746,0.152
68.486,-0.729,0.744,0.150
68.496,-0.730,0.744,0.152
68.506,-0.727,0.746,0.154
68.516,-0.729,0.750,0.152
68.526,-0.729,0.748,0.152
68.536,-0.727,0.746,0.152
68.546,-0.723,0.742,0.154
68.556,-0.723,0.744,0.156
68.566,-0.723,0.742,0.150
68.576,-0.723,0.740,0.156
68.586,-0.721,0.740,0.156
68.596,-0.725,0.742,0.156
68.606,-0.727,0.744,0.154
68.615,-0.727,0.744,0.154
68.625,-0.732,0.746,0.152
68.635,-0.734,0.744,0.152
68.645,-0.734,0.746,0.154
68.655,-0.732,0.744,0.152
68.665,-0.730,0.744,0.152
68.675,-0.730,0.742,0.152
68.685,-0.729,0.740,0.154
68.695,-0.729,0.742,0.154
68.705,-0.730,0.744,0.152
68.715,-0.730,0.744,0.156
68.725,-0.727,0.744,0.156
68.735,-0.725,0.742,0.156
68.744,-0.725,0.738,0.154
68.754,-0.727,0.736,0.156
68.764,-0.725,0.736,0.154
68.774,-0.727,0.742,0.154
68.784,-0.725,0.744,0.158
68.794,-0.730,0.742,0.154
68.804,-0.730,0.746,0.154
68.814,-0.730,0.742,0.150
68.824,-0.729,0.742,0.154
68.834,-0.729,0.740,0.152
68.844,-0.732,0.742,0.152
68.854,-0.732,0.742,0.152
68.864,-0.734,0.744,0.148
68.874,-0.734,0.748,0.148
68.883,-0.730,0.742,0.150
68.893,-0.730,0.748,0.150
68.903,-0.730,0.744,0.148
68.913,-0.730,0.744,0.150
68.923,-0.725,0.744,0.148
68.933,-0.730,0.742,0.150
68.943,-0.729,0.742,0.158
68.953,-0.727,0.744,0.154
68.963,-0.725,0.742,0.154
68.973,-0.727,0.742,0.154
68.983,-0.721,0.740,0.154
68.993,-0.725,0.744,0.154
69.003,-0.725,0.742,0.154
69.012,-0.725,0.744,0.154
69.022,-0.723,0.742,0.152
69.032,-0.725,0.746,0.154
69.042,-0.727,0.746,0.152
69.052,-0.727,0.744,0.154
69.062,-0.727,0.748,0.152
69.072,-0.727,0.746,0.150
69.082,-0.729,0.748,0.150
69.092,-0.727,0.744,0.150
69.102,-0.727,0.746,0.152
69.112,-0.723,0.746,0.150
69.122,-0.721,0.740,0.152
69.132,-0.725,0.746,0.148
69.141,-0.723,0.744,0.152
69.151,-0.721,0.742,0.156
69.161,-0.725,0.744,0.158
69.171,-0.727,0.742,0.156
69.181,-0.729,0.742,0.158
69.191,-0.727,0.740,0.154
69.201,-0.727,0.742,0.158
69.211,-0.729,0.740,0.156
69.221,-0.727,0.740,0.154
69.231,-0.729,0.746,0.152
69.241,-0.730,0.750,0.154
69.251,-0.730,0.746,0.154
69.261,-0.732,0.750,0.158
69.271,-0.730,0.744,0.156
69.280,-0.727,0.744,0.158
69.290,-0.725,0.744,0.156
69.300,-0.717,0.738,0.156
69.310,-0.717,0.736,0.156
69.320,-0.721,0.734,0.158
69.330,-0.721,0.738,0.156
69.340,-0.725,0.746,0.158
69.350,-0.730,0.746,0.162
69.360,-0.729,0.744,0.158
69.370,-0.730,0.742,0.158
69.380,-0.734,0.740,0.154
69.390,-0.730,0.736,0.158
69.400,-0.734,0.738,0.156
69.409,-0.734,0.742,0.154
69.419,-0.734,0.742,0.152
69.429,-0.738,0.742,0.156
69.439,-0.738,0.746,0.154
69.449,-0.734,0.744,0.156
69.459,-0.732,0.740,0.158
69.469,-0.727,0.738,0.158
69.479,-0.725,0.736,0.156
69.489,-0.725,0.736,0.158
69.499,-0.719,0.734,0.162
69.509,-0.719,0.744,0.160
69.519,-0.723,0.740,0.164
69.529,-0.729,0.746,0.160
69.539,-0.723,0.744,0.162
69.548,-0.730,0.740,0.158
69.558,-0.734,0.744,0.156
69.568,-0.732,0.742,0.154
69.578,-0.730,0.742,0.158
69.588,-0.729,0.742,0.154
69.598,-0.734,0.740,0.158
69.608,-0.732,0.740,0.154
69.618,-0.734,0.738,0.154
69.628,-0.736,0.744,0.156
69.638,-0.736,0.742,0.154
69.648,-0.734,0.740,0.156
69.658,-0.732,0.740,0.156
69.668,-0.732,0.738,0.154
69.677,-0.729,0.738,0.154
69.687,-0.729,0.740,0.156
69.697,-0.729,0.744,0.160
69.707,-0.725,0.742,0.156
69.717,-0.725,0.738,0.154
69.727,-0.725,0.740,0.154
69.737,-0.729,0.738,0.156
69.747,-0.732,0.738,0.158
69.757,-0.732,0.738,0.160
69.767,-0.734,0.740,0.162
69.777,-0.734,0.738,0.158
69.787,-0.736,0.738,0.152
69.797,-0.736,0.736,0.156
69.807,-0.740,0.734,0.160
69.816,-0.742,0.734,0.160
69.826,-0.740,0.740,0.158
69.836,-0.740,0.740,0.162
69.846,-0.732,0.742,0.162
69.856,-0.732,0.740,0.162
69.866,-0.730,0.734,0.160
69.876,-0.730,0.734,0.162
69.886,-0.730,0.730,0.162
69.896,-0.732,0.734,0.160
69.906,-0.732,0.738,0.162
69.916,-0.734,0.740,0.158
69.926,-0.734,0.738,0.156
69.936,-0.732,0.742,0.156
69.945,-0.732,0.740,0.150
69.955,-0.734,0.742,0.154
69.965,-0.734,0.738,0.154
69.975,-0.736,0.736,0.154
69.985,-0.738,0.738,0.154
69.995,-0.732,0.742,0.158
70.005,-0.732,0.738,0.154
70.015,-0.732,0.742,0.160
70.025,-0.730,0.736,0.160
70.035,-0.732,0.734,0.160
70.045,-0.732,0.738,0.162
70.055,-0.730,0.732,0.162
70.065,-0.729,0.738,0.164
70.074,-0.730,0.736,0.162
70.084,-0.734,0.736,0.162
70.094,-0.736,0.740,0.164
70.104,-0.736,0.734,0.158
70.114,-0.736,0.734,0.164
70.124,-0.740,0.736,0.162
70.134,-0.734,0.738,0.162
70.144,-0.734,0.736,0.164
70.154,-0.738,0.738,0.160
70.164,-0.734,0.740,0.162
70.174,-0.734,0.734,0.162
70.184,-0.732,0.732,0.160
70.194,-0.734,0.738,0.160
70.204,-0.732,0.738,0.160
70.213,-0.730,0.740,0.160
70.223,-0.730,0.740,0.160
70.233,-0.734,0.738,0.158
70.243,-0.732,0.738,0.160
70.253,-0.730,0.734,0.158
70.263,-0.730,0.734,0.160
70.273,-0.730,0.734,0.160
70.283,-0.730,0.736,0.160
70.293,-0.732,0.738,0.160
70.303,-0.734,0.740,0.158
70.313,-0.740,0.740,0.160
70.323,-0.738,0.740,0.160
70.333,-0.738,0.738,0.162
70.342,-0.730,0.736,0.158
70.352,-0.732,0.736,0.156
70.362,-0.730,0.738,0.160
70.372,-0.732,0.740,0.162
70.382,-0.732,0.740,0.160
70.392,-0.736,0.744,0.160
70.402,-0.736,0.740,0.160
70.412,-0.732,0.738,0.160
70.422,-0.729,0.738,0.162
70.432,-0.730,0.734,0.162
70.442,-0.729,0.730,0.162
70.452,-0.730,0.732,0.158
70.462,-0.729,0.734,0.160
70.472,-0.732,0.736,0.162
70.481,-0.732,0.740,0.162
70.491,-0.729,0.742,0.158
70.501,-0.730,0.738,0.158
70.511,-0.732,0.738,0.162
70.521,-0.732,0.738,0.158
70.531,-0.734,0.736,0.154
70.541,-0.738,0.738,0.160
70.551,-0.738,0.738,0.160
70.561,-0.732,0.740,0.162
70.571,-0.732,0.738,0.160
70.581,-0.732,0.738,0.160
70.591,-0.734,0.736,0.160
70.601,-0.734,0.736,0.162
70.610,-0.732,0.734,0.160
70.620,-0.732,0.734,0.164
70.630,-0.732,0.734,0.166
70.640,-0.729,0.736,0.166
70.650,-0.730,0.740,0.162
