df_hash,22ZHK4.E6KA8L
device,HZ2X61
project_hash,29R7
project_name,istanbul_aydin_university
person_hash,29R7.3R25
person_label,v133
date_time_start,2026-04-07_18-35-30.996000_+03
date_time_start_unix,1775568930.996
date_time_end,2026-04-07_18-43-48.313000_+03
length_difference_noticed,no

time,acc_x,acc_y,acc_z
4.362,-0.785,0.574,0.045
4.372,-0.787,0.578,0.045
4.382,-0.789,0.576,0.045
4.392,-0.787,0.580,0.045
4.402,-0.789,0.578,0.045
4.412,-0.791,0.576,0.047
4.422,-0.789,0.580,0.047
4.432,-0.791,0.578,0.049
4.442,-0.789,0.582,0.047
4.452,-0.787,0.582,0.051
4.461,-0.789,0.582,0.049
4.471,-0.793,0.580,0.047
4.481,-0.795,0.576,0.047
4.491,-0.789,0.576,0.045
4.501,-0.791,0.574,0.047
4.511,-0.787,0.580,0.047
4.521,-0.791,0.574,0.049
4.531,-0.787,0.576,0.051
4.541,-0.785,0.582,0.053
4.551,-0.785,0.582,0.049
4.561,-0.787,0.576,0.053
4.571,-0.785,0.576,0.047
4.581,-0.789,0.574,0.049
4.590,-0.787,0.570,0.045
4.600,-0.791,0.572,0.043
4.610,-0.793,0.574,0.043
4.620,-0.795,0.572,0.041
4.630,-0.793,0.574,0.043
4.640,-0.795,0.574,0.043
4.650,-0.795,0.574,0.043
4.660,-0.793,0.572,0.041
4.670,-0.793,0.574,0.043
4.680,-0.793,0.572,0.041
4.690,-0.791,0.574,0.043
4.700,-0.789,0.570,0.045
4.710,-0.791,0.574,0.045
4.719,-0.793,0.578,0.047
4.729,-0.795,0.574,0.043
4.739,-0.789,0.574,0.043
4.749,-0.791,0.572,0.047
4.759,-0.791,0.572,0.041
4.769,-0.787,0.566,0.031
4.779,-0.789,0.570,0.039
4.789,-0.797,0.584,0.043
4.799,-0.801,0.582,0.051
4.809,-0.807,0.576,0.047
4.819,-0.803,0.570,0.045
4.829,-0.805,0.562,0.041
4.839,-0.801,0.555,0.037
4.849,-0.799,0.555,0.035
4.858,-0.799,0.559,0.033
4.868,-0.799,0.562,0.035
4.878,-0.801,0.561,0.031
4.888,-0.799,0.574,0.035
4.898,-0.797,0.584,0.037
4.908,-0.801,0.590,0.041
4.918,-0.797,0.588,0.043
4.928,-0.795,0.588,0.041
4.938,-0.791,0.580,0.039
4.948,-0.793,0.572,0.037
4.958,-0.789,0.570,0.035
4.968,-0.787,0.568,0.031
4.978,-0.793,0.574,0.033
4.987,-0.791,0.570,0.035
4.997,-0.791,0.576,0.031
5.007,-0.789,0.576,0.033
5.017,-0.793,0.578,0.031
5.027,-0.789,0.574,0.033
5.037,-0.785,0.576,0.031
5.047,-0.783,0.580,0.035
5.057,-0.779,0.584,0.035
5.067,-0.777,0.584,0.035
5.077,-0.781,0.578,0.033
5.087,-0.783,0.572,0.031
5.097,-0.779,0.576,0.031
5.107,-0.789,0.578,0.035
5.117,-0.787,0.584,0.031
5.126,-0.785,0.584,0.031
5.136,-0.789,0.590,0.029
5.146,-0.787,0.586,0.031
5.156,-0.785,0.586,0.033
5.166,-0.787,0.582,0.033
5.176,-0.789,0.582,0.029
5.186,-0.787,0.580,0.035
5.196,-0.785,0.582,0.029
5.206,-0.779,0.578,0.033
5.216,-0.781,0.578,0.035
5.226,-0.783,0.578,0.033
5.236,-0.787,0.576,0.035
5.246,-0.785,0.578,0.037
5.255,-0.785,0.578,0.033
5.265,-0.785,0.580,0.035
5.275,-0.785,0.580,0.033
5.285,-0.785,0.576,0.031
5.295,-0.789,0.576,0.031
5.305,-0.787,0.578,0.035
5.315,-0.789,0.576,0.031
5.325,-0.789,0.578,0.035
5.335,-0.787,0.576,0.031
5.345,-0.789,0.578,0.035
5.355,-0.791,0.582,0.033
5.365,-0.791,0.580,0.031
5.375,-0.791,0.580,0.035
5.385,-0.791,0.574,0.035
5.394,-0.791,0.578,0.029
5.404,-0.791,0.578,0.033
5.414,-0.789,0.582,0.033
5.424,-0.789,0.584,0.035
5.434,-0.787,0.580,0.031
5.444,-0.783,0.578,0.033
5.454,-0.787,0.580,0.033
5.464,-0.785,0.580,0.033
5.474,-0.789,0.580,0.033
5.484,-0.791,0.578,0.033
5.494,-0.787,0.580,0.037
5.504,-0.785,0.580,0.039
5.514,-0.787,0.580,0.033
5.523,-0.789,0.578,0.037
5.533,-0.791,0.578,0.039
5.543,-0.787,0.576,0.033
5.553,-0.787,0.578,0.035
5.563,-0.789,0.576,0.035
5.573,-0.791,0.576,0.035
5.583,-0.789,0.576,0.037
5.593,-0.787,0.578,0.037
5.603,-0.787,0.578,0.039
5.613,-0.783,0.584,0.037
5.623,-0.779,0.578,0.037
5.633,-0.783,0.578,0.035
5.643,-0.789,0.582,0.035
5.653,-0.791,0.584,0.037
5.662,-0.791,0.586,0.035
5.672,-0.787,0.586,0.035
5.682,-0.785,0.582,0.033
5.692,-0.785,0.580,0.037
5.702,-0.785,0.578,0.037
5.712,-0.789,0.582,0.037
5.722,-0.783,0.580,0.039
5.732,-0.783,0.580,0.035
5.742,-0.783,0.580,0.039
5.752,-0.783,0.576,0.039
5.762,-0.785,0.578,0.039
5.772,-0.783,0.578,0.035
5.782,-0.787,0.580,0.037
5.791,-0.785,0.584,0.037
5.801,-0.789,0.582,0.037
5.811,-0.787,0.584,0.031
5.821,-0.787,0.586,0.033
5.831,-0.787,0.588,0.033
5.841,-0.789,0.590,0.037
5.851,-0.787,0.580,0.037
5.861,-0.789,0.584,0.033
5.871,-0.785,0.582,0.035
5.881,-0.787,0.584,0.033
5.891,-0.783,0.588,0.035
5.901,-0.781,0.588,0.039
5.911,-0.781,0.588,0.035
5.921,-0.771,0.594,0.035
5.930,-0.775,0.592,0.035
5.940,-0.783,0.584,0.035
5.950,-0.779,0.584,0.031
5.960,-0.775,0.588,0.033
5.970,-0.781,0.592,0.035
5.980,-0.785,0.600,0.033
5.990,-0.789,0.592,0.033
6.000,-0.783,0.590,0.035
6.010,-0.791,0.584,0.035
6.020,-0.787,0.586,0.037
6.030,-0.785,0.580,0.041
6.040,-0.787,0.576,0.039
6.050,-0.785,0.576,0.039
6.059,-0.781,0.578,0.037
6.069,-0.779,0.578,0.035
6.079,-0.783,0.584,0.037
6.089,-0.781,0.582,0.037
6.099,-0.777,0.588,0.037
6.109,-0.783,0.594,0.037
6.119,-0.777,0.586,0.039
6.129,-0.771,0.578,0.037
6.139,-0.777,0.588,0.045
6.149,-0.781,0.588,0.039
6.159,-0.787,0.582,0.031
6.169,-0.781,0.580,0.041
6.179,-0.777,0.584,0.033
6.188,-0.787,0.582,0.031
6.198,-0.775,0.588,0.037
6.208,-0.781,0.578,0.041
6.218,-0.787,0.578,0.039
6.228,-0.781,0.584,0.037
6.238,-0.785,0.578,0.033
6.248,-0.795,0.580,0.033
6.258,-0.791,0.586,0.035
6.268,-0.785,0.580,0.035
6.278,-0.793,0.582,0.033
6.288,-0.791,0.588,0.033
6.298,-0.793,0.586,0.033
6.308,-0.791,0.578,0.039
6.318,-0.789,0.580,0.033
6.327,-0.785,0.584,0.035
6.337,-0.787,0.576,0.035
6.347,-0.787,0.574,0.035
6.357,-0.791,0.578,0.041
6.367,-0.787,0.578,0.039
6.377,-0.785,0.584,0.035
6.387,-0.789,0.584,0.037
6.397,-0.789,0.578,0.039
6.407,-0.789,0.580,0.035
6.417,-0.783,0.582,0.039
6.427,-0.785,0.586,0.039
6.437,-0.787,0.584,0.037
6.447,-0.785,0.582,0.041
6.456,-0.783,0.582,0.041
6.466,-0.783,0.578,0.039
6.476,-0.781,0.576,0.043
6.486,-0.783,0.580,0.039
6.496,-0.783,0.572,0.039
6.506,-0.785,0.580,0.037
6.516,-0.789,0.586,0.041
6.526,-0.791,0.582,0.045
6.536,-0.791,0.586,0.043
6.546,-0.789,0.584,0.041
6.556,-0.785,0.580,0.045
6.566,-0.789,0.574,0.045
6.576,-0.791,0.576,0.045
6.586,-0.785,0.574,0.041
6.595,-0.787,0.578,0.045
6.605,-0.785,0.576,0.047
6.615,-0.787,0.572,0.045
6.625,-0.785,0.576,0.045
6.635,-0.789,0.580,0.043
6.645,-0.793,0.576,0.045
6.655,-0.793,0.578,0.043
6.665,-0.791,0.580,0.043
6.675,-0.791,0.576,0.043
6.685,-0.789,0.578,0.043
6.695,-0.791,0.584,0.043
6.705,-0.791,0.582,0.041
6.715,-0.785,0.578,0.041
6.724,-0.783,0.580,0.041
6.734,-0.787,0.578,0.043
6.744,-0.789,0.576,0.039
6.754,-0.787,0.580,0.043
6.764,-0.779,0.578,0.043
6.774,-0.779,0.582,0.043
6.784,-0.781,0.592,0.043
6.794,-0.779,0.586,0.043
6.804,-0.777,0.582,0.043
6.814,-0.781,0.580,0.041
6.824,-0.783,0.584,0.043
6.834,-0.783,0.580,0.047
6.844,-0.785,0.586,0.043
6.854,-0.791,0.590,0.045
6.863,-0.789,0.592,0.043
6.873,-0.789,0.588,0.047
6.883,-0.791,0.588,0.045
6.893,-0.789,0.582,0.045
6.903,-0.785,0.584,0.043
6.913,-0.785,0.584,0.051
6.923,-0.785,0.582,0.053
6.933,-0.779,0.582,0.049
6.943,-0.777,0.586,0.051
6.953,-0.777,0.586,0.051
6.963,-0.779,0.586,0.053
6.973,-0.781,0.582,0.053
6.983,-0.777,0.590,0.049
6.992,-0.779,0.584,0.049
7.002,-0.779,0.590,0.051
7.012,-0.779,0.588,0.047
7.022,-0.781,0.588,0.051
7.032,-0.783,0.590,0.051
7.042,-0.783,0.592,0.045
7.052,-0.783,0.592,0.047
7.062,-0.779,0.588,0.049
7.072,-0.781,0.588,0.049
7.082,-0.777,0.588,0.051
7.092,-0.779,0.588,0.049
7.102,-0.781,0.590,0.051
7.112,-0.781,0.592,0.053
7.122,-0.781,0.590,0.053
7.131,-0.775,0.592,0.051
7.141,-0.775,0.588,0.053
7.151,-0.775,0.590,0.051
7.161,-0.775,0.592,0.051
7.171,-0.779,0.592,0.053
7.181,-0.779,0.588,0.047
7.191,-0.779,0.590,0.055
7.201,-0.775,0.586,0.053
7.211,-0.777,0.586,0.051
7.221,-0.781,0.592,0.053
7.231,-0.781,0.592,0.057
7.241,-0.775,0.588,0.053
7.251,-0.781,0.590,0.051
7.260,-0.781,0.590,0.053
7.270,-0.779,0.594,0.055
7.280,-0.779,0.586,0.053
7.290,-0.777,0.586,0.055
7.300,-0.779,0.586,0.053
7.310,-0.775,0.590,0.055
7.320,-0.779,0.594,0.057
7.330,-0.779,0.594,0.059
7.340,-0.777,0.592,0.059
7.350,-0.773,0.588,0.055
7.360,-0.771,0.592,0.059
7.370,-0.773,0.592,0.055
7.380,-0.775,0.586,0.053
7.389,-0.779,0.586,0.053
7.399,-0.789,0.596,0.055
7.409,-0.787,0.594,0.059
7.419,-0.787,0.592,0.059
7.429,-0.785,0.594,0.055
7.439,-0.781,0.588,0.059
7.449,-0.783,0.586,0.055
7.459,-0.779,0.588,0.061
7.469,-0.779,0.588,0.057
7.479,-0.779,0.590,0.059
7.489,-0.777,0.586,0.057
7.499,-0.775,0.588,0.057
7.509,-0.777,0.588,0.057
7.519,-0.775,0.590,0.061
7.528,-0.777,0.588,0.057
7.538,-0.775,0.590,0.059
7.548,-0.777,0.592,0.059
7.558,-0.775,0.592,0.061
7.568,-0.775,0.596,0.055
7.578,-0.773,0.596,0.061
7.588,-0.773,0.592,0.061
7.598,-0.773,0.594,0.057
7.608,-0.773,0.586,0.055
7.618,-0.771,0.590,0.057
7.628,-0.773,0.590,0.057
7.638,-0.773,0.592,0.059
7.648,-0.771,0.590,0.059
7.657,-0.775,0.600,0.059
7.667,-0.773,0.596,0.061
7.677,-0.768,0.586,0.053
7.687,-0.775,0.588,0.053
7.697,-0.779,0.586,0.055
7.707,-0.779,0.596,0.057
7.717,-0.779,0.602,0.059
7.727,-0.779,0.600,0.055
7.737,-0.775,0.602,0.057
7.747,-0.779,0.598,0.057
7.757,-0.777,0.594,0.057
7.767,-0.777,0.592,0.057
7.777,-0.779,0.588,0.062
7.787,-0.777,0.588,0.059
7.796,-0.775,0.586,0.059
7.806,-0.773,0.588,0.061
7.816,-0.775,0.592,0.062
7.826,-0.777,0.588,0.062
7.836,-0.775,0.588,0.057
7.846,-0.773,0.590,0.059
7.856,-0.779,0.590,0.055
7.866,-0.779,0.592,0.061
7.876,-0.783,0.596,0.057
7.886,-0.777,0.594,0.062
7.896,-0.775,0.594,0.059
7.906,-0.775,0.590,0.059
7.916,-0.779,0.592,0.061
7.925,-0.777,0.592,0.059
7.935,-0.773,0.592,0.057
7.945,-0.773,0.594,0.055
7.955,-0.771,0.596,0.057
7.965,-0.770,0.594,0.059
7.975,-0.773,0.594,0.055
7.985,-0.775,0.594,0.059
7.995,-0.775,0.592,0.057
8.005,-0.775,0.596,0.057
8.015,-0.779,0.598,0.061
8.025,-0.773,0.598,0.059
8.035,-0.777,0.598,0.057
8.045,-0.777,0.598,0.059
8.055,-0.775,0.596,0.061
8.064,-0.777,0.594,0.061
8.074,-0.777,0.592,0.062
8.084,-0.779,0.590,0.061
8.094,-0.777,0.592,0.061
8.104,-0.771,0.588,0.061
8.114,-0.771,0.592,0.062
8.124,-0.771,0.594,0.062
8.134,-0.771,0.594,0.061
8.144,-0.773,0.592,0.059
8.154,-0.779,0.594,0.059
8.164,-0.777,0.596,0.064
8.174,-0.777,0.594,0.062
8.184,-0.777,0.594,0.061
8.193,-0.777,0.590,0.061
8.203,-0.779,0.592,0.062
8.213,-0.783,0.592,0.061
8.223,-0.777,0.590,0.059
8.233,-0.770,0.590,0.059
8.243,-0.775,0.592,0.061
8.253,-0.779,0.596,0.062
8.263,-0.777,0.594,0.062
8.273,-0.777,0.590,0.062
8.283,-0.773,0.590,0.062
8.293,-0.775,0.594,0.064
8.303,-0.777,0.594,0.062
8.313,-0.770,0.590,0.057
8.323,-0.771,0.588,0.059
8.332,-0.777,0.596,0.057
8.342,-0.783,0.600,0.062
8.352,-0.787,0.602,0.062
8.362,-0.779,0.596,0.064
8.372,-0.779,0.592,0.064
8.382,-0.779,0.586,0.057
8.392,-0.777,0.588,0.059
8.402,-0.777,0.590,0.062
8.412,-0.773,0.586,0.061
8.422,-0.777,0.586,0.062
8.432,-0.775,0.586,0.064
8.442,-0.777,0.590,0.062
8.452,-0.777,0.584,0.062
8.461,-0.777,0.586,0.064
8.471,-0.779,0.592,0.061
8.481,-0.781,0.590,0.057
8.491,-0.779,0.592,0.062
8.501,-0.781,0.592,0.062
8.511,-0.787,0.590,0.061
8.521,-0.781,0.588,0.061
8.531,-0.783,0.590,0.059
8.541,-0.777,0.592,0.059
8.551,-0.779,0.592,0.061
8.561,-0.775,0.588,0.061
8.571,-0.773,0.592,0.061
8.581,-0.773,0.586,0.064
8.590,-0.773,0.590,0.062
8.600,-0.773,0.596,0.062
8.610,-0.770,0.594,0.061
8.620,-0.770,0.588,0.059
8.630,-0.773,0.588,0.055
8.640,-0.779,0.590,0.059
8.650,-0.781,0.596,0.057
8.660,-0.781,0.598,0.059
8.670,-0.783,0.596,0.061
8.680,-0.787,0.596,0.055
8.690,-0.783,0.596,0.061
8.700,-0.781,0.594,0.059
8.710,-0.779,0.588,0.061
8.720,-0.779,0.588,0.061
8.729,-0.777,0.586,0.064
8.739,-0.779,0.584,0.062
8.749,-0.777,0.586,0.061
8.759,-0.777,0.586,0.064
8.769,-0.777,0.584,0.062
8.779,-0.777,0.584,0.064
8.789,-0.781,0.586,0.064
8.799,-0.781,0.588,0.062
8.809,-0.787,0.588,0.062
8.819,-0.787,0.586,0.064
8.829,-0.785,0.584,0.062
8.839,-0.789,0.584,0.062
8.849,-0.785,0.582,0.062
8.858,-0.781,0.584,0.066
8.868,-0.785,0.580,0.066
8.878,-0.781,0.584,0.064
8.888,-0.777,0.578,0.064
8.898,-0.777,0.586,0.062
8.908,-0.779,0.582,0.064
8.918,-0.781,0.586,0.062
8.928,-0.781,0.588,0.064
8.938,-0.779,0.584,0.064
8.948,-0.781,0.584,0.059
8.958,-0.783,0.588,0.066
8.968,-0.781,0.590,0.062
8.978,-0.781,0.588,0.064
8.988,-0.781,0.586,0.061
8.997,-0.783,0.582,0.062
9.007,-0.783,0.582,0.064
9.017,-0.787,0.582,0.062
9.027,-0.787,0.582,0.064
9.037,-0.791,0.582,0.066
9.047,-0.793,0.580,0.061
9.057,-0.787,0.578,0.066
9.067,-0.787,0.582,0.064
9.077,-0.793,0.582,0.066
9.087,-0.787,0.582,0.061
9.097,-0.785,0.580,0.062
9.107,-0.785,0.580,0.062
9.117,-0.785,0.586,0.061
9.126,-0.787,0.588,0.061
9.136,-0.787,0.584,0.061
9.146,-0.785,0.580,0.064
9.156,-0.781,0.582,0.061
9.166,-0.777,0.586,0.062
9.176,-0.779,0.580,0.064
9.186,-0.781,0.580,0.062
9.196,-0.783,0.582,0.061
9.206,-0.793,0.582,0.061
9.216,-0.793,0.584,0.064
9.226,-0.789,0.586,0.064
9.236,-0.789,0.586,0.062
9.246,-0.789,0.586,0.064
9.256,-0.787,0.582,0.062
9.265,-0.789,0.582,0.064
9.275,-0.787,0.580,0.064
9.285,-0.785,0.578,0.064
9.295,-0.783,0.580,0.066
9.305,-0.785,0.576,0.062
9.315,-0.787,0.576,0.066
9.325,-0.785,0.576,0.066
9.335,-0.791,0.578,0.064
9.345,-0.791,0.576,0.066
9.355,-0.787,0.582,0.066
9.365,-0.789,0.582,0.061
9.375,-0.791,0.582,0.066
9.385,-0.789,0.582,0.066
9.394,-0.785,0.582,0.066
9.404,-0.785,0.580,0.061
9.414,-0.787,0.584,0.059
9.424,-0.785,0.582,0.064
9.434,-0.785,0.584,0.062
9.444,-0.781,0.580,0.064
9.454,-0.781,0.586,0.062
9.464,-0.777,0.588,0.062
9.474,-0.775,0.590,0.064
9.484,-0.775,0.582,0.061
9.494,-0.771,0.578,0.066
9.504,-0.777,0.580,0.061
9.514,-0.775,0.586,0.062
9.524,-0.781,0.588,0.061
9.533,-0.789,0.588,0.064
9.543,-0.791,0.588,0.061
9.553,-0.791,0.588,0.059
9.563,-0.793,0.588,0.062
9.573,-0.791,0.586,0.064
9.583,-0.787,0.580,0.064
9.593,-0.791,0.580,0.066
9.603,-0.787,0.578,0.062
9.613,-0.787,0.576,0.064
9.623,-0.785,0.576,0.062
9.633,-0.783,0.578,0.064
9.643,-0.783,0.580,0.068
9.653,-0.785,0.578,0.068
9.662,-0.789,0.580,0.068
9.672,-0.789,0.582,0.066
9.682,-0.787,0.578,0.064
9.692,-0.787,0.578,0.064
9.702,-0.787,0.576,0.066
9.712,-0.795,0.580,0.064
9.722,-0.791,0.576,0.062
9.732,-0.789,0.578,0.068
9.742,-0.797,0.578,0.062
9.752,-0.791,0.578,0.068
9.762,-0.793,0.578,0.062
9.772,-0.789,0.580,0.059
9.782,-0.785,0.578,0.064
9.791,-0.787,0.580,0.066
9.801,-0.787,0.580,0.062
9.811,-0.787,0.580,0.068
9.821,-0.787,0.582,0.066
9.831,-0.791,0.578,0.061
9.841,-0.787,0.582,0.064
9.851,-0.789,0.580,0.061
9.861,-0.787,0.582,0.061
9.871,-0.789,0.588,0.062
9.881,-0.787,0.584,0.062
9.891,-0.791,0.584,0.061
9.901,-0.787,0.584,0.059
9.911,-0.787,0.582,0.062
9.921,-0.783,0.584,0.061
9.930,-0.785,0.586,0.061
9.940,-0.787,0.588,0.062
9.950,-0.783,0.580,0.062
9.960,-0.781,0.582,0.066
9.970,-0.781,0.582,0.062
9.980,-0.783,0.582,0.064
9.990,-0.779,0.582,0.062
10.000,-0.781,0.584,0.062
10.010,-0.779,0.582,0.061
10.020,-0.777,0.590,0.062
10.030,-0.777,0.592,0.064
10.040,-0.781,0.590,0.066
10.050,-0.783,0.588,0.066
10.059,-0.781,0.586,0.066
10.069,-0.779,0.586,0.066
10.079,-0.783,0.586,0.064
10.089,-0.781,0.580,0.062
10.099,-0.781,0.578,0.061
10.109,-0.785,0.582,0.062
10.119,-0.789,0.590,0.064
10.129,-0.787,0.590,0.066
10.139,-0.787,0.588,0.062
10.149,-0.783,0.590,0.062
10.159,-0.779,0.584,0.066
10.169,-0.779,0.588,0.068
10.179,-0.781,0.586,0.068
10.189,-0.783,0.580,0.062
10.198,-0.785,0.578,0.064
10.208,-0.785,0.580,0.066
10.218,-0.785,0.582,0.064
10.228,-0.789,0.580,0.062
10.238,-0.787,0.582,0.064
10.248,-0.795,0.582,0.062
10.258,-0.791,0.580,0.062
10.268,-0.787,0.580,0.062
10.278,-0.793,0.586,0.064
10.288,-0.787,0.586,0.061
10.298,-0.781,0.586,0.061
10.308,-0.779,0.588,0.062
10.318,-0.779,0.586,0.062
10.327,-0.775,0.588,0.064
10.337,-0.777,0.588,0.061
10.347,-0.775,0.588,0.062
10.357,-0.771,0.584,0.062
10.367,-0.773,0.590,0.062
10.377,-0.777,0.596,0.062
10.387,-0.775,0.592,0.059
10.397,-0.770,0.586,0.061
10.407,-0.775,0.580,0.057
10.417,-0.783,0.588,0.059
10.427,-0.783,0.590,0.061
10.437,-0.785,0.592,0.062
10.447,-0.785,0.592,0.061
10.457,-0.783,0.590,0.059
10.466,-0.781,0.588,0.062
10.476,-0.787,0.592,0.062
10.486,-0.787,0.588,0.064
10.496,-0.785,0.586,0.062
10.506,-0.779,0.586,0.061
10.516,-0.783,0.582,0.061
10.526,-0.781,0.582,0.064
10.536,-0.779,0.580,0.064
10.546,-0.781,0.582,0.064
10.556,-0.773,0.580,0.064
10.566,-0.779,0.582,0.061
10.576,-0.781,0.584,0.059
10.586,-0.783,0.582,0.057
10.595,-0.783,0.588,0.057
10.605,-0.787,0.590,0.061
10.615,-0.789,0.592,0.059
10.625,-0.795,0.594,0.057
10.635,-0.791,0.592,0.061
10.645,-0.789,0.584,0.064
10.655,-0.789,0.580,0.061
10.665,-0.785,0.576,0.062
10.675,-0.781,0.576,0.061
10.685,-0.785,0.580,0.062
10.695,-0.789,0.578,0.064
10.705,-0.785,0.580,0.066
10.715,-0.789,0.580,0.068
10.725,-0.791,0.582,0.064
10.734,-0.791,0.584,0.068
10.744,-0.789,0.584,0.068
10.754,-0.793,0.586,0.068
10.764,-0.787,0.582,0.068
10.774,-0.789,0.580,0.068
10.784,-0.789,0.582,0.068
10.794,-0.787,0.580,0.068
10.804,-0.785,0.580,0.068
10.814,-0.787,0.586,0.070
10.824,-0.785,0.580,0.072
10.834,-0.787,0.578,0.068
10.844,-0.783,0.580,0.070
10.854,-0.785,0.580,0.074
10.863,-0.785,0.580,0.068
10.873,-0.781,0.582,0.070
10.883,-0.779,0.582,0.068
10.893,-0.775,0.584,0.068
10.903,-0.781,0.586,0.068
10.913,-0.781,0.586,0.070
10.923,-0.779,0.586,0.070
10.933,-0.779,0.582,0.074
10.943,-0.779,0.582,0.070
10.953,-0.775,0.586,0.070
10.963,-0.777,0.588,0.074
10.973,-0.777,0.580,0.072
10.983,-0.779,0.584,0.070
10.992,-0.789,0.590,0.076
11.002,-0.791,0.592,0.078
11.012,-0.789,0.588,0.078
11.022,-0.785,0.584,0.076
11.032,-0.787,0.580,0.076
11.042,-0.787,0.576,0.078
11.052,-0.783,0.582,0.080
11.062,-0.779,0.584,0.082
11.072,-0.779,0.584,0.080
11.082,-0.777,0.578,0.082
11.092,-0.775,0.584,0.080
11.102,-0.777,0.584,0.080
11.112,-0.781,0.584,0.076
11.122,-0.781,0.588,0.078
11.131,-0.775,0.590,0.074
11.141,-0.779,0.590,0.078
11.151,-0.777,0.592,0.074
11.161,-0.775,0.596,0.072
11.171,-0.773,0.594,0.076
11.181,-0.771,0.592,0.074
11.191,-0.773,0.594,0.070
11.201,-0.773,0.592,0.068
11.211,-0.775,0.592,0.070
11.221,-0.768,0.594,0.072
11.231,-0.773,0.592,0.068
11.241,-0.771,0.592,0.070
11.251,-0.773,0.596,0.072
11.260,-0.773,0.598,0.068
11.270,-0.768,0.596,0.066
11.280,-0.766,0.588,0.070
11.290,-0.771,0.588,0.066
11.300,-0.771,0.592,0.066
11.310,-0.771,0.596,0.068
11.320,-0.770,0.600,0.068
11.330,-0.777,0.600,0.064
11.340,-0.775,0.602,0.062
11.350,-0.773,0.600,0.064
11.360,-0.775,0.602,0.064
11.370,-0.777,0.594,0.064
11.380,-0.773,0.594,0.064
11.390,-0.773,0.600,0.061
11.399,-0.768,0.598,0.062
11.409,-0.770,0.594,0.061
11.419,-0.770,0.598,0.064
11.429,-0.770,0.600,0.062
11.439,-0.773,0.600,0.062
11.449,-0.771,0.600,0.064
11.459,-0.771,0.604,0.061
11.469,-0.770,0.605,0.061
11.479,-0.771,0.602,0.059
11.489,-0.771,0.602,0.059
11.499,-0.770,0.600,0.057
11.509,-0.773,0.600,0.059
11.519,-0.773,0.602,0.055
11.528,-0.768,0.598,0.057
11.538,-0.771,0.600,0.057
11.548,-0.770,0.604,0.055
11.558,-0.768,0.602,0.055
11.568,-0.766,0.602,0.055
11.578,-0.764,0.600,0.055
11.588,-0.770,0.600,0.057
11.598,-0.768,0.598,0.055
11.608,-0.768,0.604,0.057
11.618,-0.779,0.602,0.059
11.628,-0.781,0.602,0.059
11.638,-0.777,0.600,0.057
11.648,-0.775,0.598,0.051
11.658,-0.773,0.602,0.055
11.667,-0.771,0.600,0.053
11.677,-0.777,0.596,0.055
11.687,-0.775,0.596,0.053
11.697,-0.771,0.594,0.055
11.707,-0.773,0.598,0.053
11.717,-0.777,0.598,0.055
11.727,-0.771,0.596,0.055
11.737,-0.768,0.598,0.053
11.747,-0.768,0.596,0.055
11.757,-0.771,0.598,0.055
11.767,-0.771,0.602,0.059
11.777,-0.770,0.598,0.057
11.787,-0.768,0.596,0.057
11.796,-0.766,0.596,0.057
11.806,-0.770,0.598,0.061
11.816,-0.773,0.594,0.055
11.826,-0.771,0.594,0.055
11.836,-0.771,0.598,0.055
11.846,-0.777,0.600,0.061
11.856,-0.779,0.602,0.055
11.866,-0.775,0.605,0.055
11.876,-0.777,0.600,0.057
11.886,-0.775,0.600,0.055
11.896,-0.775,0.602,0.055
11.906,-0.775,0.600,0.059
11.916,-0.771,0.596,0.057
11.926,-0.773,0.592,0.059
11.935,-0.771,0.592,0.055
11.945,-0.771,0.598,0.059
11.955,-0.770,0.594,0.059
11.965,-0.773,0.596,0.055
11.975,-0.773,0.598,0.055
11.985,-0.771,0.598,0.055
11.995,-0.771,0.598,0.053
12.005,-0.771,0.600,0.055
12.015,-0.771,0.602,0.059
12.025,-0.771,0.600,0.059
12.035,-0.768,0.602,0.057
12.045,-0.768,0.602,0.057
12.055,-0.770,0.600,0.055
12.064,-0.768,0.602,0.057
12.074,-0.764,0.598,0.057
12.084,-0.766,0.602,0.053
12.094,-0.764,0.596,0.055
12.104,-0.762,0.600,0.055
12.114,-0.768,0.605,0.057
12.124,-0.760,0.602,0.059
12.134,-0.760,0.598,0.051
12.144,-0.764,0.598,0.051
12.154,-0.766,0.604,0.055
12.164,-0.768,0.605,0.055
12.174,-0.770,0.609,0.055
12.184,-0.773,0.609,0.051
12.193,-0.775,0.609,0.051
12.203,-0.773,0.607,0.051
12.213,-0.771,0.605,0.055
12.223,-0.770,0.604,0.049
12.233,-0.768,0.604,0.055
12.243,-0.770,0.600,0.053
12.253,-0.766,0.602,0.055
12.263,-0.764,0.602,0.053
12.273,-0.764,0.605,0.055
12.283,-0.762,0.607,0.051
12.293,-0.756,0.605,0.051
12.303,-0.764,0.607,0.059
12.313,-0.762,0.602,0.057
12.323,-0.766,0.600,0.057
12.332,-0.768,0.600,0.059
12.342,-0.766,0.602,0.059
12.352,-0.764,0.600,0.061
12.362,-0.770,0.604,0.059
12.372,-0.771,0.602,0.061
12.382,-0.768,0.602,0.057
12.392,-0.770,0.600,0.061
12.402,-0.770,0.596,0.057
12.412,-0.770,0.598,0.057
12.422,-0.768,0.600,0.055
12.432,-0.770,0.594,0.057
12.442,-0.771,0.604,0.057
12.452,-0.771,0.605,0.061
12.461,-0.771,0.602,0.061
12.471,-0.773,0.604,0.061
12.481,-0.775,0.604,0.059
12.491,-0.775,0.600,0.059
12.501,-0.771,0.600,0.057
12.511,-0.770,0.598,0.061
12.521,-0.766,0.602,0.059
12.531,-0.766,0.605,0.061
12.541,-0.764,0.602,0.057
12.551,-0.764,0.605,0.055
12.561,-0.768,0.604,0.062
12.571,-0.766,0.604,0.059
12.581,-0.762,0.602,0.061
12.591,-0.762,0.607,0.062
12.600,-0.768,0.604,0.057
12.610,-0.766,0.605,0.059
12.620,-0.770,0.602,0.059
12.630,-0.766,0.602,0.061
12.640,-0.771,0.604,0.057
12.650,-0.766,0.602,0.059
12.660,-0.768,0.602,0.059
12.670,-0.768,0.605,0.059
12.680,-0.766,0.605,0.055
12.690,-0.766,0.604,0.057
12.700,-0.768,0.604,0.059
12.710,-0.770,0.604,0.061
12.720,-0.768,0.602,0.059
12.729,-0.766,0.598,0.057
12.739,-0.764,0.600,0.061
12.749,-0.762,0.600,0.059
12.759,-0.764,0.602,0.061
12.769,-0.766,0.598,0.055
12.779,-0.773,0.602,0.059
12.789,-0.775,0.604,0.061
12.799,-0.777,0.605,0.061
12.809,-0.779,0.604,0.061
12.819,-0.779,0.602,0.061
12.829,-0.777,0.594,0.061
12.839,-0.779,0.598,0.061
12.849,-0.775,0.600,0.057
12.859,-0.771,0.596,0.062
12.868,-0.771,0.592,0.061
12.878,-0.775,0.594,0.061
12.888,-0.771,0.594,0.057
12.898,-0.771,0.592,0.059
12.908,-0.770,0.594,0.055
12.918,-0.775,0.602,0.064
12.928,-0.773,0.598,0.059
12.938,-0.773,0.604,0.061
12.948,-0.773,0.604,0.061
12.958,-0.770,0.602,0.059
12.968,-0.773,0.600,0.062
12.978,-0.768,0.596,0.061
12.988,-0.770,0.594,0.061
12.997,-0.771,0.596,0.061
13.007,-0.771,0.598,0.062
13.017,-0.771,0.598,0.062
13.027,-0.770,0.596,0.062
13.037,-0.766,0.592,0.061
13.047,-0.768,0.598,0.062
13.057,-0.766,0.598,0.064
13.067,-0.758,0.596,0.062
13.077,-0.762,0.596,0.057
13.087,-0.768,0.594,0.061
13.097,-0.775,0.600,0.061
13.107,-0.775,0.605,0.061
13.117,-0.773,0.605,0.064
13.127,-0.771,0.604,0.062
13.136,-0.771,0.604,0.061
13.146,-0.771,0.602,0.062
13.156,-0.773,0.598,0.062
13.166,-0.775,0.596,0.062
13.176,-0.773,0.594,0.064
13.186,-0.766,0.594,0.061
13.196,-0.766,0.594,0.064
13.206,-0.770,0.596,0.062
13.216,-0.768,0.592,0.062
13.226,-0.766,0.598,0.062
13.236,-0.771,0.600,0.062
13.246,-0.771,0.598,0.062
13.256,-0.773,0.602,0.062
13.265,-0.771,0.600,0.061
13.275,-0.771,0.598,0.062
13.285,-0.775,0.598,0.064
13.295,-0.775,0.596,0.062
13.305,-0.775,0.598,0.059
13.315,-0.771,0.598,0.061
13.325,-0.771,0.600,0.061
13.335,-0.771,0.594,0.061
13.345,-0.770,0.598,0.057
13.355,-0.771,0.598,0.059
13.365,-0.773,0.598,0.057
13.375,-0.771,0.600,0.059
13.385,-0.773,0.600,0.059
13.394,-0.770,0.598,0.057
13.404,-0.771,0.598,0.059
13.414,-0.771,0.600,0.059
13.424,-0.770,0.594,0.057
13.434,-0.771,0.598,0.061
13.444,-0.771,0.598,0.059
13.454,-0.773,0.598,0.055
13.464,-0.775,0.598,0.061
13.474,-0.775,0.596,0.057
13.484,-0.775,0.598,0.053
13.494,-0.773,0.600,0.057
13.504,-0.777,0.596,0.055
13.514,-0.777,0.592,0.055
13.524,-0.775,0.594,0.057
13.533,-0.771,0.594,0.057
13.543,-0.773,0.592,0.055
13.553,-0.773,0.598,0.057
13.563,-0.773,0.602,0.057
13.573,-0.773,0.596,0.055
13.583,-0.773,0.594,0.057
13.593,-0.771,0.602,0.057
13.603,-0.768,0.598,0.057
13.613,-0.770,0.596,0.055
13.623,-0.771,0.596,0.051
13.633,-0.775,0.600,0.053
13.643,-0.775,0.600,0.053
13.653,-0.783,0.600,0.053
13.662,-0.783,0.605,0.057
13.672,-0.775,0.602,0.055
13.682,-0.775,0.596,0.055
13.692,-0.779,0.596,0.055
13.702,-0.779,0.594,0.055
13.712,-0.779,0.594,0.057
13.722,-0.777,0.592,0.057
13.732,-0.773,0.590,0.061
13.742,-0.775,0.586,0.059
13.752,-0.775,0.588,0.057
13.762,-0.775,0.590,0.061
13.772,-0.777,0.592,0.061
13.782,-0.777,0.592,0.059
13.792,-0.781,0.594,0.059
13.801,-0.777,0.594,0.059
13.811,-0.777,0.594,0.062
13.821,-0.777,0.594,0.057
13.831,-0.773,0.594,0.059
13.841,-0.779,0.594,0.059
13.851,-0.775,0.594,0.057
13.861,-0.775,0.594,0.061
13.871,-0.775,0.598,0.057
13.881,-0.777,0.598,0.057
13.891,-0.773,0.592,0.061
13.901,-0.770,0.594,0.057
13.911,-0.770,0.600,0.055
13.921,-0.766,0.598,0.057
13.930,-0.764,0.594,0.057
13.940,-0.768,0.588,0.053
13.950,-0.770,0.590,0.053
13.960,-0.773,0.596,0.057
13.970,-0.773,0.600,0.057
13.980,-0.779,0.602,0.059
13.990,-0.779,0.604,0.059
14.000,-0.781,0.600,0.055
14.010,-0.777,0.598,0.055
14.020,-0.779,0.594,0.057
14.030,-0.779,0.592,0.057
14.040,-0.779,0.590,0.061
14.050,-0.775,0.592,0.059
14.060,-0.773,0.590,0.062
14.069,-0.777,0.590,0.061
14.079,-0.771,0.592,0.059
14.089,-0.773,0.594,0.061
14.099,-0.773,0.592,0.062
14.109,-0.773,0.592,0.061
14.119,-0.777,0.592,0.062
14.129,-0.777,0.588,0.057
14.139,-0.779,0.596,0.059
14.149,-0.777,0.596,0.061
14.159,-0.779,0.592,0.057
14.169,-0.777,0.592,0.055
14.179,-0.775,0.594,0.057
14.189,-0.775,0.594,0.057
14.198,-0.775,0.590,0.057
14.208,-0.779,0.590,0.057
14.218,-0.777,0.592,0.059
14.228,-0.775,0.590,0.059
14.238,-0.777,0.592,0.059
14.248,-0.779,0.594,0.059
14.258,-0.773,0.594,0.059
14.268,-0.779,0.594,0.055
14.278,-0.779,0.594,0.059
14.288,-0.779,0.592,0.057
14.298,-0.777,0.592,0.059
14.308,-0.777,0.596,0.057
14.318,-0.777,0.596,0.059
14.328,-0.777,0.590,0.059
14.337,-0.775,0.592,0.057
14.347,-0.775,0.590,0.061
14.357,-0.775,0.592,0.057
14.367,-0.775,0.590,0.059
14.377,-0.779,0.594,0.059
14.387,-0.775,0.590,0.059
14.397,-0.770,0.594,0.059
14.407,-0.775,0.590,0.061
14.417,-0.777,0.592,0.059
14.427,-0.777,0.588,0.059
14.437,-0.781,0.588,0.059
14.447,-0.779,0.592,0.062
14.457,-0.783,0.588,0.061
14.466,-0.783,0.588,0.064
14.476,-0.783,0.586,0.059
14.486,-0.787,0.588,0.061
14.496,-0.783,0.586,0.062
14.506,-0.781,0.586,0.062
14.516,-0.781,0.588,0.057
14.526,-0.777,0.588,0.061
14.536,-0.777,0.592,0.061
14.546,-0.775,0.590,0.061
14.556,-0.779,0.590,0.062
14.566,-0.781,0.586,0.059
14.576,-0.779,0.586,0.061
14.586,-0.777,0.592,0.062
14.595,-0.781,0.594,0.062
14.605,-0.777,0.584,0.057
14.615,-0.779,0.586,0.059
14.625,-0.783,0.582,0.059
14.635,-0.785,0.590,0.059
14.645,-0.785,0.590,0.061
14.655,-0.781,0.590,0.059
14.665,-0.781,0.590,0.061
14.675,-0.781,0.590,0.062
14.685,-0.783,0.590,0.059
14.695,-0.781,0.588,0.062
14.705,-0.777,0.584,0.061
14.715,-0.779,0.588,0.061
14.725,-0.777,0.586,0.062
14.734,-0.779,0.586,0.061
14.744,-0.777,0.584,0.059
14.754,-0.775,0.588,0.059
14.764,-0.777,0.590,0.061
14.774,-0.779,0.590,0.059
14.784,-0.779,0.592,0.057
14.794,-0.781,0.592,0.059
14.804,-0.781,0.590,0.059
14.814,-0.779,0.590,0.057
14.824,-0.781,0.590,0.059
14.834,-0.781,0.590,0.057
14.844,-0.775,0.590,0.057
14.854,-0.775,0.592,0.057
14.863,-0.779,0.588,0.061
14.873,-0.779,0.586,0.059
14.883,-0.777,0.588,0.059
14.893,-0.777,0.590,0.061
14.903,-0.779,0.596,0.061
14.913,-0.773,0.590,0.057
14.923,-0.775,0.586,0.059
14.933,-0.781,0.584,0.057
14.943,-0.783,0.582,0.057
14.953,-0.787,0.592,0.055
14.963,-0.785,0.594,0.059
14.973,-0.787,0.592,0.055
14.983,-0.785,0.592,0.059
14.993,-0.789,0.590,0.061
15.002,-0.785,0.588,0.059
15.012,-0.791,0.582,0.057
15.022,-0.789,0.582,0.061
15.032,-0.785,0.582,0.059
15.042,-0.785,0.580,0.057
15.052,-0.783,0.578,0.061
15.062,-0.783,0.584,0.061
15.072,-0.783,0.584,0.059
15.082,-0.783,0.582,0.062
15.092,-0.783,0.580,0.061
15.102,-0.781,0.582,0.061
15.112,-0.783,0.584,0.059
15.122,-0.787,0.584,0.057
15.131,-0.785,0.588,0.057
15.141,-0.787,0.586,0.055
15.151,-0.783,0.586,0.055
15.161,-0.781,0.584,0.055
15.171,-0.785,0.582,0.055
15.181,-0.785,0.584,0.059
15.191,-0.785,0.582,0.055
15.201,-0.783,0.582,0.055
15.211,-0.785,0.582,0.057
15.221,-0.783,0.586,0.057
15.231,-0.781,0.584,0.055
15.241,-0.785,0.586,0.055
15.251,-0.783,0.584,0.057
15.261,-0.785,0.586,0.053
15.270,-0.779,0.590,0.055
15.280,-0.781,0.586,0.057
15.290,-0.781,0.588,0.055
15.300,-0.783,0.586,0.055
15.310,-0.783,0.586,0.053
15.320,-0.781,0.580,0.055
15.330,-0.787,0.582,0.057
15.340,-0.787,0.582,0.055
15.350,-0.787,0.582,0.057
15.360,-0.783,0.584,0.053
15.370,-0.785,0.582,0.057
15.380,-0.789,0.586,0.057
15.390,-0.785,0.582,0.055
15.399,-0.785,0.580,0.057
15.409,-0.787,0.580,0.055
15.419,-0.791,0.582,0.057
15.429,-0.787,0.580,0.057
15.439,-0.789,0.582,0.055
15.449,-0.787,0.582,0.053
15.459,-0.785,0.580,0.057
15.469,-0.783,0.580,0.059
15.479,-0.787,0.580,0.055
15.489,-0.785,0.582,0.059
15.499,-0.791,0.580,0.055
15.509,-0.791,0.584,0.053
15.519,-0.791,0.582,0.055
15.529,-0.789,0.584,0.055
15.538,-0.789,0.580,0.057
15.548,-0.787,0.580,0.053
15.558,-0.785,0.582,0.057
15.568,-0.783,0.582,0.055
15.578,-0.781,0.578,0.055
15.588,-0.783,0.580,0.053
15.598,-0.787,0.580,0.053
15.608,-0.783,0.584,0.055
15.618,-0.781,0.582,0.055
15.628,-0.779,0.580,0.053
15.638,-0.779,0.586,0.055
15.648,-0.781,0.584,0.059
15.658,-0.779,0.578,0.055
15.667,-0.787,0.582,0.053
15.677,-0.793,0.588,0.055
15.687,-0.795,0.590,0.055
15.697,-0.795,0.586,0.059
15.707,-0.791,0.584,0.059
15.717,-0.787,0.582,0.057
15.727,-0.785,0.580,0.057
15.737,-0.785,0.578,0.057
15.747,-0.785,0.576,0.061
15.757,-0.783,0.574,0.059
15.767,-0.785,0.576,0.059
15.777,-0.783,0.572,0.055
15.787,-0.787,0.574,0.055
15.796,-0.789,0.580,0.059
15.806,-0.789,0.580,0.059
15.816,-0.787,0.584,0.057
15.826,-0.793,0.582,0.055
15.836,-0.791,0.586,0.057
15.846,-0.791,0.580,0.055
15.856,-0.787,0.580,0.055
15.866,-0.789,0.580,0.059
15.876,-0.787,0.578,0.057
15.886,-0.783,0.578,0.059
15.896,-0.785,0.576,0.059
15.906,-0.781,0.576,0.059
15.916,-0.785,0.580,0.057
15.926,-0.785,0.576,0.059
15.935,-0.789,0.576,0.055
15.945,-0.787,0.582,0.059
15.955,-0.785,0.582,0.061
15.965,-0.787,0.578,0.057
15.975,-0.793,0.572,0.055
15.985,-0.793,0.574,0.059
15.995,-0.793,0.580,0.055
16.005,-0.791,0.582,0.059
16.015,-0.791,0.584,0.057
16.025,-0.795,0.586,0.057
16.035,-0.791,0.584,0.057
16.045,-0.793,0.580,0.055
16.055,-0.793,0.578,0.057
16.064,-0.793,0.576,0.055
16.074,-0.791,0.578,0.053
16.084,-0.789,0.574,0.055
16.094,-0.787,0.576,0.055
16.104,-0.783,0.576,0.057
16.114,-0.785,0.580,0.055
16.124,-0.783,0.582,0.059
16.134,-0.787,0.576,0.055
16.144,-0.787,0.576,0.055
16.154,-0.787,0.580,0.057
16.164,-0.791,0.580,0.055
16.174,-0.787,0.578,0.055
16.184,-0.789,0.578,0.057
16.194,-0.793,0.582,0.057
16.203,-0.793,0.580,0.057
16.213,-0.795,0.580,0.057
16.223,-0.791,0.580,0.061
16.233,-0.791,0.582,0.053
16.243,-0.789,0.578,0.057
16.253,-0.787,0.578,0.055
16.263,-0.789,0.574,0.057
16.273,-0.791,0.580,0.059
16.283,-0.787,0.578,0.059
16.293,-0.787,0.578,0.057
16.303,-0.789,0.574,0.059
16.313,-0.789,0.574,0.057
16.323,-0.787,0.578,0.057
16.332,-0.793,0.578,0.057
16.342,-0.795,0.578,0.055
16.352,-0.793,0.578,0.053
16.362,-0.793,0.578,0.053
16.372,-0.793,0.576,0.055
16.382,-0.795,0.578,0.057
16.392,-0.791,0.576,0.053
16.402,-0.789,0.576,0.057
16.412,-0.791,0.576,0.057
16.422,-0.789,0.578,0.057
16.432,-0.789,0.576,0.059
16.442,-0.789,0.576,0.059
16.452,-0.787,0.580,0.061
16.462,-0.789,0.578,0.055
16.471,-0.793,0.576,0.057
16.481,-0.791,0.574,0.059
16.491,-0.797,0.574,0.059
16.501,-0.795,0.572,0.059
16.511,-0.797,0.574,0.055
16.521,-0.793,0.578,0.055
16.531,-0.793,0.574,0.059
16.541,-0.791,0.574,0.057
16.551,-0.793,0.580,0.057
16.561,-0.797,0.576,0.061
16.571,-0.795,0.576,0.061
16.581,-0.791,0.574,0.057
16.591,-0.789,0.576,0.059
16.600,-0.789,0.576,0.059
16.610,-0.787,0.574,0.059
16.620,-0.787,0.570,0.055
16.630,-0.793,0.572,0.059
16.640,-0.797,0.572,0.061
16.650,-0.797,0.578,0.059
16.660,-0.797,0.580,0.057
16.670,-0.793,0.576,0.059
16.680,-0.793,0.576,0.059
16.690,-0.797,0.572,0.057
16.700,-0.795,0.574,0.059
16.710,-0.793,0.570,0.059
16.720,-0.791,0.572,0.059
16.730,-0.795,0.572,0.059
16.739,-0.789,0.574,0.062
16.749,-0.791,0.574,0.059
16.759,-0.791,0.576,0.059
16.769,-0.789,0.576,0.059
16.779,-0.791,0.578,0.057
16.789,-0.795,0.576,0.062
16.799,-0.791,0.576,0.062
16.809,-0.791,0.574,0.059
16.819,-0.795,0.576,0.061
16.829,-0.793,0.576,0.059
16.839,-0.791,0.576,0.057
16.849,-0.793,0.572,0.061
16.859,-0.791,0.576,0.059
16.868,-0.791,0.572,0.057
16.878,-0.795,0.574,0.057
16.888,-0.795,0.572,0.061
16.898,-0.795,0.572,0.057
16.908,-0.795,0.584,0.057
16.918,-0.787,0.578,0.059
16.928,-0.787,0.572,0.057
16.938,-0.791,0.570,0.055
16.948,-0.791,0.570,0.057
16.958,-0.795,0.576,0.059
16.968,-0.795,0.580,0.057
16.978,-0.795,0.578,0.059
16.988,-0.791,0.582,0.059
16.997,-0.795,0.576,0.057
17.007,-0.799,0.576,0.055
17.017,-0.797,0.574,0.057
17.027,-0.793,0.574,0.061
17.037,-0.791,0.576,0.062
17.047,-0.791,0.572,0.059
17.057,-0.793,0.570,0.057
17.067,-0.789,0.574,0.059
17.077,-0.787,0.572,0.061
17.087,-0.793,0.574,0.059
17.097,-0.793,0.574,0.062
17.107,-0.795,0.578,0.062
17.117,-0.793,0.572,0.061
17.127,-0.793,0.568,0.059
17.136,-0.795,0.570,0.057
17.146,-0.795,0.570,0.059
17.156,-0.797,0.572,0.061
17.166,-0.797,0.576,0.059
17.176,-0.797,0.572,0.059
17.186,-0.795,0.574,0.062
17.196,-0.791,0.572,0.059
17.206,-0.793,0.570,0.059
17.216,-0.793,0.568,0.061
17.226,-0.795,0.566,0.062
17.236,-0.795,0.568,0.061
17.246,-0.793,0.572,0.061
17.256,-0.795,0.570,0.061
17.265,-0.795,0.568,0.057
17.275,-0.793,0.570,0.057
17.285,-0.795,0.568,0.059
17.295,-0.795,0.574,0.059
17.305,-0.797,0.572,0.059
17.315,-0.799,0.574,0.059
17.325,-0.795,0.574,0.057
17.335,-0.799,0.578,0.061
17.345,-0.793,0.574,0.059
17.355,-0.791,0.574,0.055
17.365,-0.793,0.574,0.059
17.375,-0.797,0.574,0.059
17.385,-0.799,0.572,0.055
17.395,-0.793,0.568,0.053
17.404,-0.797,0.570,0.059
17.414,-0.799,0.568,0.055
17.424,-0.799,0.572,0.057
17.434,-0.799,0.572,0.051
17.444,-0.797,0.570,0.051
17.454,-0.797,0.570,0.055
17.464,-0.795,0.576,0.053
17.474,-0.797,0.576,0.059
17.484,-0.797,0.570,0.055
17.494,-0.797,0.568,0.055
17.504,-0.793,0.564,0.055
17.514,-0.791,0.564,0.055
17.524,-0.789,0.574,0.053
17.533,-0.789,0.570,0.051
17.543,-0.791,0.572,0.053
17.553,-0.797,0.574,0.055
17.563,-0.803,0.580,0.053
17.573,-0.805,0.578,0.057
17.583,-0.801,0.572,0.055
17.593,-0.797,0.566,0.053
17.603,-0.799,0.564,0.055
17.613,-0.801,0.564,0.053
17.623,-0.799,0.566,0.055
17.633,-0.797,0.564,0.053
17.643,-0.803,0.564,0.057
17.653,-0.801,0.566,0.059
17.663,-0.799,0.566,0.055
17.672,-0.803,0.564,0.053
17.682,-0.803,0.562,0.053
17.692,-0.801,0.564,0.053
17.702,-0.799,0.566,0.053
17.712,-0.797,0.568,0.053
17.722,-0.799,0.572,0.055
17.732,-0.797,0.574,0.053
17.742,-0.799,0.576,0.057
17.752,-0.793,0.572,0.057
17.762,-0.799,0.578,0.057
17.772,-0.807,0.582,0.055
17.782,-0.803,0.559,0.051
17.792,-0.803,0.564,0.051
17.801,-0.805,0.559,0.053
17.811,-0.803,0.557,0.051
17.821,-0.799,0.562,0.055
17.831,-0.791,0.568,0.055
17.841,-0.785,0.570,0.059
17.851,-0.791,0.566,0.053
17.861,-0.789,0.568,0.055
17.871,-0.787,0.574,0.055
17.881,-0.789,0.576,0.057
17.891,-0.791,0.580,0.057
17.901,-0.791,0.576,0.059
17.911,-0.793,0.576,0.057
17.921,-0.795,0.570,0.059
17.931,-0.795,0.570,0.061
17.940,-0.795,0.566,0.059
17.950,-0.795,0.564,0.057
17.960,-0.795,0.564,0.057
17.970,-0.801,0.562,0.057
17.980,-0.799,0.564,0.053
17.990,-0.801,0.562,0.059
18.000,-0.803,0.566,0.061
18.010,-0.803,0.566,0.057
18.020,-0.803,0.568,0.059
18.030,-0.799,0.570,0.059
18.040,-0.801,0.572,0.061
18.050,-0.801,0.568,0.057
18.060,-0.803,0.570,0.059
18.069,-0.801,0.568,0.059
18.079,-0.799,0.568,0.057
18.089,-0.799,0.570,0.055
18.099,-0.797,0.570,0.057
18.109,-0.799,0.570,0.057
18.119,-0.795,0.570,0.055
18.129,-0.797,0.572,0.061
18.139,-0.795,0.570,0.055
18.149,-0.797,0.568,0.061
18.159,-0.797,0.568,0.057
18.169,-0.795,0.568,0.061
18.179,-0.795,0.570,0.061
18.189,-0.797,0.568,0.057
18.198,-0.801,0.574,0.059
18.208,-0.803,0.570,0.057
18.218,-0.803,0.570,0.057
18.228,-0.799,0.574,0.059
18.238,-0.799,0.570,0.055
18.248,-0.801,0.568,0.061
18.258,-0.799,0.564,0.057
18.268,-0.797,0.566,0.059
18.278,-0.791,0.568,0.059
18.288,-0.797,0.572,0.064
18.298,-0.801,0.574,0.061
18.308,-0.799,0.572,0.062
18.318,-0.797,0.574,0.062
18.328,-0.793,0.572,0.062
18.337,-0.793,0.566,0.064
18.347,-0.793,0.564,0.061
18.357,-0.793,0.566,0.061
18.367,-0.797,0.572,0.061
18.377,-0.801,0.572,0.062
18.387,-0.801,0.576,0.066
18.397,-0.807,0.576,0.064
18.407,-0.803,0.572,0.062
18.417,-0.803,0.570,0.066
18.427,-0.801,0.566,0.066
18.437,-0.795,0.570,0.068
18.447,-0.797,0.566,0.068
18.457,-0.795,0.562,0.064
18.466,-0.797,0.566,0.070
18.476,-0.795,0.566,0.068
18.486,-0.795,0.561,0.070
18.496,-0.795,0.564,0.066
18.506,-0.797,0.568,0.064
18.516,-0.795,0.568,0.070
18.526,-0.801,0.570,0.066
18.536,-0.799,0.566,0.066
18.546,-0.799,0.570,0.062
18.556,-0.799,0.570,0.064
18.566,-0.799,0.570,0.064
18.576,-0.797,0.570,0.064
18.586,-0.795,0.570,0.064
18.596,-0.795,0.572,0.061
18.605,-0.797,0.574,0.064
18.615,-0.793,0.570,0.062
18.625,-0.791,0.566,0.064
18.635,-0.793,0.572,0.064
18.645,-0.793,0.578,0.068
18.655,-0.793,0.574,0.064
18.665,-0.789,0.568,0.064
18.675,-0.791,0.562,0.062
18.685,-0.795,0.566,0.064
18.695,-0.797,0.570,0.062
18.705,-0.797,0.576,0.068
18.715,-0.799,0.580,0.064
18.725,-0.799,0.576,0.062
18.734,-0.799,0.576,0.062
18.744,-0.801,0.572,0.064
18.754,-0.801,0.572,0.064
18.764,-0.797,0.570,0.064
18.774,-0.795,0.566,0.064
18.784,-0.797,0.570,0.066
18.794,-0.793,0.568,0.066
18.804,-0.791,0.568,0.064
18.814,-0.791,0.570,0.064
18.824,-0.791,0.570,0.062
18.834,-0.799,0.570,0.066
18.844,-0.797,0.572,0.066
18.854,-0.797,0.570,0.062
18.864,-0.799,0.568,0.064
18.873,-0.799,0.572,0.064
18.883,-0.797,0.570,0.064
18.893,-0.797,0.570,0.061
18.903,-0.799,0.572,0.062
18.913,-0.797,0.568,0.064
18.923,-0.795,0.570,0.064
18.933,-0.795,0.568,0.066
18.943,-0.795,0.572,0.062
18.953,-0.797,0.574,0.064
18.963,-0.791,0.568,0.064
18.973,-0.795,0.570,0.062
18.983,-0.795,0.572,0.064
18.993,-0.797,0.572,0.064
19.002,-0.795,0.576,0.064
19.012,-0.793,0.574,0.062
19.022,-0.797,0.574,0.062
19.032,-0.795,0.578,0.062
19.042,-0.797,0.574,0.066
19.052,-0.797,0.574,0.064
19.062,-0.795,0.572,0.064
19.072,-0.793,0.572,0.064
19.082,-0.791,0.572,0.064
19.092,-0.793,0.574,0.064
19.102,-0.793,0.574,0.066
19.112,-0.797,0.572,0.068
19.122,-0.793,0.576,0.066
19.132,-0.791,0.574,0.066
19.141,-0.793,0.570,0.064
19.151,-0.795,0.574,0.064
19.161,-0.793,0.576,0.070
19.171,-0.791,0.576,0.066
19.181,-0.791,0.574,0.070
19.191,-0.791,0.576,0.068
19.201,-0.795,0.580,0.068
19.211,-0.793,0.580,0.066
19.221,-0.787,0.576,0.066
19.231,-0.787,0.570,0.068
19.241,-0.787,0.578,0.066
19.251,-0.787,0.576,0.070
19.261,-0.789,0.574,0.066
19.270,-0.791,0.570,0.062
19.280,-0.795,0.572,0.066
19.290,-0.797,0.578,0.068
19.300,-0.797,0.582,0.070
19.310,-0.797,0.578,0.066
19.320,-0.795,0.576,0.066
19.330,-0.795,0.576,0.072
19.340,-0.799,0.576,0.068
19.350,-0.795,0.572,0.070
19.360,-0.793,0.574,0.072
19.370,-0.791,0.572,0.070
19.380,-0.789,0.572,0.070
19.390,-0.791,0.570,0.070
19.399,-0.789,0.572,0.070
19.409,-0.785,0.574,0.068
19.419,-0.789,0.574,0.068
19.429,-0.791,0.574,0.066
19.439,-0.793,0.576,0.066
19.449,-0.791,0.580,0.068
19.459,-0.791,0.580,0.066
19.469,-0.787,0.582,0.064
19.479,-0.787,0.578,0.066
19.489,-0.789,0.576,0.066
19.499,-0.789,0.578,0.066
19.509,-0.787,0.580,0.062
19.519,-0.789,0.574,0.066
19.529,-0.789,0.576,0.062
19.538,-0.787,0.572,0.068
19.548,-0.785,0.580,0.066
19.558,-0.781,0.580,0.064
19.568,-0.781,0.578,0.062
19.578,-0.783,0.574,0.062
19.588,-0.785,0.576,0.066
19.598,-0.791,0.584,0.062
19.608,-0.797,0.584,0.064
19.618,-0.797,0.588,0.064
19.628,-0.799,0.586,0.064
19.638,-0.795,0.582,0.066
19.648,-0.797,0.580,0.062
19.658,-0.797,0.576,0.062
19.667,-0.795,0.574,0.066
19.677,-0.797,0.574,0.064
19.687,-0.791,0.572,0.066
19.697,-0.793,0.572,0.066
19.707,-0.789,0.572,0.062
19.717,-0.787,0.572,0.061
19.727,-0.789,0.578,0.064
19.737,-0.789,0.578,0.068
19.747,-0.791,0.580,0.070
19.757,-0.789,0.578,0.068
19.767,-0.791,0.576,0.066
19.777,-0.789,0.574,0.064
19.787,-0.791,0.578,0.068
19.797,-0.793,0.578,0.066
19.806,-0.797,0.572,0.068
19.816,-0.795,0.570,0.070
19.826,-0.791,0.570,0.070
19.836,-0.793,0.578,0.066
19.846,-0.791,0.578,0.066
19.856,-0.789,0.578,0.068
19.866,-0.789,0.580,0.062
19.876,-0.789,0.580,0.066
19.886,-0.789,0.580,0.066
19.896,-0.791,0.578,0.066
19.906,-0.791,0.574,0.064
19.916,-0.787,0.570,0.061
19.926,-0.789,0.574,0.064
19.935,-0.793,0.582,0.064
19.945,-0.795,0.582,0.064
19.955,-0.793,0.582,0.064
19.965,-0.793,0.582,0.064
19.975,-0.791,0.580,0.064
19.985,-0.791,0.582,0.064
19.995,-0.787,0.580,0.064
20.005,-0.791,0.576,0.064
20.015,-0.789,0.572,0.066
20.025,-0.789,0.574,0.066
20.035,-0.787,0.572,0.066
20.045,-0.791,0.578,0.066
20.055,-0.789,0.578,0.066
20.065,-0.789,0.576,0.064
20.074,-0.785,0.576,0.066
20.084,-0.783,0.580,0.066
20.094,-0.787,0.582,0.066
20.104,-0.785,0.578,0.064
20.114,-0.787,0.574,0.062
20.124,-0.785,0.576,0.064
20.134,-0.795,0.580,0.066
20.144,-0.799,0.582,0.066
20.154,-0.797,0.584,0.066
20.164,-0.795,0.580,0.064
20.174,-0.793,0.574,0.064
20.184,-0.789,0.572,0.064
20.194,-0.793,0.574,0.068
20.203,-0.795,0.574,0.066
20.213,-0.791,0.576,0.068
20.223,-0.791,0.574,0.068
20.233,-0.789,0.578,0.068
20.243,-0.789,0.572,0.066
20.253,-0.789,0.578,0.070
20.263,-0.793,0.580,0.064
20.273,-0.793,0.574,0.062
20.283,-0.795,0.572,0.068
20.293,-0.797,0.576,0.068
20.303,-0.795,0.578,0.068
20.313,-0.795,0.578,0.068
20.323,-0.787,0.576,0.070
20.333,-0.785,0.580,0.066
20.342,-0.785,0.580,0.066
20.352,-0.787,0.578,0.064
20.362,-0.783,0.582,0.066
20.372,-0.783,0.580,0.068
20.382,-0.787,0.578,0.064
20.392,-0.781,0.578,0.066
20.402,-0.785,0.584,0.066
20.412,-0.785,0.586,0.064
20.422,-0.785,0.580,0.062
20.432,-0.785,0.574,0.061
20.442,-0.787,0.580,0.062
20.452,-0.785,0.580,0.064
20.462,-0.793,0.586,0.064
20.471,-0.795,0.588,0.064
20.481,-0.793,0.584,0.062
20.491,-0.793,0.582,0.064
20.501,-0.791,0.580,0.062
20.511,-0.791,0.578,0.062
20.521,-0.789,0.576,0.066
20.531,-0.789,0.576,0.064
20.541,-0.787,0.574,0.062
20.551,-0.781,0.576,0.068
20.561,-0.783,0.580,0.068
20.571,-0.781,0.580,0.072
20.581,-0.783,0.582,0.066
20.591,-0.783,0.584,0.070
20.600,-0.785,0.584,0.066
20.610,-0.789,0.580,0.068
20.620,-0.791,0.580,0.068
20.630,-0.791,0.574,0.064
20.640,-0.789,0.576,0.066
20.650,-0.795,0.578,0.070
20.660,-0.793,0.574,0.064
20.670,-0.791,0.578,0.070
20.680,-0.789,0.580,0.068
20.690,-0.787,0.576,0.066
20.700,-0.785,0.572,0.064
20.710,-0.787,0.576,0.062
20.720,-0.791,0.578,0.064
20.730,-0.791,0.578,0.066
20.739,-0.787,0.578,0.066
20.749,-0.793,0.582,0.066
20.759,-0.793,0.580,0.066
20.769,-0.787,0.584,0.066
20.779,-0.789,0.582,0.064
20.789,-0.787,0.582,0.066
20.799,-0.795,0.578,0.062
20.809,-0.789,0.574,0.066
20.819,-0.793,0.578,0.062
20.829,-0.793,0.580,0.062
20.839,-0.791,0.580,0.062
20.849,-0.791,0.582,0.062
20.859,-0.795,0.572,0.061
20.868,-0.791,0.576,0.062
20.878,-0.791,0.578,0.062
20.888,-0.793,0.580,0.062
20.898,-0.791,0.582,0.064
20.908,-0.785,0.578,0.064
20.918,-0.781,0.580,0.062
20.928,-0.785,0.582,0.066
20.938,-0.787,0.582,0.066
20.948,-0.789,0.580,0.066
20.958,-0.789,0.574,0.066
20.968,-0.787,0.576,0.062
20.978,-0.787,0.578,0.066
20.988,-0.789,0.576,0.064
20.998,-0.787,0.574,0.064
21.007,-0.787,0.576,0.061
21.017,-0.793,0.578,0.064
21.027,-0.795,0.584,0.068
21.037,-0.795,0.590,0.064
21.047,-0.789,0.586,0.064
21.057,-0.789,0.582,0.066
21.067,-0.791,0.576,0.066
21.077,-0.785,0.582,0.064
21.087,-0.787,0.578,0.066
21.097,-0.789,0.576,0.066
21.107,-0.789,0.576,0.064
21.117,-0.787,0.574,0.066
21.127,-0.785,0.574,0.066
21.136,-0.789,0.578,0.064
21.146,-0.793,0.578,0.062
21.156,-0.791,0.578,0.064
21.166,-0.793,0.578,0.066
21.176,-0.787,0.580,0.062
21.186,-0.789,0.584,0.062
21.196,-0.785,0.582,0.062
21.206,-0.787,0.580,0.066
21.216,-0.785,0.584,0.061
21.226,-0.785,0.582,0.064
21.236,-0.785,0.580,0.066
21.246,-0.789,0.578,0.062
21.256,-0.785,0.580,0.062
21.266,-0.789,0.580,0.059
21.275,-0.787,0.578,0.061
21.285,-0.785,0.586,0.062
21.295,-0.785,0.588,0.061
21.305,-0.785,0.584,0.057
21.315,-0.787,0.580,0.059
21.325,-0.787,0.580,0.061
21.335,-0.783,0.588,0.061
21.345,-0.785,0.586,0.062
21.355,-0.789,0.590,0.062
21.365,-0.787,0.588,0.064
21.375,-0.787,0.586,0.062
21.385,-0.789,0.582,0.061
21.395,-0.791,0.580,0.062
21.404,-0.787,0.586,0.061
21.414,-0.787,0.582,0.061
21.424,-0.781,0.578,0.064
21.434,-0.787,0.580,0.062
21.444,-0.783,0.578,0.070
21.454,-0.789,0.574,0.064
21.464,-0.789,0.580,0.068
21.474,-0.789,0.580,0.066
21.484,-0.791,0.586,0.064
21.494,-0.787,0.574,0.068
21.504,-0.787,0.584,0.064
21.514,-0.785,0.582,0.070
21.524,-0.785,0.578,0.070
21.534,-0.787,0.584,0.068
21.543,-0.789,0.586,0.068
21.553,-0.787,0.580,0.066
21.563,-0.791,0.582,0.068
21.573,-0.787,0.582,0.064
21.583,-0.783,0.582,0.062
21.593,-0.781,0.580,0.064
21.603,-0.777,0.588,0.062
21.613,-0.779,0.588,0.062
21.623,-0.781,0.586,0.062
21.633,-0.787,0.582,0.064
21.643,-0.787,0.582,0.062
21.653,-0.793,0.574,0.061
21.663,-0.791,0.568,0.062
21.672,-0.793,0.570,0.062
21.682,-0.793,0.578,0.066
21.692,-0.797,0.576,0.062
21.702,-0.793,0.576,0.064
21.712,-0.787,0.576,0.064
21.722,-0.787,0.574,0.064
21.732,-0.789,0.574,0.062
21.742,-0.793,0.582,0.070
21.752,-0.795,0.580,0.062
21.762,-0.785,0.578,0.062
21.772,-0.785,0.578,0.064
21.782,-0.787,0.578,0.066
21.792,-0.789,0.582,0.068
21.802,-0.795,0.582,0.064
21.811,-0.791,0.582,0.064
21.821,-0.793,0.580,0.066
21.831,-0.789,0.576,0.068
21.841,-0.789,0.580,0.064
21.851,-0.793,0.580,0.064
21.861,-0.791,0.578,0.066
21.871,-0.795,0.574,0.064
21.881,-0.787,0.572,0.061
21.891,-0.787,0.574,0.064
21.901,-0.785,0.580,0.062
21.911,-0.791,0.580,0.061
21.921,-0.789,0.568,0.059
21.931,-0.785,0.574,0.059
21.940,-0.791,0.580,0.064
21.950,-0.803,0.580,0.062
21.960,-0.803,0.582,0.062
21.970,-0.799,0.576,0.062
21.980,-0.799,0.572,0.061
21.990,-0.793,0.570,0.066
22.000,-0.793,0.574,0.066
22.010,-0.795,0.574,0.066
22.020,-0.789,0.574,0.064
22.030,-0.791,0.574,0.066
22.040,-0.787,0.572,0.068
22.050,-0.785,0.572,0.062
22.060,-0.787,0.574,0.062
22.069,-0.789,0.578,0.064
22.079,-0.789,0.578,0.064
22.089,-0.793,0.574,0.064
22.099,-0.793,0.574,0.064
22.109,-0.789,0.576,0.062
22.119,-0.793,0.578,0.061
22.129,-0.793,0.580,0.064
22.139,-0.795,0.582,0.062
22.149,-0.791,0.578,0.064
22.159,-0.787,0.576,0.061
22.169,-0.787,0.576,0.061
22.179,-0.783,0.578,0.062
22.189,-0.791,0.576,0.061
22.199,-0.787,0.572,0.059
22.208,-0.785,0.582,0.062
22.218,-0.781,0.580,0.061
22.228,-0.783,0.578,0.059
22.238,-0.787,0.580,0.061
22.248,-0.791,0.582,0.059
22.258,-0.791,0.584,0.061
22.268,-0.789,0.582,0.061
22.278,-0.789,0.582,0.057
22.288,-0.793,0.584,0.062
22.298,-0.793,0.580,0.062
22.308,-0.795,0.578,0.059
22.318,-0.793,0.578,0.064
22.328,-0.787,0.572,0.064
22.337,-0.789,0.572,0.064
22.347,-0.787,0.572,0.064
22.357,-0.789,0.574,0.068
22.367,-0.789,0.574,0.064
22.377,-0.785,0.578,0.061
22.387,-0.789,0.580,0.064
22.397,-0.787,0.578,0.062
22.407,-0.791,0.582,0.062
22.417,-0.791,0.582,0.066
22.427,-0.789,0.576,0.059
22.437,-0.787,0.580,0.059
22.447,-0.795,0.576,0.061
22.457,-0.795,0.580,0.059
22.467,-0.795,0.578,0.061
22.476,-0.791,0.576,0.059
22.486,-0.787,0.576,0.061
22.496,-0.787,0.582,0.061
22.506,-0.787,0.572,0.062
22.516,-0.787,0.570,0.061
22.526,-0.797,0.572,0.057
22.536,-0.801,0.572,0.062
22.546,-0.797,0.570,0.062
22.556,-0.795,0.570,0.059
22.566,-0.795,0.572,0.061
22.576,-0.799,0.572,0.061
22.586,-0.803,0.574,0.061
22.596,-0.803,0.576,0.062
22.605,-0.803,0.578,0.066
22.615,-0.803,0.568,0.059
22.625,-0.799,0.566,0.064
22.635,-0.795,0.566,0.062
22.645,-0.797,0.564,0.064
22.655,-0.801,0.566,0.070
22.665,-0.803,0.562,0.070
22.675,-0.799,0.562,0.070
22.685,-0.793,0.561,0.064
22.695,-0.797,0.568,0.068
22.705,-0.801,0.572,0.074
22.715,-0.799,0.572,0.068
22.725,-0.791,0.576,0.070
22.735,-0.785,0.574,0.066
22.744,-0.785,0.576,0.066
22.754,-0.783,0.578,0.064
22.764,-0.785,0.574,0.066
22.774,-0.785,0.576,0.064
22.784,-0.791,0.576,0.066
22.794,-0.795,0.574,0.068
22.804,-0.793,0.578,0.064
22.814,-0.793,0.576,0.066
22.824,-0.795,0.578,0.066
22.834,-0.795,0.576,0.061
22.844,-0.793,0.576,0.062
22.854,-0.791,0.580,0.066
22.864,-0.789,0.580,0.064
22.873,-0.785,0.576,0.062
22.883,-0.785,0.572,0.061
22.893,-0.789,0.572,0.059
22.903,-0.785,0.570,0.061
22.913,-0.785,0.570,0.061
22.923,-0.785,0.574,0.061
22.933,-0.787,0.572,0.061
22.943,-0.791,0.578,0.061
22.953,-0.787,0.580,0.059
22.963,-0.789,0.582,0.062
22.973,-0.787,0.580,0.061
22.983,-0.789,0.580,0.062
22.993,-0.789,0.580,0.061
23.003,-0.789,0.582,0.059
23.012,-0.787,0.578,0.061
23.022,-0.795,0.576,0.057
23.032,-0.789,0.580,0.057
23.042,-0.789,0.584,0.055
23.052,-0.785,0.582,0.059
23.062,-0.785,0.584,0.057
23.072,-0.785,0.578,0.055
23.082,-0.787,0.576,0.055
23.092,-0.787,0.574,0.051
23.102,-0.789,0.574,0.055
23.112,-0.787,0.580,0.053
23.122,-0.789,0.588,0.051
23.132,-0.791,0.590,0.049
23.141,-0.791,0.594,0.051
23.151,-0.795,0.590,0.051
23.161,-0.789,0.586,0.053
23.171,-0.789,0.578,0.051
23.181,-0.789,0.578,0.053
23.191,-0.785,0.578,0.051
23.201,-0.787,0.580,0.051
23.211,-0.785,0.582,0.053
23.221,-0.789,0.580,0.055
23.231,-0.789,0.586,0.055
23.241,-0.789,0.582,0.049
23.251,-0.789,0.580,0.055
23.261,-0.789,0.584,0.055
23.270,-0.791,0.582,0.053
23.280,-0.787,0.584,0.059
23.290,-0.789,0.584,0.055
23.300,-0.787,0.582,0.053
23.310,-0.785,0.580,0.055
23.320,-0.787,0.582,0.051
23.330,-0.787,0.576,0.051
23.340,-0.785,0.578,0.051
23.350,-0.783,0.580,0.055
23.360,-0.783,0.580,0.045
23.370,-0.785,0.580,0.049
23.380,-0.785,0.586,0.045
23.390,-0.783,0.584,0.045
23.400,-0.787,0.586,0.045
23.409,-0.787,0.594,0.043
23.419,-0.789,0.592,0.039
23.429,-0.785,0.588,0.039
23.439,-0.785,0.588,0.041
23.449,-0.787,0.588,0.039
23.459,-0.783,0.588,0.043
23.469,-0.787,0.586,0.039
23.479,-0.785,0.588,0.039
23.489,-0.787,0.586,0.037
23.499,-0.787,0.586,0.041
23.509,-0.785,0.586,0.041
23.519,-0.779,0.586,0.039
23.529,-0.781,0.580,0.037
23.538,-0.783,0.582,0.037
23.548,-0.783,0.582,0.039
23.558,-0.783,0.584,0.037
23.568,-0.787,0.586,0.041
23.578,-0.787,0.586,0.043
23.588,-0.791,0.588,0.043
23.598,-0.789,0.596,0.045
23.608,-0.785,0.594,0.047
23.618,-0.783,0.584,0.049
23.628,-0.785,0.578,0.049
23.638,-0.779,0.578,0.049
23.648,-0.781,0.572,0.047
23.658,-0.793,0.574,0.049
23.668,-0.783,0.574,0.047
23.677,-0.781,0.578,0.047
23.687,-0.785,0.584,0.053
23.697,-0.787,0.592,0.053
23.707,-0.781,0.592,0.047
23.717,-0.783,0.590,0.051
23.727,-0.791,0.588,0.051
23.737,-0.795,0.586,0.051
23.747,-0.791,0.578,0.049
23.757,-0.795,0.574,0.051
23.767,-0.793,0.572,0.053
23.777,-0.789,0.566,0.049
23.787,-0.791,0.572,0.051
23.797,-0.793,0.576,0.053
23.806,-0.791,0.578,0.049
23.816,-0.793,0.580,0.057
23.826,-0.785,0.574,0.053
23.836,-0.785,0.576,0.051
23.846,-0.789,0.572,0.049
23.856,-0.789,0.574,0.049
23.866,-0.791,0.576,0.047
23.876,-0.789,0.574,0.045
23.886,-0.793,0.574,0.043
23.896,-0.791,0.580,0.041
23.906,-0.789,0.582,0.041
23.916,-0.781,0.586,0.043
23.926,-0.785,0.596,0.041
23.936,-0.777,0.598,0.045
23.945,-0.775,0.602,0.051
23.955,-0.781,0.600,0.053
23.965,-0.777,0.598,0.051
23.975,-0.781,0.588,0.045
23.985,-0.777,0.576,0.049
23.995,-0.775,0.578,0.045
24.005,-0.775,0.574,0.045
24.015,-0.773,0.574,0.045
24.025,-0.775,0.572,0.043
24.035,-0.785,0.582,0.045
24.045,-0.787,0.590,0.047
24.055,-0.793,0.592,0.045
24.065,-0.795,0.594,0.045
24.074,-0.793,0.590,0.043
24.084,-0.793,0.584,0.041
24.094,-0.793,0.580,0.043
24.104,-0.793,0.572,0.043
24.114,-0.787,0.576,0.041
24.124,-0.789,0.578,0.045
24.134,-0.789,0.580,0.047
24.144,-0.785,0.582,0.045
24.154,-0.791,0.576,0.045
24.164,-0.783,0.586,0.041
24.174,-0.783,0.580,0.045
24.184,-0.787,0.580,0.043
24.194,-0.785,0.580,0.039
24.204,-0.789,0.582,0.039
24.213,-0.789,0.584,0.045
24.223,-0.793,0.590,0.045
24.233,-0.791,0.592,0.049
24.243,-0.791,0.590,0.051
24.253,-0.787,0.590,0.049
24.263,-0.785,0.586,0.051
24.273,-0.783,0.576,0.051
24.283,-0.783,0.570,0.053
24.293,-0.781,0.566,0.045
24.303,-0.781,0.562,0.043
24.313,-0.789,0.564,0.041
24.323,-0.789,0.574,0.041
24.333,-0.787,0.580,0.041
24.342,-0.787,0.588,0.039
24.352,-0.789,0.592,0.045
24.362,-0.793,0.592,0.043
24.372,-0.793,0.580,0.039
24.382,-0.787,0.584,0.043
24.392,-0.791,0.582,0.037
24.402,-0.787,0.578,0.041
24.412,-0.791,0.578,0.039
24.422,-0.791,0.580,0.041
24.432,-0.791,0.580,0.041
24.442,-0.793,0.578,0.037
24.452,-0.791,0.580,0.045
24.462,-0.791,0.580,0.043
24.471,-0.789,0.580,0.047
24.481,-0.791,0.580,0.041
24.491,-0.781,0.580,0.047
24.501,-0.777,0.584,0.043
24.511,-0.779,0.588,0.045
24.521,-0.781,0.582,0.047
24.531,-0.781,0.582,0.051
24.541,-0.779,0.576,0.051
24.551,-0.781,0.576,0.045
24.561,-0.779,0.574,0.047
24.571,-0.787,0.572,0.043
24.581,-0.787,0.572,0.045
24.591,-0.793,0.580,0.043
24.601,-0.797,0.582,0.045
24.610,-0.801,0.584,0.043
24.620,-0.795,0.588,0.045
24.630,-0.795,0.582,0.043
24.640,-0.791,0.578,0.045
24.650,-0.791,0.576,0.047
24.660,-0.793,0.578,0.045
24.670,-0.787,0.576,0.045
24.680,-0.783,0.576,0.051
24.690,-0.781,0.580,0.053
24.700,-0.783,0.576,0.051
24.710,-0.781,0.576,0.053
24.720,-0.785,0.576,0.051
24.730,-0.787,0.584,0.053
24.739,-0.789,0.584,0.053
24.749,-0.787,0.588,0.055
24.759,-0.791,0.584,0.057
24.769,-0.789,0.580,0.055
24.779,-0.787,0.574,0.053
24.789,-0.787,0.576,0.053
24.799,-0.789,0.570,0.051
24.809,-0.785,0.564,0.051
24.819,-0.787,0.568,0.051
24.829,-0.791,0.576,0.049
24.839,-0.789,0.576,0.043
24.849,-0.789,0.580,0.049
24.859,-0.785,0.582,0.045
24.869,-0.791,0.592,0.049
24.878,-0.793,0.594,0.045
24.888,-0.793,0.582,0.043
24.898,-0.787,0.568,0.041
24.908,-0.795,0.572,0.041
24.918,-0.799,0.574,0.043
24.928,-0.797,0.582,0.043
24.938,-0.801,0.582,0.043
24.948,-0.797,0.584,0.045
24.958,-0.793,0.592,0.045
24.968,-0.795,0.590,0.049
24.978,-0.793,0.588,0.047
24.988,-0.791,0.580,0.047
24.998,-0.783,0.582,0.051
25.007,-0.783,0.580,0.051
25.017,-0.781,0.572,0.055
25.027,-0.781,0.568,0.047
25.037,-0.783,0.574,0.047
25.047,-0.783,0.572,0.047
25.057,-0.785,0.576,0.047
25.067,-0.785,0.580,0.045
25.077,-0.783,0.584,0.047
25.087,-0.787,0.586,0.045
25.097,-0.787,0.586,0.039
25.107,-0.791,0.584,0.047
25.117,-0.793,0.582,0.041
25.127,-0.791,0.582,0.041
25.137,-0.793,0.582,0.039
25.146,-0.789,0.582,0.041
25.156,-0.793,0.580,0.039
25.166,-0.793,0.580,0.045
25.176,-0.783,0.586,0.045
25.186,-0.781,0.586,0.051
25.196,-0.777,0.592,0.051
25.206,-0.777,0.592,0.045
25.216,-0.775,0.594,0.049
25.226,-0.773,0.598,0.049
25.236,-0.777,0.596,0.051
25.246,-0.781,0.594,0.051
25.256,-0.787,0.586,0.053
25.266,-0.785,0.580,0.045
25.275,-0.783,0.580,0.045
25.285,-0.793,0.576,0.041
25.295,-0.793,0.578,0.045
25.305,-0.789,0.582,0.043
25.315,-0.791,0.588,0.041
25.325,-0.789,0.584,0.043
25.335,-0.789,0.588,0.049
25.345,-0.787,0.590,0.045
25.355,-0.785,0.588,0.051
25.365,-0.785,0.590,0.049
25.375,-0.781,0.586,0.051
25.385,-0.775,0.584,0.049
25.395,-0.773,0.588,0.051
25.405,-0.771,0.588,0.051
25.414,-0.771,0.586,0.049
25.424,-0.775,0.590,0.047
25.434,-0.779,0.590,0.051
25.444,-0.781,0.594,0.049
25.454,-0.777,0.598,0.053
25.464,-0.779,0.604,0.049
25.474,-0.773,0.604,0.053
25.484,-0.771,0.602,0.047
25.494,-0.770,0.604,0.051
25.504,-0.768,0.594,0.055
25.514,-0.771,0.598,0.053
25.524,-0.768,0.596,0.047
25.534,-0.771,0.596,0.053
25.543,-0.770,0.590,0.051
25.553,-0.770,0.592,0.055
25.563,-0.773,0.596,0.055
25.573,-0.775,0.598,0.051
25.583,-0.770,0.604,0.051
25.593,-0.770,0.602,0.051
25.603,-0.768,0.602,0.049
25.613,-0.775,0.598,0.053
25.623,-0.771,0.596,0.049
25.633,-0.770,0.600,0.049
25.643,-0.760,0.605,0.057
25.653,-0.758,0.609,0.051
25.663,-0.758,0.609,0.049
25.672,-0.758,0.607,0.049
25.682,-0.760,0.602,0.049
25.692,-0.758,0.600,0.045
25.702,-0.754,0.607,0.049
25.712,-0.750,0.611,0.049
25.722,-0.725,0.635,0.062
25.732,-0.688,0.684,0.068
25.742,-0.670,0.686,0.057
25.752,-0.668,0.668,0.039
25.762,-0.670,0.650,0.023
25.772,-0.682,0.631,0.016
25.782,-0.707,0.613,0.008
25.792,-0.725,0.605,0.010
25.802,-0.727,0.613,0.010
25.811,-0.725,0.625,0.008
25.821,-0.725,0.629,0.006
25.831,-0.729,0.623,-0.002
25.841,-0.734,0.611,-0.006
25.851,-0.740,0.605,-0.010
25.861,-0.748,0.605,-0.016
25.871,-0.758,0.600,-0.021
25.881,-0.760,0.602,-0.023
25.891,-0.766,0.594,-0.029
25.901,-0.768,0.594,-0.029
25.911,-0.771,0.602,-0.033
25.921,-0.775,0.604,-0.045
25.931,-0.773,0.604,-0.041
25.940,-0.775,0.607,-0.051
25.950,-0.781,0.598,-0.055
25.960,-0.781,0.596,-0.059
25.970,-0.781,0.592,-0.062
25.980,-0.787,0.598,-0.062
25.990,-0.781,0.604,-0.064
26.000,-0.766,0.619,-0.062
26.010,-0.771,0.631,-0.072
26.020,-0.779,0.635,-0.080
26.030,-0.779,0.629,-0.088
26.040,-0.781,0.617,-0.088
26.050,-0.777,0.617,-0.096
26.060,-0.768,0.621,-0.096
26.070,-0.758,0.627,-0.092
26.079,-0.752,0.631,-0.094
26.089,-0.758,0.629,-0.100
26.099,-0.754,0.621,-0.088
26.109,-0.756,0.629,-0.086
26.119,-0.752,0.631,-0.086
26.129,-0.748,0.627,-0.090
26.139,-0.746,0.637,-0.092
26.149,-0.746,0.641,-0.090
26.159,-0.734,0.641,-0.088
26.169,-0.727,0.648,-0.090
26.179,-0.721,0.650,-0.092
26.189,-0.717,0.656,-0.096
26.199,-0.713,0.664,-0.092
26.208,-0.717,0.660,-0.096
26.218,-0.709,0.656,-0.094
26.228,-0.705,0.668,-0.092
26.238,-0.699,0.668,-0.090
26.248,-0.695,0.654,-0.092
26.258,-0.693,0.662,-0.084
26.268,-0.688,0.682,-0.080
26.278,-0.678,0.672,-0.078
26.288,-0.674,0.662,-0.074
26.298,-0.688,0.664,-0.080
26.308,-0.688,0.656,-0.074
26.318,-0.682,0.660,-0.080
26.328,-0.680,0.664,-0.076
26.338,-0.684,0.668,-0.078
26.347,-0.689,0.674,-0.074
26.357,-0.695,0.678,-0.072
26.367,-0.689,0.674,-0.066
26.377,-0.682,0.684,-0.062
26.387,-0.674,0.680,-0.072
26.397,-0.672,0.695,-0.076
26.407,-0.668,0.705,-0.076
26.417,-0.664,0.705,-0.076
26.427,-0.668,0.701,-0.066
26.437,-0.670,0.695,-0.066
26.447,-0.660,0.697,-0.062
26.457,-0.660,0.701,-0.062
26.467,-0.658,0.703,-0.057
26.476,-0.654,0.703,-0.057
26.486,-0.648,0.711,-0.051
26.496,-0.652,0.711,-0.045
26.506,-0.656,0.709,-0.041
26.516,-0.652,0.709,-0.031
26.526,-0.645,0.709,-0.035
26.536,-0.639,0.709,-0.031
26.546,-0.633,0.713,-0.033
26.556,-0.629,0.719,-0.025
26.566,-0.627,0.715,-0.021
26.576,-0.625,0.711,-0.020
26.586,-0.623,0.707,-0.014
26.596,-0.627,0.711,-0.010
26.606,-0.631,0.715,-0.006
26.615,-0.637,0.719,-0.006
26.625,-0.637,0.713,0.000
26.635,-0.646,0.709,0.004
26.645,-0.654,0.699,0.006
26.655,-0.656,0.705,0.004
26.665,-0.654,0.703,0.004
26.675,-0.650,0.711,0.002
26.685,-0.646,0.719,0.004
26.695,-0.643,0.717,-0.002
26.705,-0.643,0.711,-0.004
26.715,-0.635,0.715,0.002
26.725,-0.625,0.715,0.000
26.735,-0.623,0.727,0.000
26.744,-0.613,0.736,0.000
26.754,-0.611,0.740,-0.004
26.764,-0.613,0.736,-0.002
26.774,-0.613,0.740,-0.004
26.784,-0.617,0.732,0.000
26.794,-0.611,0.729,-0.004
26.804,-0.611,0.732,-0.002
26.814,-0.607,0.734,0.004
26.824,-0.617,0.734,0.002
26.834,-0.619,0.727,0.000
26.844,-0.619,0.730,0.002
26.854,-0.623,0.725,0.002
26.864,-0.615,0.717,0.004
26.873,-0.615,0.721,0.008
26.883,-0.613,0.721,0.010
26.893,-0.613,0.725,0.008
26.903,-0.615,0.730,0.008
26.913,-0.613,0.729,0.008
26.923,-0.611,0.727,0.002
26.933,-0.617,0.727,0.004
26.943,-0.619,0.729,0.002
26.953,-0.623,0.732,0.002
26.963,-0.621,0.730,0.004
26.973,-0.619,0.736,0.002
26.983,-0.627,0.734,0.002
26.993,-0.627,0.727,-0.004
27.003,-0.629,0.725,0.000
27.012,-0.629,0.725,-0.004
27.022,-0.629,0.725,-0.004
27.032,-0.625,0.730,-0.004
27.042,-0.621,0.732,-0.004
27.052,-0.621,0.730,-0.006
27.062,-0.623,0.730,-0.006
27.072,-0.633,0.725,-0.006
27.082,-0.639,0.723,-0.006
27.092,-0.643,0.721,-0.002
27.102,-0.643,0.725,-0.004
27.112,-0.637,0.725,-0.006
27.122,-0.631,0.730,-0.004
27.132,-0.623,0.732,-0.002
27.141,-0.615,0.732,-0.004
27.151,-0.615,0.732,-0.008
27.161,-0.615,0.738,-0.010
27.171,-0.615,0.734,-0.008
27.181,-0.619,0.729,-0.004
27.191,-0.619,0.729,-0.002
27.201,-0.617,0.732,-0.004
27.211,-0.623,0.734,0.000
27.221,-0.623,0.730,0.002
27.231,-0.623,0.729,-0.004
27.241,-0.617,0.729,-0.002
27.251,-0.619,0.730,-0.002
27.261,-0.625,0.734,-0.004
27.271,-0.627,0.729,-0.002
27.280,-0.625,0.729,-0.002
27.290,-0.619,0.734,-0.008
27.300,-0.617,0.734,-0.004
27.310,-0.615,0.736,-0.004
27.320,-0.617,0.742,-0.004
27.330,-0.621,0.736,-0.004
27.340,-0.621,0.732,-0.002
27.350,-0.621,0.732,-0.002
27.360,-0.619,0.730,-0.004
27.370,-0.613,0.734,0.000
27.380,-0.613,0.740,-0.002
27.390,-0.617,0.738,-0.002
27.400,-0.617,0.732,0.000
27.409,-0.617,0.727,-0.004
27.419,-0.615,0.730,0.002
27.429,-0.619,0.730,0.004
27.439,-0.619,0.729,0.004
27.449,-0.617,0.729,0.002
27.459,-0.613,0.730,0.008
27.469,-0.619,0.732,0.004
27.479,-0.615,0.734,0.004
27.489,-0.611,0.736,0.004
27.499,-0.611,0.734,0.006
27.509,-0.615,0.738,0.006
27.519,-0.619,0.736,0.004
27.529,-0.619,0.730,0.004
27.539,-0.615,0.729,0.002
27.548,-0.615,0.732,0.004
27.558,-0.615,0.734,0.006
27.568,-0.613,0.734,0.004
27.578,-0.613,0.738,0.004
27.588,-0.617,0.738,0.006
27.598,-0.621,0.734,0.008
27.608,-0.623,0.732,0.004
27.618,-0.619,0.732,0.006
27.628,-0.619,0.740,0.008
27.638,-0.617,0.738,0.008
27.648,-0.615,0.736,0.006
27.658,-0.613,0.738,0.000
27.668,-0.617,0.736,0.002
27.677,-0.615,0.732,0.002
27.687,-0.615,0.734,0.002
27.697,-0.617,0.736,0.004
27.707,-0.617,0.740,0.006
27.717,-0.617,0.740,0.004
27.727,-0.615,0.736,0.006
27.737,-0.617,0.736,0.002
27.747,-0.619,0.736,0.002
27.757,-0.617,0.734,0.002
27.767,-0.615,0.736,0.006
27.777,-0.611,0.736,0.006
27.787,-0.613,0.732,0.006
27.797,-0.613,0.734,0.010
27.807,-0.617,0.736,0.010
27.816,-0.619,0.738,0.008
27.826,-0.617,0.736,0.008
27.836,-0.617,0.736,0.012
27.846,-0.617,0.734,0.008
27.856,-0.613,0.738,0.004
27.866,-0.615,0.736,0.006
27.876,-0.613,0.736,0.006
27.886,-0.615,0.736,0.010
27.896,-0.621,0.740,0.008
27.906,-0.621,0.738,0.012
27.916,-0.621,0.736,0.008
27.926,-0.623,0.732,0.012
27.936,-0.621,0.730,0.012
27.945,-0.621,0.734,0.010
27.955,-0.619,0.729,0.012
27.965,-0.623,0.732,0.014
27.975,-0.621,0.730,0.016
27.985,-0.625,0.729,0.016
27.995,-0.625,0.727,0.018
28.005,-0.631,0.727,0.018
28.015,-0.629,0.725,0.020
28.025,-0.631,0.723,0.018
28.035,-0.633,0.730,0.016
28.045,-0.631,0.725,0.020
28.055,-0.625,0.727,0.014
28.065,-0.629,0.725,0.014
28.074,-0.629,0.727,0.020
28.084,-0.625,0.725,0.018
28.094,-0.625,0.725,0.018
28.104,-0.627,0.727,0.016
28.114,-0.621,0.730,0.018
28.124,-0.619,0.730,0.016
28.134,-0.617,0.732,0.016
28.144,-0.617,0.732,0.016
28.154,-0.619,0.734,0.016
28.164,-0.619,0.732,0.016
28.174,-0.625,0.729,0.014
28.184,-0.627,0.727,0.018
28.194,-0.623,0.729,0.016
28.204,-0.621,0.732,0.018
28.213,-0.623,0.736,0.016
28.223,-0.623,0.732,0.016
28.233,-0.623,0.730,0.016
28.243,-0.625,0.727,0.016
28.253,-0.627,0.732,0.014
28.263,-0.629,0.732,0.018
28.273,-0.633,0.732,0.018
28.283,-0.629,0.730,0.018
28.293,-0.625,0.732,0.016
28.303,-0.625,0.740,0.012
28.313,-0.627,0.738,0.014
28.323,-0.623,0.736,0.010
28.333,-0.629,0.730,0.008
28.342,-0.633,0.729,0.016
28.352,-0.631,0.721,0.012
28.362,-0.635,0.727,0.018
28.372,-0.639,0.723,0.016
28.382,-0.641,0.725,0.016
28.392,-0.643,0.719,0.021
28.402,-0.645,0.721,0.021
28.412,-0.641,0.721,0.020
28.422,-0.641,0.719,0.023
28.432,-0.635,0.723,0.025
28.442,-0.633,0.725,0.025
28.452,-0.621,0.725,0.023
28.462,-0.617,0.732,0.021
28.472,-0.613,0.736,0.025
28.481,-0.609,0.730,0.021
28.491,-0.607,0.730,0.025
28.501,-0.611,0.729,0.025
28.511,-0.615,0.729,0.029
28.521,-0.617,0.736,0.027
28.531,-0.619,0.736,0.027
28.541,-0.623,0.734,0.025
28.551,-0.621,0.730,0.023
28.561,-0.623,0.730,0.025
28.571,-0.629,0.729,0.023
28.581,-0.629,0.725,0.020
28.591,-0.629,0.730,0.027
28.601,-0.625,0.727,0.025
28.610,-0.625,0.730,0.027
28.620,-0.623,0.734,0.025
28.630,-0.621,0.734,0.023
28.640,-0.619,0.734,0.025
28.650,-0.615,0.732,0.023
28.660,-0.615,0.732,0.023
28.670,-0.611,0.732,0.027
28.680,-0.607,0.736,0.023
28.690,-0.611,0.734,0.029
28.700,-0.607,0.732,0.023
28.710,-0.609,0.730,0.023
28.720,-0.611,0.730,0.021
28.730,-0.613,0.734,0.023
28.740,-0.621,0.734,0.025
28.749,-0.623,0.734,0.023
28.759,-0.629,0.732,0.025
28.769,-0.629,0.730,0.023
28.779,-0.625,0.727,0.021
28.789,-0.627,0.725,0.021
28.799,-0.631,0.729,0.020
28.809,-0.627,0.730,0.023
28.819,-0.619,0.730,0.021
28.829,-0.617,0.730,0.018
28.839,-0.611,0.738,0.018
28.849,-0.611,0.738,0.018
28.859,-0.611,0.734,0.014
28.869,-0.615,0.736,0.018
28.878,-0.617,0.736,0.020
28.888,-0.615,0.736,0.016
28.898,-0.619,0.734,0.016
28.908,-0.619,0.736,0.012
28.918,-0.619,0.738,0.016
28.928,-0.619,0.738,0.014
28.938,-0.621,0.740,0.012
28.948,-0.623,0.742,0.012
28.958,-0.623,0.736,0.010
28.968,-0.627,0.736,0.012
28.978,-0.631,0.732,0.008
28.988,-0.635,0.727,0.012
28.998,-0.639,0.727,0.014
29.008,-0.641,0.732,0.014
29.017,-0.637,0.729,0.018
29.027,-0.631,0.727,0.016
29.037,-0.629,0.732,0.014
29.047,-0.625,0.732,0.018
29.057,-0.623,0.738,0.014
29.067,-0.617,0.736,0.018
29.077,-0.613,0.740,0.020
29.087,-0.611,0.740,0.018
29.097,-0.607,0.736,0.018
29.107,-0.609,0.734,0.018
29.117,-0.607,0.730,0.023
29.127,-0.607,0.734,0.025
29.137,-0.613,0.738,0.025
29.146,-0.611,0.734,0.025
29.156,-0.607,0.740,0.025
29.166,-0.607,0.736,0.027
29.176,-0.605,0.738,0.027
29.186,-0.602,0.746,0.027
29.196,-0.605,0.746,0.027
29.206,-0.609,0.746,0.025
29.216,-0.604,0.748,0.025
29.226,-0.600,0.738,0.023
29.236,-0.607,0.746,0.027
29.246,-0.609,0.746,0.025
29.256,-0.607,0.744,0.025
29.266,-0.602,0.746,0.027
29.275,-0.598,0.744,0.025
29.285,-0.596,0.744,0.023
29.295,-0.596,0.750,0.021
29.305,-0.600,0.750,0.025
29.315,-0.604,0.750,0.025
29.325,-0.600,0.750,0.031
29.335,-0.598,0.748,0.027
29.345,-0.598,0.744,0.027
29.355,-0.594,0.746,0.027
29.365,-0.598,0.746,0.029
29.375,-0.598,0.746,0.035
29.385,-0.602,0.740,0.031
29.395,-0.607,0.742,0.033
29.405,-0.607,0.748,0.035
29.414,-0.609,0.740,0.039
29.424,-0.607,0.738,0.039
29.434,-0.604,0.742,0.037
29.444,-0.604,0.740,0.039
29.454,-0.605,0.744,0.039
29.464,-0.605,0.742,0.037
29.474,-0.600,0.738,0.037
29.484,-0.600,0.738,0.035
29.494,-0.604,0.744,0.039
29.504,-0.604,0.742,0.037
29.514,-0.605,0.738,0.037
29.524,-0.602,0.740,0.041
29.534,-0.602,0.740,0.041
29.543,-0.604,0.744,0.037
29.553,-0.605,0.746,0.041
29.563,-0.604,0.746,0.043
29.573,-0.611,0.746,0.037
29.583,-0.613,0.748,0.041
29.593,-0.615,0.744,0.035
29.603,-0.617,0.740,0.035
29.613,-0.621,0.732,0.033
29.623,-0.621,0.734,0.035
29.633,-0.621,0.732,0.035
29.643,-0.619,0.734,0.043
29.653,-0.621,0.738,0.041
29.663,-0.617,0.740,0.041
29.673,-0.613,0.738,0.043
29.682,-0.617,0.738,0.047
29.692,-0.617,0.734,0.041
29.702,-0.619,0.732,0.037
29.712,-0.613,0.732,0.047
29.722,-0.609,0.734,0.043
29.732,-0.611,0.736,0.041
29.742,-0.604,0.744,0.047
29.752,-0.604,0.744,0.047
29.762,-0.607,0.742,0.043
29.772,-0.602,0.736,0.045
29.782,-0.602,0.738,0.045
29.792,-0.600,0.738,0.049
29.802,-0.600,0.740,0.045
29.811,-0.605,0.738,0.047
29.821,-0.605,0.738,0.049
29.831,-0.607,0.744,0.045
29.841,-0.607,0.740,0.047
29.851,-0.605,0.740,0.045
29.861,-0.609,0.736,0.043
29.871,-0.607,0.736,0.045
29.881,-0.613,0.732,0.045
29.891,-0.615,0.734,0.047
29.901,-0.617,0.730,0.043
29.911,-0.619,0.730,0.043
29.921,-0.619,0.738,0.045
29.931,-0.611,0.736,0.033
29.941,-0.633,0.723,0.053
29.950,-0.639,0.727,0.041
29.960,-0.637,0.730,0.047
29.970,-0.641,0.730,0.043
29.980,-0.633,0.732,0.045
29.990,-0.629,0.730,0.043
30.000,-0.635,0.734,0.045
30.010,-0.629,0.734,0.043
30.020,-0.623,0.736,0.043
30.030,-0.625,0.738,0.045
30.040,-0.619,0.732,0.041
30.050,-0.619,0.734,0.039
30.060,-0.615,0.736,0.039
30.070,-0.621,0.736,0.041
30.079,-0.613,0.736,0.043
30.089,-0.602,0.732,0.035
30.099,-0.621,0.729,0.053
30.109,-0.625,0.730,0.039
30.119,-0.607,0.738,0.049
30.129,-0.604,0.738,0.045
30.139,-0.607,0.734,0.045
30.149,-0.611,0.740,0.047
30.159,-0.604,0.738,0.047
30.169,-0.592,0.744,0.041
30.179,-0.600,0.736,0.049
30.189,-0.613,0.740,0.045
30.199,-0.611,0.738,0.049
30.209,-0.613,0.744,0.049
30.218,-0.615,0.744,0.043
30.228,-0.609,0.744,0.041
30.238,-0.609,0.746,0.043
30.248,-0.600,0.738,0.041
30.258,-0.596,0.734,0.041
30.268,-0.596,0.736,0.039
30.278,-0.596,0.740,0.041
30.288,-0.607,0.748,0.045
30.298,-0.615,0.748,0.045
30.308,-0.619,0.744,0.045
30.318,-0.627,0.742,0.043
30.328,-0.635,0.744,0.043
30.338,-0.633,0.746,0.047
30.347,-0.625,0.746,0.041
30.357,-0.631,0.750,0.043
30.367,-0.623,0.746,0.035
30.377,-0.619,0.750,0.039
30.387,-0.605,0.752,0.033
30.397,-0.598,0.754,0.037
30.407,-0.588,0.760,0.029
30.417,-0.596,0.740,0.041
30.427,-0.604,0.750,0.035
30.437,-0.586,0.758,0.037
30.447,-0.576,0.756,0.037
30.457,-0.572,0.758,0.037
30.467,-0.588,0.750,0.041
30.476,-0.600,0.756,0.037
30.486,-0.570,0.760,0.033
30.496,-0.562,0.760,0.037
30.506,-0.580,0.762,0.037
30.516,-0.576,0.756,0.033
30.526,-0.568,0.760,0.041
30.536,-0.576,0.766,0.041
30.546,-0.584,0.766,0.043
30.556,-0.580,0.768,0.039
30.566,-0.570,0.770,0.031
30.576,-0.570,0.752,0.047
30.586,-0.605,0.762,0.043
30.596,-0.611,0.758,0.045
30.606,-0.598,0.750,0.043
30.615,-0.596,0.744,0.047
30.625,-0.598,0.748,0.043
30.635,-0.586,0.754,0.047
30.645,-0.584,0.758,0.047
30.655,-0.590,0.754,0.047
30.665,-0.588,0.750,0.051
30.675,-0.590,0.750,0.057
30.685,-0.615,0.746,0.059
30.695,-0.588,0.764,0.039
30.705,-0.570,0.758,0.057
30.715,-0.580,0.760,0.051
30.725,-0.604,0.752,0.061
30.735,-0.598,0.746,0.045
30.744,-0.594,0.748,0.053
30.754,-0.590,0.752,0.043
30.764,-0.586,0.758,0.053
30.774,-0.594,0.758,0.053
30.784,-0.596,0.756,0.047
30.794,-0.574,0.752,0.049
30.804,-0.570,0.768,0.047
30.814,-0.562,0.740,0.039
30.824,-0.572,0.750,0.047
30.834,-0.615,0.762,0.049
30.844,-0.631,0.734,0.055
30.854,-0.623,0.742,0.047
30.864,-0.598,0.750,0.049
30.874,-0.600,0.758,0.045
30.883,-0.590,0.756,0.041
30.893,-0.588,0.756,0.051
30.903,-0.594,0.750,0.051
30.913,-0.596,0.756,0.049
30.923,-0.602,0.754,0.057
30.933,-0.602,0.750,0.053
30.943,-0.604,0.748,0.061
30.953,-0.594,0.742,0.059
30.963,-0.586,0.740,0.057
30.973,-0.598,0.744,0.061
30.983,-0.590,0.756,0.059
30.993,-0.582,0.752,0.061
31.003,-0.598,0.746,0.068
31.012,-0.588,0.752,0.051
31.022,-0.572,0.756,0.053
31.032,-0.584,0.750,0.062
31.042,-0.604,0.746,0.066
31.052,-0.592,0.746,0.062
31.062,-0.586,0.766,0.059
31.072,-0.578,0.760,0.055
31.082,-0.580,0.760,0.053
31.092,-0.594,0.752,0.057
31.102,-0.596,0.748,0.062
31.112,-0.598,0.752,0.064
31.122,-0.607,0.752,0.062
31.132,-0.604,0.758,0.061
31.142,-0.592,0.766,0.055
31.151,-0.586,0.756,0.055
31.161,-0.604,0.746,0.055
31.171,-0.611,0.750,0.055
31.181,-0.602,0.752,0.053
31.191,-0.596,0.746,0.059
31.201,-0.594,0.748,0.057
31.211,-0.594,0.756,0.059
31.221,-0.592,0.752,0.055
31.231,-0.584,0.754,0.059
31.241,-0.588,0.758,0.051
31.251,-0.582,0.756,0.049
31.261,-0.578,0.752,0.047
31.271,-0.590,0.754,0.057
31.280,-0.596,0.752,0.053
31.290,-0.596,0.750,0.057
31.300,-0.598,0.746,0.061
31.310,-0.602,0.748,0.057
31.320,-0.596,0.746,0.055
31.330,-0.594,0.740,0.055
31.340,-0.594,0.748,0.057
31.350,-0.600,0.748,0.057
31.360,-0.602,0.752,0.053
31.370,-0.596,0.752,0.059
31.380,-0.598,0.748,0.055
31.390,-0.596,0.748,0.051
31.400,-0.596,0.746,0.051
31.410,-0.600,0.744,0.053
31.419,-0.594,0.756,0.051
31.429,-0.588,0.758,0.053
31.439,-0.588,0.756,0.045
31.449,-0.592,0.756,0.051
31.459,-0.594,0.752,0.049
31.469,-0.594,0.758,0.047
31.479,-0.592,0.756,0.049
31.489,-0.592,0.758,0.049
31.499,-0.596,0.760,0.057
31.509,-0.600,0.760,0.051
31.519,-0.594,0.754,0.057
31.529,-0.594,0.754,0.059
31.539,-0.602,0.748,0.055
31.548,-0.598,0.748,0.051
31.558,-0.590,0.746,0.057
31.568,-0.594,0.750,0.061
31.578,-0.590,0.750,0.059
31.588,-0.582,0.748,0.059
31.598,-0.574,0.748,0.059
31.608,-0.576,0.754,0.059
31.618,-0.578,0.760,0.061
31.628,-0.584,0.746,0.059
31.638,-0.582,0.756,0.059
31.648,-0.584,0.752,0.059
31.658,-0.584,0.750,0.057
31.668,-0.580,0.758,0.059
31.677,-0.582,0.754,0.059
31.687,-0.588,0.754,0.059
31.697,-0.584,0.758,0.057
31.707,-0.582,0.750,0.051
31.717,-0.586,0.754,0.055
31.727,-0.590,0.758,0.049
31.737,-0.590,0.756,0.049
31.747,-0.594,0.756,0.051
31.757,-0.602,0.752,0.053
31.767,-0.605,0.750,0.055
31.777,-0.607,0.748,0.053
31.787,-0.600,0.752,0.049
31.797,-0.596,0.752,0.051
31.807,-0.594,0.758,0.051
31.816,-0.596,0.758,0.053
31.826,-0.590,0.748,0.049
31.836,-0.600,0.750,0.047
31.846,-0.604,0.754,0.051
31.856,-0.600,0.754,0.051
31.866,-0.600,0.750,0.047
31.876,-0.594,0.752,0.051
31.886,-0.588,0.752,0.049
31.896,-0.592,0.754,0.047
31.906,-0.588,0.750,0.047
31.916,-0.586,0.752,0.045
31.926,-0.588,0.756,0.045
31.936,-0.588,0.754,0.047
31.945,-0.596,0.754,0.049
31.955,-0.598,0.756,0.047
31.965,-0.596,0.752,0.051
31.975,-0.596,0.750,0.049
31.985,-0.596,0.750,0.053
31.995,-0.598,0.750,0.053
32.005,-0.592,0.756,0.053
32.015,-0.598,0.754,0.051
32.025,-0.600,0.752,0.047
32.035,-0.598,0.746,0.049
32.045,-0.602,0.752,0.053
32.055,-0.602,0.754,0.053
32.065,-0.602,0.760,0.053
32.075,-0.596,0.756,0.053
32.084,-0.594,0.752,0.049
32.094,-0.590,0.752,0.051
32.104,-0.592,0.754,0.049
32.114,-0.596,0.752,0.047
32.124,-0.592,0.752,0.053
32.134,-0.590,0.750,0.053
32.144,-0.594,0.750,0.047
32.154,-0.596,0.748,0.053
32.164,-0.594,0.750,0.055
32.174,-0.596,0.752,0.055
32.184,-0.596,0.752,0.053
32.194,-0.592,0.750,0.053
32.204,-0.594,0.750,0.053
32.213,-0.592,0.748,0.055
32.223,-0.600,0.746,0.051
32.233,-0.602,0.750,0.055
32.243,-0.598,0.756,0.051
32.253,-0.596,0.754,0.051
32.263,-0.600,0.748,0.055
32.273,-0.600,0.748,0.051
32.283,-0.600,0.742,0.055
32.293,-0.594,0.750,0.057
32.303,-0.592,0.756,0.059
32.313,-0.590,0.754,0.061
32.323,-0.592,0.754,0.057
32.333,-0.588,0.746,0.053
32.343,-0.592,0.748,0.057
32.352,-0.598,0.748,0.055
32.362,-0.604,0.746,0.057
32.372,-0.602,0.750,0.059
32.382,-0.602,0.750,0.059
32.392,-0.602,0.752,0.059
32.402,-0.598,0.750,0.057
32.412,-0.594,0.756,0.061
32.422,-0.596,0.748,0.061
32.432,-0.598,0.750,0.059
32.442,-0.596,0.744,0.055
32.452,-0.594,0.744,0.057
32.462,-0.594,0.742,0.057
32.472,-0.600,0.746,0.057
32.481,-0.600,0.748,0.059
32.491,-0.598,0.746,0.057
32.501,-0.596,0.748,0.053
32.511,-0.596,0.752,0.057
32.521,-0.598,0.750,0.053
32.531,-0.594,0.750,0.053
32.541,-0.598,0.748,0.049
32.551,-0.596,0.748,0.055
32.561,-0.604,0.746,0.055
32.571,-0.596,0.748,0.057
32.581,-0.596,0.748,0.053
32.591,-0.594,0.748,0.057
32.601,-0.594,0.748,0.057
32.611,-0.598,0.744,0.053
32.620,-0.594,0.740,0.057
32.630,-0.596,0.742,0.055
32.640,-0.600,0.744,0.049
32.650,-0.600,0.746,0.055
32.660,-0.600,0.750,0.053
32.670,-0.604,0.750,0.055
32.680,-0.605,0.750,0.053
32.690,-0.607,0.744,0.055
32.700,-0.605,0.748,0.053
32.710,-0.609,0.744,0.057
32.720,-0.605,0.746,0.061
32.730,-0.602,0.744,0.057
32.740,-0.602,0.750,0.053
32.749,-0.600,0.750,0.053
32.759,-0.596,0.746,0.051
32.769,-0.602,0.746,0.049
32.779,-0.607,0.738,0.049
32.789,-0.613,0.734,0.053
32.799,-0.627,0.734,0.053
32.809,-0.633,0.730,0.051
32.819,-0.635,0.734,0.053
32.829,-0.648,0.721,0.051
32.839,-0.666,0.715,0.053
32.849,-0.672,0.717,0.053
32.859,-0.680,0.707,0.053
32.869,-0.682,0.705,0.047
32.878,-0.682,0.707,0.055
32.888,-0.672,0.717,0.055
32.898,-0.656,0.719,0.055
32.908,-0.660,0.707,0.047
32.918,-0.664,0.703,0.041
32.928,-0.660,0.701,0.039
32.938,-0.666,0.697,0.035
32.948,-0.670,0.697,0.029
32.958,-0.684,0.693,0.021
32.968,-0.686,0.701,0.029
32.978,-0.656,0.750,0.049
32.988,-0.629,0.775,0.051
32.998,-0.617,0.771,0.043
33.008,-0.617,0.754,0.033
33.017,-0.604,0.744,0.035
33.027,-0.609,0.725,0.025
33.037,-0.623,0.709,0.023
33.047,-0.625,0.719,0.037
33.057,-0.615,0.750,0.053
33.067,-0.600,0.766,0.057
33.077,-0.578,0.785,0.059
33.087,-0.568,0.791,0.059
33.097,-0.561,0.773,0.051
33.107,-0.551,0.762,0.051
33.117,-0.553,0.750,0.047
33.127,-0.566,0.738,0.043
33.137,-0.584,0.730,0.043
33.146,-0.602,0.729,0.045
33.156,-0.604,0.734,0.057
33.166,-0.580,0.775,0.066
33.176,-0.566,0.783,0.076
33.186,-0.561,0.777,0.074
33.196,-0.545,0.787,0.078
33.206,-0.533,0.779,0.078
33.216,-0.541,0.766,0.072
33.226,-0.553,0.754,0.072
33.236,-0.568,0.750,0.068
33.246,-0.576,0.744,0.070
33.256,-0.564,0.768,0.078
33.266,-0.547,0.775,0.080
33.276,-0.549,0.775,0.078
33.285,-0.551,0.770,0.076
33.295,-0.557,0.768,0.074
33.305,-0.562,0.764,0.070
33.315,-0.572,0.758,0.068
33.325,-0.584,0.752,0.064
33.335,-0.586,0.756,0.070
33.345,-0.582,0.762,0.072
33.355,-0.580,0.760,0.076
33.365,-0.566,0.758,0.074
33.375,-0.562,0.766,0.078
33.385,-0.562,0.764,0.074
33.395,-0.568,0.762,0.074
33.405,-0.574,0.760,0.074
33.414,-0.582,0.754,0.070
33.424,-0.590,0.756,0.072
33.434,-0.598,0.754,0.070
33.444,-0.596,0.754,0.074
33.454,-0.586,0.754,0.076
33.464,-0.586,0.760,0.074
33.474,-0.586,0.764,0.078
33.484,-0.584,0.760,0.074
33.494,-0.580,0.764,0.074
33.504,-0.584,0.758,0.076
33.514,-0.584,0.756,0.074
33.524,-0.588,0.762,0.076
33.534,-0.586,0.760,0.074
33.544,-0.580,0.758,0.076
33.553,-0.576,0.754,0.076
33.563,-0.576,0.752,0.078
33.573,-0.576,0.752,0.078
33.583,-0.578,0.752,0.078
33.593,-0.578,0.754,0.078
33.603,-0.582,0.760,0.078
33.613,-0.586,0.758,0.082
33.623,-0.590,0.760,0.084
33.633,-0.594,0.754,0.082
33.643,-0.596,0.756,0.080
33.653,-0.596,0.754,0.078
33.663,-0.602,0.750,0.082
33.673,-0.604,0.748,0.082
33.682,-0.607,0.746,0.084
33.692,-0.613,0.746,0.078
33.702,-0.613,0.740,0.076
33.712,-0.613,0.738,0.076
33.722,-0.615,0.740,0.084
33.732,-0.611,0.742,0.084
33.742,-0.605,0.742,0.090
33.752,-0.604,0.744,0.088
33.762,-0.602,0.742,0.088
33.772,-0.605,0.746,0.086
33.782,-0.607,0.738,0.086
33.792,-0.607,0.736,0.090
33.802,-0.605,0.740,0.086
33.812,-0.607,0.736,0.086
33.821,-0.604,0.740,0.086
33.831,-0.602,0.742,0.088
33.841,-0.596,0.746,0.088
33.851,-0.598,0.748,0.088
33.861,-0.592,0.740,0.086
33.871,-0.596,0.746,0.088
33.881,-0.596,0.744,0.090
33.891,-0.596,0.744,0.088
33.901,-0.598,0.744,0.086
33.911,-0.600,0.738,0.084
33.921,-0.602,0.744,0.086
33.931,-0.602,0.748,0.086
33.941,-0.602,0.750,0.080
33.950,-0.605,0.756,0.082
33.960,-0.605,0.752,0.082
33.970,-0.605,0.748,0.084
33.980,-0.611,0.744,0.082
33.990,-0.611,0.744,0.080
34.000,-0.607,0.750,0.084
34.010,-0.604,0.744,0.084
34.020,-0.602,0.748,0.084
34.030,-0.592,0.750,0.084
34.040,-0.594,0.750,0.084
34.050,-0.594,0.750,0.082
34.060,-0.598,0.748,0.086
34.070,-0.598,0.750,0.086
34.079,-0.598,0.746,0.086
34.089,-0.596,0.746,0.084
34.099,-0.596,0.750,0.084
34.109,-0.594,0.750,0.084
34.119,-0.594,0.746,0.086
34.129,-0.594,0.748,0.088
34.139,-0.588,0.748,0.088
34.149,-0.592,0.746,0.086
34.159,-0.586,0.736,0.084
34.169,-0.584,0.744,0.084
34.179,-0.590,0.750,0.090
34.189,-0.594,0.750,0.080
34.199,-0.598,0.750,0.080
34.209,-0.604,0.750,0.080
34.218,-0.605,0.750,0.084
34.228,-0.605,0.746,0.082
34.238,-0.602,0.748,0.080
34.248,-0.596,0.752,0.082
34.258,-0.594,0.750,0.080
34.268,-0.598,0.748,0.080
34.278,-0.600,0.748,0.076
34.288,-0.600,0.746,0.078
34.298,-0.607,0.744,0.080
34.308,-0.609,0.746,0.080
34.318,-0.607,0.746,0.078
34.328,-0.605,0.750,0.082
34.338,-0.602,0.750,0.080
34.347,-0.602,0.748,0.078
34.357,-0.596,0.754,0.078
34.367,-0.602,0.752,0.080
34.377,-0.604,0.750,0.080
34.387,-0.605,0.748,0.080
34.397,-0.604,0.746,0.080
34.407,-0.604,0.744,0.082
34.417,-0.604,0.746,0.080
34.427,-0.604,0.746,0.078
34.437,-0.604,0.744,0.080
34.447,-0.605,0.746,0.076
34.457,-0.607,0.748,0.078
34.467,-0.609,0.752,0.082
34.477,-0.600,0.746,0.080
34.486,-0.605,0.744,0.082
34.496,-0.605,0.750,0.084
34.506,-0.602,0.752,0.086
34.516,-0.600,0.752,0.084
34.526,-0.600,0.746,0.080
34.536,-0.600,0.746,0.080
34.546,-0.598,0.744,0.082
34.556,-0.594,0.746,0.084
34.566,-0.590,0.750,0.084
34.576,-0.586,0.752,0.084
34.586,-0.582,0.754,0.082
34.596,-0.584,0.756,0.080
34.606,-0.584,0.752,0.084
34.615,-0.590,0.754,0.082
34.625,-0.594,0.754,0.084
34.635,-0.594,0.756,0.080
34.645,-0.592,0.754,0.084
34.655,-0.592,0.754,0.086
34.665,-0.590,0.760,0.086
34.675,-0.592,0.758,0.084
34.685,-0.592,0.758,0.082
34.695,-0.590,0.752,0.080
34.705,-0.588,0.746,0.082
34.715,-0.592,0.754,0.088
34.725,-0.588,0.750,0.082
34.735,-0.586,0.748,0.082
34.745,-0.592,0.744,0.082
34.754,-0.592,0.752,0.084
34.764,-0.588,0.760,0.084
34.774,-0.588,0.766,0.084
34.784,-0.590,0.762,0.082
34.794,-0.590,0.764,0.084
34.804,-0.590,0.766,0.082
34.814,-0.588,0.768,0.090
34.824,-0.580,0.768,0.088
34.834,-0.578,0.770,0.084
34.844,-0.570,0.766,0.090
34.854,-0.568,0.766,0.090
34.864,-0.559,0.766,0.088
34.874,-0.555,0.766,0.090
34.883,-0.553,0.764,0.092
34.893,-0.553,0.762,0.094
34.903,-0.553,0.764,0.092
34.913,-0.553,0.764,0.090
34.923,-0.555,0.764,0.092
34.933,-0.561,0.760,0.094
34.943,-0.564,0.764,0.092
34.953,-0.564,0.762,0.094
34.963,-0.570,0.760,0.094
34.973,-0.576,0.758,0.092
34.983,-0.582,0.760,0.096
34.993,-0.586,0.756,0.092
35.003,-0.584,0.762,0.090
35.013,-0.586,0.760,0.092
35.022,-0.588,0.758,0.092
35.032,-0.584,0.762,0.090
35.042,-0.580,0.762,0.086
35.052,-0.584,0.762,0.088
35.062,-0.586,0.764,0.088
35.072,-0.584,0.762,0.086
35.082,-0.582,0.762,0.088
35.092,-0.576,0.764,0.088
35.102,-0.570,0.770,0.092
35.112,-0.568,0.771,0.090
35.122,-0.566,0.770,0.090
35.132,-0.566,0.768,0.088
35.142,-0.568,0.770,0.086
35.151,-0.568,0.768,0.092
35.161,-0.570,0.764,0.090
35.171,-0.568,0.766,0.088
35.181,-0.564,0.758,0.088
35.191,-0.566,0.760,0.088
35.201,-0.566,0.768,0.090
35.211,-0.566,0.768,0.086
35.221,-0.570,0.762,0.088
35.231,-0.572,0.764,0.082
35.241,-0.572,0.758,0.086
35.251,-0.574,0.758,0.086
35.261,-0.578,0.766,0.084
35.271,-0.578,0.756,0.080
35.280,-0.574,0.766,0.080
35.290,-0.580,0.770,0.082
35.300,-0.582,0.766,0.080
35.310,-0.584,0.764,0.082
35.320,-0.584,0.770,0.084
35.330,-0.580,0.764,0.088
35.340,-0.580,0.764,0.084
35.350,-0.578,0.766,0.084
35.360,-0.578,0.758,0.086
35.370,-0.574,0.756,0.084
35.380,-0.574,0.758,0.088
35.390,-0.572,0.758,0.086
35.400,-0.570,0.758,0.086
35.410,-0.570,0.762,0.084
35.419,-0.564,0.766,0.088
35.429,-0.562,0.768,0.084
35.439,-0.564,0.771,0.084
35.449,-0.562,0.770,0.082
35.459,-0.559,0.771,0.086
35.469,-0.561,0.775,0.082
35.479,-0.559,0.775,0.080
35.489,-0.555,0.773,0.088
35.499,-0.545,0.783,0.086
35.509,-0.529,0.791,0.086
35.519,-0.521,0.803,0.086
35.529,-0.508,0.797,0.084
35.539,-0.494,0.795,0.084
35.548,-0.484,0.799,0.078
35.558,-0.475,0.816,0.078
35.568,-0.469,0.814,0.074
35.578,-0.467,0.809,0.066
35.588,-0.461,0.809,0.062
35.598,-0.463,0.809,0.053
35.608,-0.471,0.809,0.051
35.618,-0.477,0.801,0.037
35.628,-0.488,0.799,0.033
35.638,-0.494,0.801,0.025
35.648,-0.488,0.805,0.023
35.658,-0.494,0.799,0.023
35.668,-0.500,0.799,0.012
35.678,-0.504,0.805,0.010
35.687,-0.504,0.795,0.000
35.697,-0.504,0.783,-0.004
35.707,-0.523,0.785,-0.008
35.717,-0.535,0.787,-0.008
35.727,-0.539,0.793,-0.012
35.737,-0.547,0.787,-0.010
35.747,-0.561,0.787,-0.004
35.757,-0.564,0.787,-0.014
35.767,-0.572,0.781,-0.018
35.777,-0.580,0.771,-0.021
35.787,-0.596,0.770,-0.020
35.797,-0.605,0.770,-0.023
35.807,-0.615,0.762,-0.020
35.816,-0.617,0.754,-0.020
35.826,-0.615,0.744,-0.018
35.836,-0.629,0.752,-0.010
35.846,-0.639,0.762,-0.002
35.856,-0.641,0.750,0.000
35.866,-0.645,0.742,0.006
35.876,-0.646,0.736,0.010
35.886,-0.648,0.734,0.018
35.896,-0.648,0.736,0.021
35.906,-0.643,0.748,0.029
35.916,-0.633,0.754,0.035
35.926,-0.627,0.760,0.043
35.936,-0.615,0.766,0.047
35.946,-0.607,0.766,0.051
35.955,-0.600,0.768,0.053
35.965,-0.598,0.770,0.053
35.975,-0.586,0.768,0.053
35.985,-0.570,0.764,0.051
35.995,-0.557,0.764,0.055
36.005,-0.553,0.770,0.061
36.015,-0.555,0.770,0.061
36.025,-0.553,0.771,0.061
36.035,-0.549,0.770,0.066
36.045,-0.543,0.773,0.070
36.055,-0.541,0.779,0.074
36.065,-0.539,0.785,0.072
36.075,-0.539,0.781,0.070
36.084,-0.539,0.779,0.072
36.094,-0.533,0.775,0.068
36.104,-0.535,0.779,0.072
36.114,-0.537,0.777,0.076
36.124,-0.549,0.779,0.078
36.134,-0.551,0.783,0.080
36.144,-0.553,0.783,0.074
36.154,-0.551,0.779,0.072
36.164,-0.547,0.783,0.072
36.174,-0.553,0.787,0.070
36.184,-0.557,0.785,0.066
36.194,-0.555,0.777,0.070
36.204,-0.561,0.775,0.070
36.214,-0.557,0.775,0.074
36.223,-0.555,0.773,0.076
36.233,-0.547,0.773,0.082
36.243,-0.539,0.777,0.080
36.253,-0.543,0.777,0.082
36.263,-0.541,0.781,0.078
36.273,-0.549,0.785,0.078
36.283,-0.553,0.785,0.076
36.293,-0.559,0.779,0.072
36.303,-0.562,0.775,0.072
36.313,-0.557,0.773,0.072
36.323,-0.555,0.770,0.072
36.333,-0.549,0.775,0.078
36.343,-0.547,0.783,0.076
36.352,-0.551,0.779,0.072
36.362,-0.557,0.773,0.070
36.372,-0.562,0.764,0.064
36.382,-0.570,0.756,0.064
36.392,-0.568,0.758,0.074
36.402,-0.566,0.760,0.082
36.412,-0.557,0.773,0.082
36.422,-0.551,0.803,0.088
36.432,-0.541,0.807,0.078
36.442,-0.539,0.797,0.070
36.452,-0.545,0.791,0.061
36.462,-0.545,0.775,0.055
36.472,-0.553,0.766,0.047
36.481,-0.559,0.768,0.057
36.491,-0.557,0.775,0.061
36.501,-0.551,0.783,0.070
36.511,-0.539,0.793,0.074
36.521,-0.531,0.799,0.068
36.531,-0.525,0.799,0.068
36.541,-0.523,0.793,0.062
36.551,-0.520,0.789,0.061
36.561,-0.521,0.789,0.061
36.571,-0.520,0.791,0.055
36.581,-0.518,0.787,0.055
36.591,-0.516,0.791,0.055
36.601,-0.514,0.799,0.055
36.611,-0.506,0.801,0.057
36.620,-0.502,0.801,0.055
36.630,-0.508,0.801,0.053
36.640,-0.516,0.797,0.053
36.650,-0.521,0.793,0.051
36.660,-0.527,0.789,0.047
36.670,-0.535,0.777,0.047
36.680,-0.551,0.775,0.049
36.690,-0.553,0.771,0.051
36.700,-0.545,0.777,0.059
36.710,-0.549,0.779,0.057
36.720,-0.551,0.783,0.061
36.730,-0.549,0.775,0.059
36.740,-0.555,0.779,0.055
36.749,-0.562,0.779,0.053
36.759,-0.564,0.771,0.051
36.769,-0.564,0.770,0.049
36.779,-0.568,0.771,0.053
36.789,-0.559,0.775,0.057
36.799,-0.559,0.775,0.055
36.809,-0.559,0.770,0.055
36.819,-0.564,0.770,0.061
36.829,-0.570,0.764,0.051
36.839,-0.576,0.756,0.045
36.849,-0.588,0.744,0.043
36.859,-0.600,0.734,0.047
36.869,-0.592,0.744,0.047
36.879,-0.576,0.760,0.053
36.888,-0.566,0.766,0.047
36.898,-0.574,0.754,0.039
36.908,-0.586,0.744,0.027
36.918,-0.613,0.721,0.020
36.928,-0.625,0.711,0.006
36.938,-0.625,0.723,0.025
36.948,-0.613,0.758,0.037
36.958,-0.602,0.787,0.041
36.968,-0.600,0.793,0.037
36.978,-0.604,0.779,0.029
36.988,-0.623,0.756,0.008
36.998,-0.654,0.721,-0.008
37.008,-0.658,0.689,-0.023
37.017,-0.643,0.715,0.002
37.027,-0.611,0.781,0.023
37.037,-0.580,0.803,0.014
37.047,-0.564,0.799,-0.002
37.057,-0.564,0.779,-0.020
37.067,-0.584,0.744,-0.033
37.077,-0.627,0.723,-0.041
37.087,-0.643,0.707,-0.031
37.097,-0.639,0.717,-0.016
37.107,-0.623,0.760,-0.010
37.117,-0.619,0.773,-0.006
37.127,-0.629,0.766,-0.014
37.137,-0.641,0.742,-0.020
37.147,-0.656,0.730,-0.018
37.156,-0.635,0.750,-0.010
37.166,-0.604,0.760,-0.004
37.176,-0.564,0.781,0.018
37.186,-0.523,0.816,0.033
37.196,-0.514,0.803,0.023
37.206,-0.521,0.777,0.012
37.216,-0.537,0.742,0.002
37.226,-0.551,0.725,0.000
37.236,-0.561,0.723,0.008
37.246,-0.555,0.748,0.018
37.256,-0.559,0.762,0.023
37.266,-0.549,0.783,0.031
37.276,-0.547,0.789,0.035
37.285,-0.549,0.783,0.025
37.295,-0.559,0.771,0.027
37.305,-0.574,0.748,0.020
37.315,-0.588,0.738,0.016
37.325,-0.590,0.738,0.023
37.335,-0.584,0.758,0.029
37.345,-0.570,0.762,0.039
37.355,-0.568,0.762,0.033
37.365,-0.566,0.768,0.033
37.375,-0.566,0.766,0.031
37.385,-0.570,0.768,0.029
37.395,-0.568,0.766,0.021
37.405,-0.572,0.762,0.023
37.415,-0.572,0.756,0.020
37.424,-0.572,0.760,0.023
37.434,-0.570,0.762,0.023
37.444,-0.570,0.764,0.025
37.454,-0.568,0.764,0.027
37.464,-0.570,0.766,0.027
37.474,-0.568,0.758,0.023
37.484,-0.564,0.756,0.023
37.494,-0.559,0.756,0.023
37.504,-0.559,0.760,0.021
37.514,-0.559,0.760,0.021
37.524,-0.559,0.762,0.025
37.534,-0.555,0.766,0.025
37.544,-0.549,0.764,0.027
37.553,-0.551,0.770,0.023
37.563,-0.549,0.771,0.021
37.573,-0.551,0.771,0.016
37.583,-0.559,0.762,0.012
37.593,-0.570,0.752,0.010
37.603,-0.570,0.752,0.006
37.613,-0.568,0.754,0.010
37.623,-0.564,0.758,0.004
37.633,-0.566,0.758,0.004
37.643,-0.568,0.754,-0.002
37.653,-0.568,0.756,0.002
37.663,-0.572,0.752,0.000
37.673,-0.568,0.744,-0.004
37.682,-0.578,0.738,-0.006
37.692,-0.572,0.740,-0.012
37.702,-0.572,0.736,-0.018
37.712,-0.576,0.736,-0.027
37.722,-0.576,0.742,-0.031
37.732,-0.578,0.746,-0.033
37.742,-0.582,0.744,-0.039
37.752,-0.588,0.748,-0.043
37.762,-0.596,0.758,-0.057
37.772,-0.602,0.756,-0.053
37.782,-0.609,0.760,-0.055
37.792,-0.613,0.762,-0.057
37.802,-0.615,0.770,-0.059
37.812,-0.613,0.773,-0.059
37.821,-0.619,0.768,-0.059
37.831,-0.615,0.748,-0.059
37.841,-0.607,0.736,-0.066
37.851,-0.607,0.746,-0.064
37.861,-0.613,0.752,-0.057
37.871,-0.613,0.744,-0.059
37.881,-0.613,0.742,-0.061
37.891,-0.621,0.738,-0.059
37.901,-0.625,0.732,-0.057
37.911,-0.635,0.734,-0.055
37.921,-0.643,0.732,-0.057
37.931,-0.645,0.723,-0.059
37.941,-0.646,0.729,-0.059
37.950,-0.654,0.730,-0.059
37.960,-0.668,0.723,-0.057
37.970,-0.670,0.721,-0.057
37.980,-0.676,0.717,-0.051
37.990,-0.658,0.717,-0.051
38.000,-0.658,0.709,-0.047
38.010,-0.662,0.697,-0.049
38.020,-0.662,0.697,-0.047
38.030,-0.654,0.693,-0.041
38.040,-0.650,0.695,-0.045
38.050,-0.650,0.693,-0.041
38.060,-0.656,0.688,-0.039
38.070,-0.658,0.678,-0.043
38.080,-0.660,0.670,-0.051
38.089,-0.668,0.666,-0.045
38.099,-0.676,0.668,-0.045
38.109,-0.680,0.666,-0.047
38.119,-0.682,0.670,-0.043
38.129,-0.682,0.674,-0.043
38.139,-0.691,0.674,-0.041
38.149,-0.693,0.672,-0.037
38.159,-0.691,0.670,-0.037
38.169,-0.689,0.676,-0.039
38.179,-0.693,0.672,-0.039
38.189,-0.691,0.664,-0.039
38.199,-0.688,0.654,-0.043
38.209,-0.693,0.654,-0.047
38.218,-0.691,0.656,-0.045
38.228,-0.689,0.654,-0.043
38.238,-0.699,0.648,-0.047
38.248,-0.705,0.648,-0.043
38.258,-0.703,0.654,-0.043
38.268,-0.701,0.648,-0.045
38.278,-0.701,0.650,-0.047
38.288,-0.701,0.648,-0.051
38.298,-0.703,0.650,-0.053
38.308,-0.703,0.650,-0.061
38.318,-0.703,0.648,-0.061
38.328,-0.703,0.648,-0.068
38.338,-0.701,0.650,-0.064
38.348,-0.703,0.646,-0.066
38.357,-0.705,0.652,-0.074
38.367,-0.691,0.658,-0.076
38.377,-0.693,0.656,-0.082
38.387,-0.701,0.652,-0.084
38.397,-0.705,0.660,-0.084
38.407,-0.709,0.662,-0.084
38.417,-0.711,0.656,-0.082
38.427,-0.717,0.646,-0.086
38.437,-0.719,0.639,-0.084
38.447,-0.727,0.629,-0.080
38.457,-0.734,0.627,-0.086
38.467,-0.730,0.627,-0.086
38.477,-0.734,0.613,-0.088
38.486,-0.736,0.611,-0.088
38.496,-0.732,0.609,-0.080
38.506,-0.750,0.604,-0.078
38.516,-0.775,0.609,-0.074
38.526,-0.777,0.598,-0.080
38.536,-0.773,0.588,-0.080
38.546,-0.781,0.580,-0.084
38.556,-0.789,0.576,-0.084
38.566,-0.797,0.578,-0.076
38.576,-0.805,0.588,-0.076
38.586,-0.783,0.588,-0.084
38.596,-0.771,0.598,-0.082
38.606,-0.781,0.605,-0.078
38.616,-0.779,0.607,-0.078
38.625,-0.773,0.584,-0.084
38.635,-0.779,0.576,-0.080
38.645,-0.775,0.586,-0.080
38.655,-0.771,0.600,-0.082
38.665,-0.770,0.600,-0.088
38.675,-0.768,0.605,-0.086
38.685,-0.758,0.613,-0.086
38.695,-0.750,0.609,-0.082
38.705,-0.754,0.605,-0.080
38.715,-0.742,0.598,-0.082
38.725,-0.730,0.594,-0.088
38.735,-0.732,0.594,-0.086
38.745,-0.738,0.602,-0.088
38.754,-0.740,0.613,-0.082
38.764,-0.756,0.621,-0.084
38.774,-0.758,0.611,-0.092
38.784,-0.754,0.592,-0.104
38.794,-0.744,0.574,-0.117
38.804,-0.748,0.564,-0.125
38.814,-0.750,0.564,-0.131
38.824,-0.762,0.580,-0.129
38.834,-0.768,0.586,-0.135
38.844,-0.756,0.586,-0.145
38.854,-0.756,0.586,-0.150
38.864,-0.758,0.584,-0.160
38.874,-0.756,0.586,-0.164
38.883,-0.764,0.588,-0.162
38.893,-0.764,0.578,-0.164
38.903,-0.775,0.588,-0.166
38.913,-0.773,0.598,-0.160
38.923,-0.768,0.609,-0.162
38.933,-0.773,0.602,-0.152
38.943,-0.781,0.605,-0.154
38.953,-0.785,0.592,-0.160
38.963,-0.787,0.588,-0.158
38.973,-0.791,0.580,-0.152
38.983,-0.785,0.578,-0.154
38.993,-0.789,0.574,-0.150
39.003,-0.789,0.572,-0.152
39.013,-0.797,0.582,-0.150
39.022,-0.783,0.572,-0.145
39.032,-0.797,0.566,-0.145
39.042,-0.809,0.559,-0.143
39.052,-0.801,0.561,-0.137
39.062,-0.791,0.553,-0.137
39.072,-0.801,0.551,-0.131
39.082,-0.801,0.555,-0.127
39.092,-0.795,0.555,-0.123
39.102,-0.799,0.561,-0.121
39.112,-0.795,0.561,-0.123
39.122,-0.781,0.547,-0.129
39.132,-0.775,0.543,-0.133
39.142,-0.773,0.537,-0.133
39.151,-0.779,0.539,-0.131
39.161,-0.785,0.555,-0.129
39.171,-0.779,0.562,-0.125
39.181,-0.783,0.559,-0.131
39.191,-0.781,0.553,-0.131
39.201,-0.779,0.557,-0.135
39.211,-0.783,0.564,-0.135
39.221,-0.791,0.564,-0.129
39.231,-0.791,0.562,-0.129
39.241,-0.789,0.570,-0.127
39.251,-0.785,0.580,-0.131
39.261,-0.771,0.584,-0.137
39.271,-0.773,0.586,-0.137
39.281,-0.773,0.566,-0.145
39.290,-0.768,0.566,-0.148
39.300,-0.758,0.586,-0.152
39.310,-0.766,0.590,-0.145
39.320,-0.771,0.596,-0.135
39.330,-0.770,0.602,-0.131
39.340,-0.766,0.615,-0.127
39.350,-0.758,0.627,-0.135
39.360,-0.744,0.631,-0.137
39.370,-0.734,0.629,-0.135
39.380,-0.723,0.623,-0.141
39.390,-0.729,0.615,-0.139
39.400,-0.732,0.607,-0.135
39.410,-0.742,0.602,-0.137
39.419,-0.752,0.609,-0.135
39.429,-0.758,0.615,-0.133
39.439,-0.764,0.619,-0.129
39.449,-0.760,0.615,-0.129
39.459,-0.760,0.615,-0.125
39.469,-0.768,0.605,-0.121
39.479,-0.773,0.604,-0.119
39.489,-0.762,0.609,-0.117
39.499,-0.758,0.605,-0.119
39.509,-0.766,0.609,-0.115
39.519,-0.760,0.617,-0.111
39.529,-0.746,0.621,-0.100
39.539,-0.746,0.627,-0.100
39.549,-0.736,0.639,-0.090
39.558,-0.723,0.652,-0.090
39.568,-0.721,0.656,-0.090
39.578,-0.719,0.658,-0.092
39.588,-0.719,0.658,-0.094
39.598,-0.709,0.658,-0.082
39.608,-0.697,0.662,-0.074
39.618,-0.689,0.668,-0.066
39.628,-0.678,0.670,-0.062
39.638,-0.674,0.676,-0.066
39.648,-0.658,0.691,-0.066
39.658,-0.650,0.695,-0.076
39.668,-0.621,0.693,-0.080
39.678,-0.641,0.684,-0.066
39.687,-0.666,0.703,-0.072
39.697,-0.643,0.676,-0.061
39.707,-0.639,0.682,-0.055
39.717,-0.645,0.711,-0.051
39.727,-0.643,0.723,-0.041
39.737,-0.639,0.736,-0.039
39.747,-0.645,0.734,-0.041
39.757,-0.643,0.732,-0.037
39.767,-0.643,0.721,-0.039
39.777,-0.639,0.719,-0.039
39.787,-0.639,0.717,-0.029
39.797,-0.615,0.738,-0.023
39.807,-0.600,0.742,-0.010
39.817,-0.607,0.754,-0.002
39.826,-0.605,0.754,0.000
39.836,-0.598,0.746,0.002
39.846,-0.600,0.738,0.000
39.856,-0.588,0.725,0.000
39.866,-0.582,0.713,0.000
39.876,-0.580,0.721,0.004
39.886,-0.574,0.734,0.006
39.896,-0.562,0.754,0.008
39.906,-0.549,0.768,0.008
39.916,-0.541,0.773,0.006
39.926,-0.533,0.777,0.006
39.936,-0.525,0.779,0.002
39.946,-0.518,0.783,0.006
39.955,-0.508,0.789,0.002
39.965,-0.504,0.783,0.010
39.975,-0.514,0.783,0.010
39.985,-0.510,0.787,0.006
39.995,-0.504,0.793,0.014
40.005,-0.504,0.795,0.012
40.015,-0.502,0.801,0.016
40.025,-0.498,0.797,0.016
40.035,-0.492,0.789,0.012
40.045,-0.492,0.791,0.012
40.055,-0.488,0.793,0.008
40.065,-0.482,0.801,0.014
40.075,-0.480,0.828,0.025
40.084,-0.484,0.863,0.027
40.094,-0.490,0.881,0.043
40.104,-0.492,0.840,0.049
40.114,-0.465,0.779,0.023
40.124,-0.436,0.803,0.025
40.134,-0.424,0.787,0.023
40.144,-0.424,0.779,0.008
40.154,-0.432,0.811,0.010
40.164,-0.441,0.836,0.012
40.174,-0.459,0.863,0.014
40.184,-0.473,0.889,0.023
40.194,-0.480,0.859,0.031
40.204,-0.467,0.834,0.020
40.214,-0.447,0.836,0.023
40.223,-0.449,0.816,0.016
40.233,-0.453,0.787,0.014
40.243,-0.459,0.785,0.012
40.253,-0.479,0.797,0.012
40.263,-0.496,0.791,0.012
40.273,-0.502,0.811,0.010
40.283,-0.508,0.816,0.012
40.293,-0.512,0.797,0.008
40.303,-0.508,0.793,0.004
40.313,-0.520,0.781,0.004
40.323,-0.520,0.760,0.002
40.333,-0.518,0.768,-0.004
40.343,-0.510,0.781,-0.012
40.352,-0.512,0.795,-0.020
40.362,-0.520,0.799,-0.023
40.372,-0.525,0.807,-0.021
40.382,-0.529,0.795,-0.025
40.392,-0.527,0.803,-0.027
40.402,-0.527,0.809,-0.021
40.412,-0.523,0.807,-0.023
40.422,-0.527,0.816,-0.029
40.432,-0.531,0.818,-0.029
40.442,-0.533,0.807,-0.033
40.452,-0.541,0.797,-0.033
40.462,-0.551,0.789,-0.025
40.472,-0.555,0.770,-0.031
40.482,-0.551,0.754,-0.029
40.491,-0.545,0.762,-0.029
40.501,-0.553,0.771,-0.029
40.511,-0.561,0.764,-0.031
40.521,-0.566,0.771,-0.029
40.531,-0.576,0.775,-0.021
40.541,-0.590,0.771,-0.020
40.551,-0.611,0.750,-0.016
40.561,-0.615,0.742,-0.012
40.571,-0.613,0.738,-0.010
40.581,-0.617,0.736,-0.014
40.591,-0.617,0.734,-0.016
40.601,-0.619,0.727,-0.016
40.611,-0.623,0.713,-0.014
40.620,-0.635,0.701,-0.010
40.630,-0.639,0.711,0.002
40.640,-0.637,0.717,0.012
40.650,-0.639,0.730,0.012
40.660,-0.641,0.725,0.008
40.670,-0.652,0.711,0.006
40.680,-0.660,0.695,-0.004
40.690,-0.668,0.684,-0.004
40.700,-0.664,0.682,-0.004
40.710,-0.670,0.672,-0.004
40.720,-0.676,0.682,0.002
40.730,-0.684,0.686,0.006
40.740,-0.691,0.686,0.023
40.750,-0.672,0.717,0.025
40.759,-0.660,0.732,0.021
40.769,-0.688,0.664,0.023
40.779,-0.713,0.602,-0.014
40.789,-0.717,0.592,-0.008
40.799,-0.707,0.596,0.000
40.809,-0.730,0.574,-0.002
40.819,-0.793,0.539,0.006
40.829,-0.777,0.578,0.014
40.839,-0.766,0.613,0.027
40.849,-0.777,0.619,0.016
40.859,-0.787,0.621,0.010
40.869,-0.797,0.609,0.000
40.879,-0.814,0.605,-0.006
40.888,-0.822,0.605,-0.021
40.898,-0.826,0.600,-0.016
40.908,-0.834,0.598,-0.023
40.918,-0.834,0.602,-0.023
40.928,-0.832,0.596,-0.033
40.938,-0.828,0.598,-0.037
40.948,-0.832,0.590,-0.035
40.958,-0.830,0.598,-0.033
40.968,-0.832,0.600,-0.023
40.978,-0.824,0.604,-0.027
40.988,-0.822,0.605,-0.025
40.998,-0.822,0.598,-0.027
41.008,-0.822,0.570,-0.029
41.018,-0.822,0.557,-0.020
41.027,-0.820,0.555,-0.006
41.037,-0.814,0.559,0.004
41.047,-0.822,0.555,0.008
41.057,-0.822,0.547,0.020
41.067,-0.814,0.525,0.018
41.077,-0.809,0.508,0.027
41.087,-0.811,0.494,0.039
41.097,-0.785,0.504,0.039
41.107,-0.764,0.514,0.053
41.117,-0.768,0.520,0.057
41.127,-0.771,0.520,0.062
41.137,-0.766,0.504,0.072
41.147,-0.779,0.492,0.070
41.156,-0.773,0.459,0.059
41.166,-0.766,0.453,0.064
41.176,-0.775,0.459,0.064
41.186,-0.814,0.473,0.074
41.196,-0.881,0.471,0.090
41.206,-0.904,0.496,0.098
41.216,-0.900,0.506,0.107
41.226,-0.887,0.508,0.096
41.236,-0.889,0.496,0.109
41.246,-0.910,0.480,0.104
41.256,-0.902,0.457,0.107
41.266,-0.906,0.465,0.117
41.276,-0.900,0.484,0.123
41.286,-0.885,0.488,0.129
41.295,-0.879,0.502,0.129
41.305,-0.867,0.510,0.129
41.315,-0.838,0.527,0.127
41.325,-0.836,0.504,0.123
41.335,-0.852,0.508,0.133
41.345,-0.852,0.533,0.127
41.355,-0.832,0.562,0.121
41.365,-0.828,0.549,0.117
41.375,-0.832,0.545,0.105
41.385,-0.814,0.516,0.094
41.395,-0.793,0.496,0.088
41.405,-0.791,0.490,0.102
41.415,-0.812,0.465,0.109
41.424,-0.828,0.496,0.121
41.434,-0.861,0.477,0.137
41.444,-0.863,0.477,0.135
41.454,-0.852,0.508,0.148
41.464,-0.859,0.496,0.152
41.474,-0.900,0.469,0.145
41.484,-0.863,0.486,0.141
41.494,-0.877,0.428,0.143
41.504,-0.871,0.469,0.141
41.514,-0.865,0.467,0.146
41.524,-0.889,0.445,0.168
41.534,-0.885,0.475,0.150
41.544,-0.863,0.457,0.180
41.553,-0.887,0.432,0.145
41.563,-0.873,0.453,0.156
41.573,-0.873,0.432,0.148
41.583,-0.885,0.441,0.141
41.593,-0.895,0.430,0.148
41.603,-0.875,0.480,0.141
41.613,-0.891,0.469,0.145
41.623,-0.898,0.477,0.141
41.633,-0.881,0.473,0.135
41.643,-0.865,0.486,0.145
41.653,-0.885,0.447,0.148
41.663,-0.863,0.477,0.156
41.673,-0.859,0.439,0.168
41.683,-0.906,0.404,0.205
41.692,-0.865,0.479,0.166
41.702,-0.867,0.461,0.217
41.712,-0.873,0.480,0.189
41.722,-0.891,0.461,0.189
41.732,-0.871,0.461,0.174
41.742,-0.836,0.455,0.166
41.752,-0.830,0.457,0.170
41.762,-0.834,0.482,0.180
41.772,-0.842,0.500,0.184
41.782,-0.854,0.496,0.176
41.792,-0.844,0.510,0.168
41.802,-0.850,0.475,0.158
41.812,-0.855,0.406,0.178
41.821,-0.836,0.463,0.162
41.831,-0.859,0.439,0.201
41.841,-0.832,0.512,0.191
41.851,-0.824,0.529,0.217
41.861,-0.836,0.523,0.199
41.871,-0.836,0.518,0.209
41.881,-0.844,0.498,0.201
41.891,-0.867,0.502,0.230
41.901,-0.871,0.506,0.209
41.911,-0.867,0.520,0.223
41.921,-0.854,0.510,0.203
41.931,-0.846,0.506,0.191
41.941,-0.840,0.504,0.176
41.951,-0.820,0.527,0.168
41.960,-0.820,0.559,0.168
41.970,-0.826,0.533,0.168
41.980,-0.805,0.545,0.162
41.990,-0.791,0.566,0.152
42.000,-0.791,0.584,0.150
42.010,-0.812,0.574,0.160
42.020,-0.820,0.561,0.141
42.030,-0.842,0.537,0.143
42.040,-0.828,0.539,0.150
42.050,-0.797,0.533,0.150
42.060,-0.816,0.520,0.164
42.070,-0.928,0.406,0.264
42.080,-1.021,0.246,0.275
42.089,-1.092,-0.057,0.295
42.099,-0.699,0.596,0.127
42.109,-0.748,0.668,0.195
42.119,-0.707,0.631,0.170
42.129,-0.756,0.555,0.186
42.139,-0.793,0.562,0.176
42.149,-0.830,0.537,0.180
42.159,-0.814,0.578,0.178
42.169,-0.795,0.607,0.154
42.179,-0.771,0.605,0.146
42.189,-0.754,0.602,0.121
42.199,-0.740,0.609,0.098
42.209,-0.762,0.580,0.115
42.219,-0.775,0.576,0.100
42.228,-0.779,0.590,0.088
42.238,-0.779,0.602,0.090
42.248,-0.775,0.615,0.092
42.258,-0.771,0.645,0.092
42.268,-0.795,0.645,0.092
42.278,-0.789,0.631,0.104
42.288,-0.775,0.639,0.117
42.298,-0.773,0.633,0.113
42.308,-0.760,0.621,0.113
42.318,-0.736,0.629,0.127
42.328,-0.730,0.650,0.141
42.338,-0.709,0.645,0.129
42.348,-0.705,0.658,0.131
42.357,-0.721,0.648,0.133
42.367,-0.723,0.641,0.131
42.377,-0.709,0.643,0.133
42.387,-0.695,0.639,0.137
42.397,-0.672,0.645,0.127
42.407,-0.648,0.660,0.123
42.417,-0.672,0.594,0.152
42.427,-0.627,0.641,0.145
42.437,-0.623,0.654,0.156
42.447,-0.625,0.646,0.164
42.457,-0.600,0.689,0.143
42.467,-0.605,0.719,0.129
42.477,-0.627,0.697,0.125
42.487,-0.658,0.674,0.127
42.496,-0.662,0.705,0.127
42.506,-0.613,0.779,0.049
42.516,-0.600,0.783,0.072
42.526,-0.633,0.713,0.127
42.536,-0.541,0.748,0.104
42.546,-0.518,0.791,0.080
42.556,-0.561,0.775,0.064
42.566,-0.580,0.768,0.037
42.576,-0.549,0.744,0.010
42.586,-0.486,0.721,0.008
42.596,-0.463,0.756,0.010
42.606,-0.479,0.758,-0.018
42.616,-0.502,0.758,-0.039
42.625,-0.535,0.783,-0.055
42.635,-0.557,0.777,-0.066
42.645,-0.588,0.758,-0.084
42.655,-0.625,0.734,-0.109
42.665,-0.633,0.717,-0.111
42.675,-0.637,0.734,-0.105
42.685,-0.639,0.758,-0.105
42.695,-0.623,0.738,-0.113
42.705,-0.639,0.768,-0.105
42.715,-0.676,0.758,-0.125
42.725,-0.699,0.713,-0.141
42.735,-0.707,0.701,-0.137
42.745,-0.729,0.732,-0.125
42.754,-0.740,0.732,-0.117
42.764,-0.736,0.736,-0.107
42.774,-0.723,0.730,-0.113
42.784,-0.695,0.727,-0.107
42.794,-0.680,0.732,-0.098
42.804,-0.668,0.725,-0.094
42.814,-0.654,0.748,-0.082
42.824,-0.627,0.785,-0.074
42.834,-0.613,0.795,-0.078
42.844,-0.594,0.799,-0.074
42.854,-0.568,0.797,-0.090
42.864,-0.543,0.781,-0.100
42.874,-0.525,0.777,-0.092
42.884,-0.508,0.777,-0.088
42.893,-0.477,0.764,-0.090
42.903,-0.441,0.775,-0.074
42.913,-0.439,0.793,-0.068
42.923,-0.457,0.787,-0.070
42.933,-0.482,0.779,-0.080
42.943,-0.521,0.768,-0.088
42.953,-0.754,0.529,0.002
42.963,-0.527,0.807,-0.096
42.973,-0.453,0.787,-0.098
42.983,-0.625,0.729,-0.113
42.993,-0.607,0.752,-0.104
43.003,-0.586,0.758,-0.100
43.013,-0.578,0.760,-0.123
43.022,-0.609,0.748,-0.117
43.032,-0.631,0.750,-0.111
43.042,-0.643,0.760,-0.096
43.052,-0.609,0.766,-0.096
43.062,-0.570,0.766,-0.090
43.072,-0.553,0.777,-0.088
43.082,-0.539,0.770,-0.100
43.092,-0.541,0.773,-0.096
43.102,-0.535,0.777,-0.104
43.112,-0.498,0.785,-0.100
43.122,-0.500,0.775,-0.080
43.132,-0.521,0.783,-0.072
43.142,-0.545,0.777,-0.068
43.152,-0.553,0.773,-0.061
43.161,-0.543,0.779,-0.049
43.171,-0.514,0.771,-0.053
43.181,-0.502,0.787,-0.047
43.191,-0.506,0.801,-0.053
43.201,-0.506,0.805,-0.055
43.211,-0.500,0.799,-0.055
43.221,-0.506,0.787,-0.059
43.231,-0.516,0.787,-0.057
43.241,-0.574,0.752,-0.049
43.251,-0.525,0.777,-0.064
43.261,-0.504,0.789,-0.031
43.271,-0.506,0.773,-0.031
43.281,-0.477,0.809,-0.037
43.290,-0.441,0.834,-0.033
43.300,-0.449,0.807,-0.027
43.310,-0.482,0.787,-0.029
43.320,-0.525,0.764,-0.031
43.330,-0.514,0.768,-0.035
43.340,-0.420,0.848,-0.090
43.350,-0.369,0.898,-0.076
43.360,-0.518,0.734,-0.039
43.370,-0.699,0.592,-0.066
43.380,-0.500,0.748,0.000
43.390,-0.287,0.900,-0.029
43.400,-0.473,0.832,-0.020
43.410,-0.561,0.781,-0.064
43.420,-0.586,0.758,-0.082
43.429,-0.561,0.760,-0.096
43.439,-0.535,0.777,-0.076
43.449,-0.525,0.805,-0.084
43.459,-0.543,0.820,-0.094
43.469,-0.574,0.799,-0.104
43.479,-0.592,0.779,-0.104
43.489,-0.600,0.770,-0.096
43.499,-0.584,0.771,-0.100
43.509,-0.562,0.781,-0.094
43.519,-0.541,0.793,-0.092
43.529,-0.516,0.797,-0.094
43.539,-0.490,0.816,-0.100
43.549,-0.484,0.814,-0.109
43.558,-0.498,0.797,-0.111
43.568,-0.496,0.789,-0.104
43.578,-0.494,0.787,-0.104
43.588,-0.461,0.803,-0.092
43.598,-0.457,0.828,-0.092
43.608,-0.469,0.818,-0.100
43.618,-0.482,0.812,-0.100
43.628,-0.492,0.801,-0.084
43.638,-0.514,0.783,-0.092
43.648,-0.520,0.789,-0.088
43.658,-0.543,0.791,-0.078
43.668,-0.562,0.785,-0.092
43.678,-0.570,0.777,-0.098
43.688,-0.578,0.775,-0.088
43.697,-0.596,0.768,-0.094
43.707,-0.602,0.758,-0.092
43.717,-0.602,0.758,-0.086
43.727,-0.594,0.754,-0.086
43.737,-0.578,0.764,-0.082
43.747,-0.578,0.770,-0.088
43.757,-0.574,0.756,-0.090
43.767,-0.574,0.752,-0.090
43.777,-0.570,0.748,-0.090
43.787,-0.570,0.750,-0.088
43.797,-0.566,0.750,-0.088
43.807,-0.568,0.754,-0.082
43.817,-0.586,0.750,-0.086
43.826,-0.596,0.738,-0.084
43.836,-0.613,0.729,-0.090
43.846,-0.615,0.736,-0.090
43.856,-0.621,0.744,-0.094
43.866,-0.584,0.746,-0.100
43.876,-0.602,0.748,-0.092
43.886,-0.617,0.762,-0.121
43.896,-0.689,0.717,-0.084
43.906,-0.645,0.672,-0.113
43.916,-0.566,0.672,-0.166
43.926,-0.637,0.691,-0.135
43.936,-0.627,0.695,-0.143
43.946,-0.527,0.828,-0.160
43.955,-0.686,0.705,-0.141
43.965,-0.736,0.611,-0.127
43.975,-0.637,0.709,-0.109
43.985,-0.605,0.752,-0.156
43.995,-0.676,0.719,-0.158
44.005,-0.676,0.736,-0.143
44.015,-0.619,0.799,-0.127
44.025,-0.561,0.824,-0.129
44.035,-0.541,0.814,-0.129
44.045,-0.572,0.783,-0.160
44.055,-0.621,0.723,-0.172
44.065,-0.664,0.695,-0.180
44.075,-0.684,0.715,-0.152
44.085,-0.672,0.783,-0.125
44.094,-0.631,0.824,-0.107
44.104,-0.596,0.832,-0.078
44.114,-0.580,0.814,-0.066
44.124,-0.580,0.777,-0.074
44.134,-0.590,0.715,-0.082
44.144,-0.605,0.660,-0.068
44.154,-0.566,0.682,-0.049
44.164,-0.564,0.691,-0.047
44.174,-0.588,0.652,-0.037
44.184,-0.568,0.672,-0.012
44.194,-0.559,0.697,-0.002
44.204,-0.586,0.672,0.008
44.214,-0.615,0.660,0.008
44.223,-0.652,0.650,0.016
44.233,-0.672,0.646,0.031
44.243,-0.676,0.650,0.031
44.253,-0.686,0.645,0.045
44.263,-0.674,0.666,0.051
44.273,-0.680,0.662,0.059
44.283,-0.684,0.658,0.051
44.293,-0.693,0.639,0.043
44.303,-0.691,0.625,0.029
44.313,-0.701,0.609,0.029
44.323,-0.799,0.578,0.016
44.333,-0.770,0.570,0.033
44.343,-0.680,0.607,0.051
44.353,-0.877,0.547,0.154
44.362,-0.791,0.656,0.025
44.372,-0.801,0.623,0.104
44.382,-0.803,0.609,0.078
44.392,-0.818,0.613,0.068
44.402,-0.807,0.598,0.088
44.412,-0.793,0.580,0.078
44.422,-0.781,0.605,0.066
44.432,-0.717,0.654,0.055
44.442,-0.732,0.617,0.084
44.452,-0.922,0.365,0.094
44.462,-0.746,0.596,0.105
44.472,-0.754,0.621,0.086
44.482,-0.750,0.598,0.086
44.491,-0.789,0.555,0.072
44.501,-0.750,0.557,0.082
44.511,-0.783,0.539,0.092
44.521,-0.820,0.521,0.088
44.531,-0.818,0.525,0.070
44.541,-0.764,0.592,0.068
44.551,-0.793,0.584,0.078
44.561,-0.848,0.488,0.049
44.571,-0.867,0.488,0.059
44.581,-0.854,0.502,0.059
44.591,-0.846,0.520,0.068
44.601,-0.854,0.537,0.074
44.611,-0.883,0.518,0.049
44.621,-0.979,0.445,0.084
44.630,-1.010,0.369,0.064
44.640,-0.643,0.695,0.068
44.650,-0.654,0.734,0.053
44.660,-0.803,0.598,0.072
44.670,-0.824,0.588,0.020
44.680,-0.807,0.592,0.055
44.690,-0.828,0.570,0.066
44.700,-0.822,0.566,0.033
44.710,-0.842,0.568,0.051
44.720,-0.828,0.596,0.062
44.730,-0.838,0.580,0.068
44.740,-0.816,0.576,0.072
44.750,-0.820,0.580,0.080
44.759,-0.832,0.561,0.076
44.769,-0.809,0.586,0.090
44.779,-0.803,0.582,0.086
44.789,-0.787,0.596,0.088
44.799,-0.760,0.629,0.107
44.809,-0.752,0.627,0.086
44.819,-0.736,0.635,0.074
44.829,-0.740,0.619,0.090
44.839,-0.725,0.637,0.068
44.849,-0.736,0.611,0.086
44.859,-0.719,0.629,0.068
44.869,-0.707,0.643,0.082
44.879,-0.699,0.645,0.072
44.889,-0.693,0.637,0.076
44.898,-0.688,0.639,0.072
44.908,-0.674,0.645,0.066
44.918,-0.668,0.635,0.072
44.928,-0.668,0.639,0.068
44.938,-0.680,0.650,0.062
44.948,-0.684,0.664,0.061
44.958,-0.682,0.688,0.057
44.968,-0.684,0.697,0.061
44.978,-0.686,0.707,0.055
44.988,-0.686,0.699,0.045
44.998,-0.682,0.689,0.043
45.008,-0.678,0.697,0.035
45.018,-0.676,0.686,0.031
45.027,-0.668,0.686,0.027
45.037,-0.662,0.699,0.029
45.047,-0.658,0.715,0.029
45.057,-0.658,0.715,0.023
45.067,-0.662,0.715,0.025
45.077,-0.664,0.701,0.020
45.087,-0.674,0.693,0.018
45.097,-0.680,0.701,0.018
45.107,-0.680,0.697,0.021
45.117,-0.670,0.682,0.016
45.127,-0.658,0.699,0.018
45.137,-0.648,0.711,0.016
45.147,-0.648,0.717,0.020
45.156,-0.639,0.717,0.014
45.166,-0.633,0.727,0.016
45.176,-0.635,0.736,0.016
45.186,-0.637,0.725,0.014
45.196,-0.639,0.715,0.014
45.206,-0.637,0.713,0.014
45.216,-0.637,0.719,0.008
45.226,-0.635,0.729,0.010
45.236,-0.629,0.723,0.006
45.246,-0.623,0.730,0.004
45.256,-0.621,0.734,0.006
45.266,-0.615,0.723,0.004
45.276,-0.623,0.709,0.004
45.286,-0.623,0.721,-0.002
45.295,-0.633,0.717,0.000
45.305,-0.639,0.719,-0.002
45.315,-0.643,0.723,-0.008
45.325,-0.646,0.727,-0.012
45.335,-0.650,0.721,-0.010
45.345,-0.656,0.725,-0.010
45.355,-0.650,0.723,-0.010
45.365,-0.648,0.721,-0.012
45.375,-0.646,0.725,-0.014
45.385,-0.645,0.727,-0.008
45.395,-0.643,0.723,-0.010
45.405,-0.645,0.721,-0.016
45.415,-0.645,0.717,-0.016
45.424,-0.646,0.721,-0.014
45.434,-0.645,0.713,-0.018
45.444,-0.639,0.721,-0.018
45.454,-0.631,0.738,-0.014
45.464,-0.625,0.730,-0.010
45.474,-0.627,0.727,-0.014
45.484,-0.629,0.727,-0.018
45.494,-0.635,0.732,-0.016
45.504,-0.637,0.727,-0.010
45.514,-0.631,0.723,-0.016
45.524,-0.631,0.713,-0.014
45.534,-0.631,0.707,-0.016
45.544,-0.633,0.711,-0.018
45.554,-0.631,0.709,-0.020
45.563,-0.631,0.715,-0.018
45.573,-0.639,0.711,-0.020
45.583,-0.646,0.711,-0.021
45.593,-0.652,0.709,-0.020
45.603,-0.650,0.711,-0.018
45.613,-0.650,0.709,-0.025
45.623,-0.654,0.711,-0.021
45.633,-0.658,0.707,-0.025
45.643,-0.670,0.699,-0.021
45.653,-0.678,0.699,-0.018
45.663,-0.676,0.697,-0.014
45.673,-0.678,0.703,-0.008
45.683,-0.674,0.715,-0.004
45.692,-0.670,0.725,0.000
45.702,-0.660,0.729,0.002
45.712,-0.652,0.719,-0.006
45.722,-0.646,0.719,-0.008
45.732,-0.643,0.707,-0.010
45.742,-0.641,0.695,-0.014
45.752,-0.645,0.699,-0.006
45.762,-0.652,0.701,-0.004
45.772,-0.658,0.711,0.004
45.782,-0.652,0.717,0.008
45.792,-0.654,0.715,0.008
45.802,-0.654,0.723,0.010
45.812,-0.650,0.715,0.012
45.822,-0.650,0.713,0.012
45.831,-0.648,0.707,0.014
45.841,-0.654,0.697,0.014
45.851,-0.660,0.705,0.020
45.861,-0.656,0.705,0.021
45.871,-0.654,0.701,0.031
45.881,-0.654,0.723,0.037
45.891,-0.654,0.725,0.037
45.901,-0.650,0.711,0.039
45.911,-0.645,0.711,0.045
45.921,-0.637,0.713,0.043
45.931,-0.633,0.705,0.041
45.941,-0.635,0.709,0.043
45.951,-0.625,0.709,0.041
45.960,-0.623,0.711,0.047
45.970,-0.629,0.715,0.051
45.980,-0.635,0.715,0.049
45.990,-0.633,0.719,0.055
46.000,-0.639,0.717,0.059
46.010,-0.633,0.707,0.051
46.020,-0.625,0.709,0.047
46.030,-0.621,0.715,0.049
46.040,-0.627,0.732,0.049
46.050,-0.629,0.730,0.051
46.060,-0.635,0.725,0.055
46.070,-0.639,0.717,0.057
46.080,-0.645,0.703,0.053
46.090,-0.641,0.701,0.055
46.099,-0.645,0.701,0.049
46.109,-0.648,0.699,0.049
46.119,-0.646,0.699,0.047
46.129,-0.648,0.711,0.043
46.139,-0.654,0.707,0.041
46.149,-0.658,0.703,0.037
46.159,-0.666,0.707,0.037
46.169,-0.668,0.691,0.031
46.179,-0.680,0.680,0.027
46.189,-0.691,0.684,0.031
46.199,-0.699,0.682,0.033
46.209,-0.707,0.682,0.035
46.219,-0.709,0.674,0.029
46.228,-0.715,0.676,0.033
46.238,-0.717,0.674,0.035
46.248,-0.715,0.660,0.039
46.258,-0.717,0.656,0.037
46.268,-0.725,0.656,0.039
46.278,-0.732,0.648,0.045
46.288,-0.738,0.656,0.051
46.298,-0.740,0.662,0.057
46.308,-0.738,0.654,0.059
46.318,-0.734,0.658,0.061
46.328,-0.725,0.641,0.062
46.338,-0.717,0.643,0.059
46.348,-0.711,0.660,0.059
46.357,-0.711,0.658,0.062
46.367,-0.713,0.646,0.062
46.377,-0.729,0.643,0.064
46.387,-0.744,0.656,0.074
46.397,-0.754,0.662,0.080
46.407,-0.752,0.658,0.082
46.417,-0.744,0.652,0.084
46.427,-0.740,0.654,0.084
46.437,-0.736,0.654,0.080
46.447,-0.734,0.646,0.080
46.457,-0.725,0.639,0.078
46.467,-0.715,0.648,0.070
46.477,-0.721,0.656,0.074
46.487,-0.719,0.662,0.074
46.496,-0.707,0.660,0.070
46.506,-0.703,0.666,0.062
46.516,-0.703,0.672,0.061
46.526,-0.695,0.672,0.064
46.536,-0.693,0.678,0.061
46.546,-0.691,0.691,0.064
46.556,-0.688,0.691,0.062
46.566,-0.678,0.688,0.062
46.576,-0.674,0.695,0.059
46.586,-0.666,0.695,0.055
46.596,-0.662,0.695,0.053
46.606,-0.660,0.715,0.061
46.616,-0.664,0.729,0.066
46.625,-0.660,0.729,0.066
46.635,-0.648,0.723,0.068
46.645,-0.635,0.723,0.070
46.655,-0.637,0.721,0.074
46.665,-0.641,0.721,0.078
46.675,-0.637,0.719,0.082
46.685,-0.633,0.721,0.096
46.695,-0.623,0.723,0.100
46.705,-0.627,0.730,0.117
46.715,-0.633,0.738,0.125
46.725,-0.633,0.748,0.139
46.735,-0.625,0.744,0.146
46.745,-0.625,0.736,0.160
46.755,-0.629,0.732,0.162
46.764,-0.625,0.721,0.166
46.774,-0.615,0.715,0.170
46.784,-0.604,0.721,0.176
46.794,-0.596,0.727,0.174
46.804,-0.590,0.732,0.178
46.814,-0.580,0.740,0.182
46.824,-0.582,0.740,0.184
46.834,-0.574,0.746,0.184
46.844,-0.584,0.734,0.182
46.854,-0.592,0.738,0.186
46.864,-0.590,0.738,0.188
46.874,-0.592,0.742,0.188
46.884,-0.592,0.752,0.191
46.893,-0.586,0.754,0.193
46.903,-0.582,0.754,0.195
46.913,-0.576,0.754,0.195
46.923,-0.576,0.748,0.193
46.933,-0.580,0.744,0.191
46.943,-0.582,0.738,0.189
46.953,-0.578,0.736,0.189
46.963,-0.572,0.740,0.184
46.973,-0.568,0.742,0.178
46.983,-0.564,0.742,0.176
46.993,-0.562,0.746,0.176
47.003,-0.564,0.754,0.170
47.013,-0.561,0.764,0.168
47.023,-0.557,0.762,0.170
47.032,-0.557,0.762,0.170
47.042,-0.559,0.764,0.172
47.052,-0.561,0.768,0.170
47.062,-0.562,0.770,0.172
47.072,-0.561,0.770,0.172
47.082,-0.561,0.773,0.172
47.092,-0.561,0.773,0.172
47.102,-0.551,0.775,0.174
47.112,-0.545,0.771,0.168
47.122,-0.545,0.768,0.168
47.132,-0.545,0.775,0.166
47.142,-0.549,0.777,0.164
47.152,-0.549,0.775,0.170
47.161,-0.551,0.770,0.164
47.171,-0.549,0.764,0.162
47.181,-0.551,0.756,0.164
47.191,-0.555,0.760,0.162
47.201,-0.555,0.750,0.158
47.211,-0.553,0.750,0.152
47.221,-0.555,0.760,0.154
47.231,-0.559,0.760,0.150
47.241,-0.564,0.766,0.150
47.251,-0.564,0.770,0.150
47.261,-0.564,0.773,0.152
47.271,-0.559,0.771,0.148
47.281,-0.561,0.773,0.143
47.291,-0.557,0.777,0.143
47.300,-0.551,0.775,0.137
47.310,-0.551,0.768,0.135
47.320,-0.543,0.766,0.131
47.330,-0.541,0.768,0.131
47.340,-0.539,0.771,0.135
47.350,-0.537,0.781,0.131
47.360,-0.533,0.781,0.127
47.370,-0.537,0.781,0.127
47.380,-0.537,0.781,0.119
47.390,-0.545,0.779,0.117
47.400,-0.547,0.771,0.115
47.410,-0.549,0.770,0.109
47.420,-0.553,0.773,0.111
47.429,-0.557,0.771,0.107
47.439,-0.562,0.771,0.109
47.449,-0.568,0.773,0.107
47.459,-0.572,0.770,0.109
47.469,-0.568,0.768,0.107
47.479,-0.570,0.777,0.111
47.489,-0.564,0.777,0.109
47.499,-0.564,0.775,0.107
47.509,-0.561,0.770,0.105
47.519,-0.562,0.773,0.100
47.529,-0.555,0.771,0.098
47.539,-0.559,0.771,0.098
47.549,-0.559,0.768,0.098
47.558,-0.551,0.783,0.104
47.568,-0.539,0.791,0.104
47.578,-0.539,0.789,0.102
47.588,-0.545,0.775,0.094
47.598,-0.555,0.764,0.088
47.608,-0.559,0.752,0.086
47.618,-0.566,0.748,0.082
47.628,-0.574,0.752,0.082
47.638,-0.578,0.754,0.084
47.648,-0.588,0.756,0.078
47.658,-0.598,0.752,0.078
47.668,-0.604,0.752,0.074
47.678,-0.613,0.744,0.072
47.688,-0.619,0.742,0.070
47.697,-0.625,0.740,0.070
47.707,-0.627,0.738,0.068
47.717,-0.627,0.746,0.068
47.727,-0.619,0.752,0.068
47.737,-0.615,0.756,0.070
47.747,-0.615,0.752,0.064
47.757,-0.615,0.748,0.062
47.767,-0.615,0.748,0.066
47.777,-0.619,0.748,0.062
47.787,-0.619,0.744,0.062
47.797,-0.609,0.742,0.062
47.807,-0.611,0.742,0.068
47.817,-0.605,0.750,0.068
47.826,-0.602,0.756,0.068
47.836,-0.596,0.758,0.066
47.846,-0.584,0.758,0.064
47.856,-0.578,0.754,0.066
47.866,-0.580,0.752,0.068
47.876,-0.586,0.758,0.072
47.886,-0.586,0.752,0.066
47.896,-0.590,0.756,0.068
47.906,-0.596,0.758,0.070
47.916,-0.600,0.760,0.072
47.926,-0.605,0.762,0.076
47.936,-0.604,0.760,0.078
47.946,-0.604,0.756,0.078
47.956,-0.600,0.752,0.080
47.965,-0.594,0.750,0.078
47.975,-0.588,0.750,0.080
47.985,-0.586,0.752,0.080
47.995,-0.592,0.754,0.084
48.005,-0.588,0.748,0.080
48.015,-0.586,0.746,0.078
48.025,-0.588,0.746,0.076
48.035,-0.592,0.744,0.080
48.045,-0.600,0.744,0.078
48.055,-0.602,0.740,0.078
48.065,-0.600,0.744,0.080
48.075,-0.607,0.748,0.082
48.085,-0.611,0.744,0.080
48.094,-0.613,0.744,0.086
48.104,-0.607,0.748,0.080
48.114,-0.604,0.752,0.084
48.124,-0.602,0.750,0.080
48.134,-0.598,0.752,0.080
48.144,-0.594,0.746,0.082
48.154,-0.592,0.740,0.082
48.164,-0.592,0.752,0.082
48.174,-0.592,0.750,0.086
48.184,-0.588,0.748,0.082
48.194,-0.584,0.740,0.082
48.204,-0.588,0.744,0.082
48.214,-0.590,0.748,0.078
48.224,-0.590,0.748,0.078
48.233,-0.596,0.748,0.080
48.243,-0.598,0.752,0.078
48.253,-0.607,0.748,0.084
48.263,-0.611,0.746,0.082
48.273,-0.607,0.746,0.084
48.283,-0.604,0.740,0.086
48.293,-0.605,0.738,0.084
48.303,-0.607,0.732,0.086
48.313,-0.607,0.734,0.082
48.323,-0.607,0.734,0.082
48.333,-0.609,0.736,0.082
48.343,-0.615,0.738,0.084
48.353,-0.617,0.734,0.082
48.362,-0.619,0.734,0.082
48.372,-0.627,0.736,0.084
48.382,-0.629,0.732,0.082
48.392,-0.627,0.729,0.082
48.402,-0.629,0.725,0.082
48.412,-0.629,0.719,0.080
48.422,-0.637,0.715,0.082
48.432,-0.643,0.711,0.078
48.442,-0.645,0.717,0.080
48.452,-0.645,0.711,0.076
48.462,-0.643,0.711,0.078
48.472,-0.643,0.713,0.082
48.482,-0.646,0.719,0.086
48.492,-0.645,0.709,0.082
48.501,-0.646,0.705,0.080
48.511,-0.648,0.709,0.084
48.521,-0.650,0.707,0.078
48.531,-0.656,0.707,0.078
48.541,-0.654,0.707,0.080
48.551,-0.652,0.705,0.078
48.561,-0.654,0.709,0.078
48.571,-0.654,0.709,0.078
48.581,-0.654,0.703,0.078
48.591,-0.650,0.703,0.080
48.601,-0.648,0.699,0.082
48.611,-0.652,0.697,0.080
48.621,-0.650,0.693,0.080
48.630,-0.650,0.701,0.074
48.640,-0.648,0.701,0.072
48.650,-0.656,0.707,0.078
48.660,-0.662,0.709,0.076
48.670,-0.668,0.705,0.074
48.680,-0.674,0.705,0.074
48.690,-0.674,0.693,0.076
48.700,-0.680,0.688,0.074
48.710,-0.680,0.688,0.074
48.720,-0.676,0.689,0.074
48.730,-0.680,0.691,0.074
48.740,-0.678,0.688,0.074
48.750,-0.674,0.686,0.076
48.759,-0.670,0.684,0.072
48.769,-0.672,0.686,0.072
48.779,-0.674,0.678,0.074
48.789,-0.676,0.676,0.072
48.799,-0.680,0.678,0.070
48.809,-0.680,0.678,0.070
48.819,-0.684,0.689,0.066
48.829,-0.680,0.691,0.064
48.839,-0.684,0.686,0.059
48.849,-0.688,0.689,0.051
48.859,-0.688,0.693,0.049
48.869,-0.693,0.693,0.043
48.879,-0.693,0.684,0.039
48.889,-0.689,0.680,0.039
48.898,-0.682,0.674,0.033
48.908,-0.674,0.676,0.033
48.918,-0.668,0.680,0.029
48.928,-0.666,0.676,0.031
48.938,-0.668,0.672,0.025
48.948,-0.668,0.682,0.025
48.958,-0.674,0.688,0.023
48.968,-0.676,0.684,0.018
48.978,-0.676,0.686,0.014
48.988,-0.678,0.693,0.014
48.998,-0.682,0.689,0.006
49.008,-0.678,0.688,0.004
49.018,-0.684,0.693,0.000
49.027,-0.686,0.699,-0.010
49.037,-0.688,0.697,-0.012
49.047,-0.688,0.699,-0.014
49.057,-0.682,0.699,-0.016
49.067,-0.680,0.701,-0.020
49.077,-0.674,0.703,-0.020
49.087,-0.672,0.699,-0.021
49.097,-0.670,0.697,-0.027
49.107,-0.666,0.691,-0.029
49.117,-0.668,0.688,-0.035
49.127,-0.668,0.686,-0.037
49.137,-0.664,0.684,-0.039
49.147,-0.666,0.684,-0.043
49.157,-0.668,0.678,-0.047
49.166,-0.666,0.676,-0.047
49.176,-0.668,0.680,-0.049
49.186,-0.672,0.684,-0.053
49.196,-0.670,0.678,-0.055
49.206,-0.672,0.680,-0.059
49.216,-0.668,0.689,-0.062
49.226,-0.674,0.684,-0.057
49.236,-0.684,0.682,-0.066
49.246,-0.682,0.693,-0.068
49.256,-0.678,0.695,-0.068
49.266,-0.676,0.691,-0.072
49.276,-0.672,0.695,-0.076
49.286,-0.670,0.697,-0.078
49.295,-0.676,0.691,-0.082
49.305,-0.676,0.691,-0.082
49.315,-0.676,0.691,-0.086
49.325,-0.676,0.693,-0.084
49.335,-0.674,0.693,-0.086
49.345,-0.676,0.689,-0.088
49.355,-0.674,0.686,-0.090
49.365,-0.674,0.688,-0.086
49.375,-0.672,0.688,-0.092
49.385,-0.672,0.688,-0.092
49.395,-0.674,0.684,-0.090
49.405,-0.672,0.686,-0.090
49.415,-0.672,0.688,-0.090
49.425,-0.678,0.688,-0.088
49.434,-0.674,0.691,-0.092
49.444,-0.676,0.689,-0.092
49.454,-0.684,0.691,-0.092
49.464,-0.686,0.680,-0.092
49.474,-0.686,0.680,-0.090
49.484,-0.686,0.682,-0.088
49.494,-0.691,0.680,-0.086
49.504,-0.691,0.682,-0.084
49.514,-0.693,0.676,-0.080
49.524,-0.688,0.680,-0.076
49.534,-0.691,0.676,-0.074
49.544,-0.686,0.676,-0.074
49.554,-0.689,0.670,-0.070
49.563,-0.689,0.678,-0.072
49.573,-0.695,0.678,-0.070
49.583,-0.695,0.668,-0.068
49.593,-0.693,0.674,-0.064
49.603,-0.695,0.664,-0.064
49.613,-0.699,0.658,-0.059
49.623,-0.697,0.662,-0.059
49.633,-0.691,0.662,-0.059
49.643,-0.693,0.660,-0.057
49.653,-0.693,0.660,-0.061
49.663,-0.689,0.670,-0.059
49.673,-0.693,0.676,-0.057
49.683,-0.697,0.670,-0.059
49.693,-0.697,0.662,-0.057
49.702,-0.699,0.662,-0.055
49.712,-0.697,0.658,-0.053
49.722,-0.695,0.656,-0.047
49.732,-0.695,0.658,-0.049
49.742,-0.688,0.666,-0.049
49.752,-0.688,0.668,-0.049
49.762,-0.686,0.662,-0.051
49.772,-0.686,0.658,-0.053
49.782,-0.686,0.658,-0.055
49.792,-0.697,0.662,-0.051
49.802,-0.695,0.654,-0.047
49.812,-0.697,0.652,-0.049
49.822,-0.697,0.654,-0.045
49.831,-0.699,0.666,-0.043
49.841,-0.701,0.668,-0.043
49.851,-0.701,0.664,-0.041
49.861,-0.705,0.660,-0.039
49.871,-0.703,0.664,-0.037
49.881,-0.715,0.662,-0.033
49.891,-0.715,0.660,-0.031
49.901,-0.711,0.656,-0.029
49.911,-0.715,0.656,-0.023
49.921,-0.719,0.658,-0.020
49.931,-0.715,0.664,-0.020
49.941,-0.715,0.664,-0.018
49.951,-0.709,0.664,-0.021
49.960,-0.709,0.662,-0.021
49.970,-0.713,0.652,-0.016
49.980,-0.717,0.654,-0.014
