df_hash,22ZHK4.JVF6GR
device,HZ2X61
project_hash,29R7
project_name,istanbul_aydin_university
person_hash,29R7.2LVU
person_label,V157
date_time_start,2026-06-08_20-04-04.390000_+03
date_time_start_unix,1780931044.39
date_time_end,2026-06-08_20-13-20.835000_+03
length_difference_noticed,no

time,acc_x,acc_y,acc_z
4.607,-0.896,0.535,-0.027
4.617,-0.895,0.535,-0.033
4.627,-0.895,0.533,-0.035
4.637,-0.908,0.527,-0.041
4.647,-0.906,0.537,-0.051
4.657,-0.904,0.551,-0.055
4.667,-0.900,0.553,-0.061
4.677,-0.896,0.553,-0.064
4.686,-0.895,0.555,-0.064
4.696,-0.881,0.533,-0.086
4.706,-0.895,0.564,-0.082
4.716,-0.891,0.574,-0.090
4.726,-0.891,0.586,-0.094
4.736,-0.893,0.584,-0.098
4.746,-0.896,0.580,-0.102
4.756,-0.895,0.572,-0.104
4.766,-0.895,0.564,-0.100
4.776,-0.893,0.559,-0.100
4.786,-0.895,0.555,-0.094
4.796,-0.891,0.555,-0.100
4.805,-0.885,0.549,-0.096
4.815,-0.883,0.547,-0.096
4.825,-0.883,0.543,-0.092
4.835,-0.885,0.543,-0.098
4.845,-0.885,0.547,-0.094
4.855,-0.887,0.545,-0.092
4.865,-0.887,0.551,-0.096
4.875,-0.887,0.559,-0.094
4.885,-0.877,0.562,-0.094
4.895,-0.877,0.562,-0.094
4.905,-0.881,0.564,-0.092
4.915,-0.869,0.551,-0.098
4.925,-0.867,0.553,-0.094
4.934,-0.873,0.547,-0.092
4.944,-0.877,0.547,-0.090
4.954,-0.871,0.553,-0.088
4.964,-0.869,0.557,-0.086
4.974,-0.867,0.561,-0.090
4.984,-0.871,0.561,-0.092
4.994,-0.865,0.561,-0.092
5.004,-0.869,0.559,-0.088
5.014,-0.871,0.557,-0.088
5.024,-0.867,0.553,-0.086
5.034,-0.877,0.559,-0.080
5.044,-0.889,0.553,-0.078
5.053,-0.887,0.541,-0.080
5.063,-0.893,0.531,-0.078
5.073,-0.889,0.533,-0.078
5.083,-0.883,0.525,-0.076
5.093,-0.885,0.527,-0.074
5.103,-0.879,0.529,-0.078
5.113,-0.875,0.527,-0.074
5.123,-0.871,0.527,-0.070
5.133,-0.861,0.531,-0.074
5.143,-0.867,0.533,-0.070
5.153,-0.859,0.535,-0.076
5.163,-0.863,0.535,-0.070
5.173,-0.865,0.537,-0.072
5.182,-0.863,0.539,-0.072
5.192,-0.865,0.537,-0.072
5.202,-0.865,0.525,-0.072
5.212,-0.867,0.523,-0.076
5.222,-0.879,0.535,-0.074
5.232,-0.883,0.545,-0.074
5.242,-0.887,0.555,-0.072
5.252,-0.891,0.557,-0.076
5.262,-0.893,0.549,-0.070
5.272,-0.895,0.543,-0.070
5.282,-0.896,0.539,-0.068
5.292,-0.898,0.533,-0.070
5.301,-0.898,0.531,-0.068
5.311,-0.900,0.529,-0.066
5.321,-0.895,0.531,-0.066
5.331,-0.898,0.527,-0.070
5.341,-0.895,0.529,-0.068
5.351,-0.895,0.525,-0.070
5.361,-0.898,0.521,-0.064
5.371,-0.896,0.516,-0.070
5.381,-0.902,0.510,-0.062
5.391,-0.898,0.510,-0.062
5.401,-0.900,0.514,-0.062
5.411,-0.900,0.514,-0.057
5.421,-0.895,0.510,-0.057
5.430,-0.891,0.512,-0.062
5.440,-0.896,0.516,-0.062
5.450,-0.902,0.516,-0.061
5.460,-0.898,0.520,-0.062
5.470,-0.898,0.520,-0.062
5.480,-0.893,0.521,-0.059
5.490,-0.891,0.533,-0.059
5.500,-0.891,0.537,-0.061
5.510,-0.893,0.533,-0.070
5.520,-0.893,0.525,-0.070
5.530,-0.895,0.523,-0.076
5.540,-0.898,0.518,-0.078
5.549,-0.896,0.512,-0.080
5.559,-0.900,0.510,-0.078
5.569,-0.904,0.512,-0.078
5.579,-0.910,0.510,-0.076
5.589,-0.914,0.512,-0.076
5.599,-0.920,0.508,-0.070
5.609,-0.926,0.506,-0.062
5.619,-0.928,0.498,-0.062
5.629,-0.920,0.494,-0.061
5.639,-0.910,0.498,-0.066
5.649,-0.912,0.498,-0.061
5.659,-0.900,0.508,-0.070
5.669,-0.898,0.514,-0.061
5.678,-0.893,0.520,-0.064
5.688,-0.891,0.520,-0.068
5.698,-0.889,0.520,-0.061
5.708,-0.889,0.510,-0.062
5.718,-0.889,0.502,-0.070
5.728,-0.891,0.502,-0.066
5.738,-0.889,0.508,-0.061
5.748,-0.891,0.521,-0.062
5.758,-0.893,0.529,-0.064
5.768,-0.893,0.533,-0.068
5.778,-0.889,0.529,-0.070
5.788,-0.891,0.520,-0.072
5.797,-0.893,0.514,-0.072
5.807,-0.893,0.514,-0.072
5.817,-0.895,0.514,-0.074
5.827,-0.895,0.516,-0.072
5.837,-0.896,0.520,-0.072
5.847,-0.896,0.520,-0.072
5.857,-0.896,0.520,-0.078
5.867,-0.895,0.521,-0.082
5.877,-0.898,0.523,-0.080
5.887,-0.900,0.520,-0.082
5.897,-0.898,0.521,-0.080
5.907,-0.900,0.527,-0.078
5.917,-0.896,0.527,-0.082
5.926,-0.893,0.527,-0.078
5.936,-0.895,0.516,-0.082
5.946,-0.895,0.521,-0.078
5.956,-0.893,0.523,-0.078
5.966,-0.895,0.520,-0.078
5.976,-0.889,0.523,-0.080
5.986,-0.891,0.525,-0.074
5.996,-0.893,0.527,-0.078
6.006,-0.889,0.527,-0.076
6.016,-0.885,0.529,-0.080
6.026,-0.883,0.527,-0.080
6.036,-0.883,0.527,-0.078
6.046,-0.883,0.525,-0.078
6.055,-0.885,0.521,-0.078
6.065,-0.885,0.523,-0.076
6.075,-0.885,0.521,-0.078
6.085,-0.887,0.523,-0.078
6.095,-0.889,0.525,-0.074
6.105,-0.889,0.527,-0.076
6.115,-0.887,0.525,-0.080
6.125,-0.887,0.525,-0.080
6.135,-0.887,0.521,-0.080
6.145,-0.885,0.521,-0.074
6.155,-0.887,0.520,-0.076
6.165,-0.887,0.520,-0.076
6.174,-0.887,0.525,-0.076
6.184,-0.889,0.523,-0.072
6.194,-0.885,0.529,-0.072
6.204,-0.889,0.531,-0.070
6.214,-0.881,0.531,-0.072
6.224,-0.881,0.520,-0.082
6.234,-0.883,0.514,-0.082
6.244,-0.887,0.520,-0.080
6.254,-0.893,0.529,-0.074
6.264,-0.893,0.537,-0.078
6.274,-0.896,0.541,-0.076
6.284,-0.898,0.535,-0.074
6.294,-0.895,0.529,-0.078
6.303,-0.895,0.527,-0.074
6.313,-0.896,0.529,-0.076
6.323,-0.891,0.533,-0.074
6.333,-0.885,0.535,-0.074
6.343,-0.885,0.537,-0.078
6.353,-0.887,0.533,-0.074
6.363,-0.881,0.535,-0.078
6.373,-0.881,0.531,-0.074
6.383,-0.881,0.531,-0.074
6.393,-0.885,0.531,-0.074
6.403,-0.883,0.533,-0.072
6.413,-0.883,0.533,-0.072
6.422,-0.885,0.535,-0.074
6.432,-0.885,0.531,-0.072
6.442,-0.883,0.521,-0.070
6.452,-0.885,0.518,-0.070
6.462,-0.883,0.520,-0.068
6.472,-0.885,0.521,-0.072
6.482,-0.889,0.527,-0.072
6.492,-0.885,0.529,-0.070
6.502,-0.885,0.533,-0.072
6.512,-0.883,0.533,-0.074
6.522,-0.875,0.533,-0.074
6.532,-0.885,0.527,-0.078
6.542,-0.887,0.527,-0.074
6.551,-0.887,0.523,-0.070
6.561,-0.889,0.527,-0.074
6.571,-0.889,0.527,-0.076
6.581,-0.889,0.525,-0.074
6.591,-0.889,0.529,-0.072
6.601,-0.889,0.529,-0.074
6.611,-0.889,0.527,-0.074
6.621,-0.891,0.525,-0.072
6.631,-0.889,0.523,-0.074
6.641,-0.889,0.525,-0.072
6.651,-0.889,0.529,-0.076
6.661,-0.885,0.529,-0.076
6.670,-0.881,0.527,-0.074
6.680,-0.877,0.533,-0.082
6.690,-0.881,0.535,-0.078
6.700,-0.881,0.543,-0.080
6.710,-0.887,0.537,-0.082
6.720,-0.883,0.537,-0.078
6.730,-0.891,0.535,-0.072
6.740,-0.893,0.520,-0.072
6.750,-0.891,0.512,-0.074
6.760,-0.893,0.510,-0.068
6.770,-0.900,0.516,-0.070
6.780,-0.902,0.523,-0.066
6.790,-0.902,0.531,-0.064
6.799,-0.902,0.533,-0.066
6.809,-0.898,0.527,-0.072
6.819,-0.898,0.525,-0.068
6.829,-0.896,0.525,-0.074
6.839,-0.898,0.521,-0.072
6.849,-0.893,0.520,-0.070
6.859,-0.891,0.523,-0.068
6.869,-0.893,0.518,-0.068
6.879,-0.891,0.518,-0.066
6.889,-0.891,0.516,-0.066
6.899,-0.891,0.518,-0.064
6.909,-0.889,0.520,-0.064
6.918,-0.889,0.518,-0.064
6.928,-0.891,0.520,-0.066
6.938,-0.887,0.525,-0.068
6.948,-0.883,0.525,-0.068
6.958,-0.881,0.525,-0.066
6.968,-0.879,0.523,-0.070
6.978,-0.877,0.523,-0.070
6.988,-0.881,0.527,-0.072
6.998,-0.885,0.529,-0.074
7.008,-0.891,0.529,-0.074
7.018,-0.895,0.531,-0.076
7.028,-0.898,0.529,-0.078
7.038,-0.895,0.531,-0.074
7.047,-0.896,0.533,-0.078
7.057,-0.895,0.533,-0.078
7.067,-0.895,0.527,-0.080
7.077,-0.893,0.527,-0.082
7.087,-0.891,0.521,-0.078
7.097,-0.893,0.518,-0.078
7.107,-0.891,0.520,-0.078
7.117,-0.893,0.520,-0.076
7.127,-0.891,0.521,-0.074
7.137,-0.891,0.523,-0.074
7.147,-0.891,0.521,-0.076
7.157,-0.889,0.521,-0.072
7.166,-0.891,0.521,-0.072
7.176,-0.889,0.523,-0.072
7.186,-0.887,0.520,-0.074
7.196,-0.891,0.520,-0.072
7.206,-0.883,0.521,-0.076
7.216,-0.885,0.520,-0.078
7.226,-0.889,0.521,-0.066
7.236,-0.895,0.521,-0.072
7.246,-0.896,0.523,-0.068
7.256,-0.893,0.525,-0.064
7.266,-0.889,0.516,-0.064
7.276,-0.891,0.504,-0.072
7.286,-0.885,0.504,-0.066
7.295,-0.895,0.516,-0.066
7.305,-0.896,0.527,-0.070
7.315,-0.893,0.537,-0.070
7.325,-0.898,0.539,-0.072
7.335,-0.898,0.537,-0.076
7.345,-0.895,0.531,-0.078
7.355,-0.896,0.527,-0.078
7.365,-0.900,0.525,-0.078
7.375,-0.900,0.518,-0.072
7.385,-0.902,0.516,-0.072
7.395,-0.898,0.516,-0.066
7.405,-0.896,0.514,-0.066
7.414,-0.895,0.518,-0.068
7.424,-0.889,0.516,-0.068
7.434,-0.885,0.516,-0.070
7.444,-0.889,0.520,-0.070
7.454,-0.887,0.521,-0.068
7.464,-0.889,0.525,-0.070
7.474,-0.885,0.529,-0.070
7.484,-0.881,0.527,-0.072
7.494,-0.885,0.520,-0.076
7.504,-0.883,0.521,-0.072
7.514,-0.889,0.527,-0.072
7.524,-0.895,0.531,-0.074
7.534,-0.896,0.531,-0.070
7.543,-0.895,0.531,-0.070
7.553,-0.896,0.529,-0.072
7.563,-0.893,0.527,-0.072
7.573,-0.896,0.523,-0.070
7.583,-0.898,0.514,-0.068
7.593,-0.895,0.512,-0.068
7.603,-0.895,0.514,-0.066
7.613,-0.893,0.512,-0.066
7.623,-0.889,0.516,-0.066
7.633,-0.893,0.516,-0.068
7.643,-0.893,0.514,-0.064
7.653,-0.893,0.516,-0.068
7.662,-0.896,0.520,-0.066
7.672,-0.896,0.523,-0.068
7.682,-0.900,0.514,-0.066
7.692,-0.900,0.516,-0.068
7.702,-0.896,0.520,-0.068
7.712,-0.895,0.521,-0.068
7.722,-0.889,0.521,-0.072
7.732,-0.887,0.520,-0.068
7.742,-0.883,0.520,-0.072
7.752,-0.883,0.521,-0.072
7.762,-0.889,0.529,-0.070
7.772,-0.887,0.531,-0.070
7.782,-0.881,0.533,-0.070
7.791,-0.883,0.529,-0.066
7.801,-0.889,0.520,-0.076
7.811,-0.883,0.514,-0.086
7.821,-0.893,0.516,-0.078
7.831,-0.906,0.523,-0.078
7.841,-0.910,0.525,-0.072
7.851,-0.914,0.527,-0.068
7.861,-0.916,0.521,-0.068
7.871,-0.912,0.518,-0.066
7.881,-0.906,0.510,-0.070
7.891,-0.904,0.512,-0.068
7.901,-0.896,0.516,-0.064
7.910,-0.895,0.516,-0.068
7.920,-0.885,0.520,-0.066
7.930,-0.885,0.518,-0.068
7.940,-0.881,0.516,-0.066
7.950,-0.881,0.523,-0.068
7.960,-0.895,0.510,-0.057
7.970,-0.891,0.520,-0.068
7.980,-0.891,0.521,-0.064
7.990,-0.889,0.527,-0.068
8.000,-0.889,0.527,-0.068
8.010,-0.883,0.521,-0.070
8.020,-0.887,0.514,-0.072
8.030,-0.889,0.512,-0.070
8.039,-0.895,0.518,-0.072
8.049,-0.896,0.518,-0.072
8.059,-0.893,0.523,-0.070
8.069,-0.898,0.521,-0.072
8.079,-0.900,0.520,-0.070
8.089,-0.898,0.525,-0.070
8.099,-0.895,0.520,-0.074
8.109,-0.896,0.521,-0.072
8.119,-0.895,0.521,-0.076
8.129,-0.893,0.521,-0.072
8.139,-0.895,0.521,-0.072
8.149,-0.895,0.521,-0.072
8.158,-0.896,0.520,-0.074
8.168,-0.898,0.518,-0.072
8.178,-0.898,0.520,-0.074
8.188,-0.898,0.516,-0.078
8.198,-0.898,0.518,-0.070
8.208,-0.898,0.521,-0.072
8.218,-0.898,0.523,-0.072
8.228,-0.893,0.521,-0.074
8.238,-0.893,0.518,-0.074
8.248,-0.891,0.516,-0.074
8.258,-0.891,0.516,-0.072
8.268,-0.889,0.521,-0.072
8.278,-0.895,0.510,-0.070
8.287,-0.896,0.520,-0.068
8.297,-0.893,0.521,-0.066
8.307,-0.889,0.523,-0.062
8.317,-0.885,0.525,-0.064
8.327,-0.885,0.510,-0.072
8.337,-0.885,0.506,-0.072
8.347,-0.889,0.516,-0.072
8.357,-0.896,0.527,-0.070
8.367,-0.896,0.537,-0.072
8.377,-0.904,0.531,-0.064
8.387,-0.900,0.531,-0.072
8.397,-0.898,0.523,-0.072
8.406,-0.893,0.520,-0.076
8.416,-0.893,0.518,-0.074
8.426,-0.887,0.520,-0.072
8.436,-0.889,0.520,-0.076
8.446,-0.889,0.521,-0.076
8.456,-0.889,0.520,-0.072
8.466,-0.891,0.520,-0.076
8.476,-0.891,0.521,-0.072
8.486,-0.895,0.523,-0.070
8.496,-0.891,0.523,-0.070
8.506,-0.893,0.523,-0.068
8.516,-0.891,0.523,-0.074
8.526,-0.889,0.525,-0.070
8.535,-0.887,0.523,-0.072
8.545,-0.887,0.520,-0.076
8.555,-0.883,0.518,-0.074
8.565,-0.891,0.527,-0.070
8.575,-0.891,0.527,-0.078
8.585,-0.889,0.533,-0.074
8.595,-0.889,0.531,-0.074
8.605,-0.893,0.529,-0.076
8.615,-0.889,0.525,-0.070
8.625,-0.889,0.525,-0.072
8.635,-0.891,0.523,-0.072
8.645,-0.891,0.520,-0.072
8.655,-0.891,0.520,-0.072
8.664,-0.893,0.520,-0.074
8.674,-0.889,0.523,-0.076
8.684,-0.893,0.523,-0.074
8.694,-0.889,0.525,-0.074
8.704,-0.891,0.527,-0.076
8.714,-0.889,0.527,-0.072
8.724,-0.889,0.527,-0.078
8.734,-0.889,0.527,-0.074
8.744,-0.891,0.523,-0.078
8.754,-0.889,0.525,-0.074
8.764,-0.889,0.521,-0.072
8.774,-0.885,0.523,-0.074
8.783,-0.885,0.520,-0.072
8.793,-0.889,0.521,-0.072
8.803,-0.891,0.529,-0.074
8.813,-0.891,0.527,-0.072
8.823,-0.887,0.531,-0.072
8.833,-0.885,0.531,-0.068
8.843,-0.883,0.520,-0.074
8.853,-0.885,0.510,-0.076
8.863,-0.889,0.514,-0.074
8.873,-0.895,0.527,-0.070
8.883,-0.902,0.531,-0.066
8.893,-0.900,0.533,-0.068
8.903,-0.898,0.529,-0.072
8.912,-0.893,0.529,-0.074
8.922,-0.893,0.525,-0.078
8.932,-0.891,0.521,-0.072
8.942,-0.889,0.523,-0.070
8.952,-0.887,0.525,-0.076
8.962,-0.887,0.520,-0.074
8.972,-0.889,0.518,-0.072
8.982,-0.889,0.523,-0.072
8.992,-0.885,0.527,-0.076
9.002,-0.889,0.525,-0.070
9.012,-0.893,0.523,-0.074
9.022,-0.893,0.525,-0.072
9.031,-0.891,0.527,-0.074
9.041,-0.893,0.529,-0.074
9.051,-0.885,0.525,-0.070
9.061,-0.889,0.518,-0.076
9.071,-0.885,0.516,-0.076
9.081,-0.889,0.518,-0.078
9.091,-0.891,0.520,-0.078
9.101,-0.889,0.531,-0.074
9.111,-0.893,0.529,-0.072
9.121,-0.893,0.527,-0.078
9.131,-0.889,0.527,-0.074
9.141,-0.891,0.525,-0.078
9.151,-0.895,0.523,-0.078
9.160,-0.893,0.523,-0.078
9.170,-0.891,0.527,-0.078
9.180,-0.893,0.521,-0.078
9.190,-0.891,0.523,-0.076
9.200,-0.895,0.525,-0.076
9.210,-0.893,0.521,-0.076
9.220,-0.893,0.523,-0.076
9.230,-0.895,0.523,-0.078
9.240,-0.895,0.520,-0.076
9.250,-0.898,0.520,-0.074
9.260,-0.893,0.523,-0.072
9.270,-0.891,0.521,-0.072
9.279,-0.893,0.520,-0.070
9.289,-0.887,0.521,-0.074
9.299,-0.885,0.521,-0.074
9.309,-0.883,0.521,-0.074
9.319,-0.889,0.523,-0.072
9.329,-0.887,0.529,-0.074
9.339,-0.885,0.535,-0.072
9.349,-0.881,0.537,-0.076
9.359,-0.883,0.529,-0.074
9.369,-0.883,0.516,-0.080
9.379,-0.881,0.518,-0.084
9.389,-0.887,0.527,-0.080
9.399,-0.898,0.531,-0.074
9.408,-0.898,0.535,-0.078
9.418,-0.896,0.535,-0.076
9.428,-0.895,0.533,-0.076
9.438,-0.893,0.527,-0.076
9.448,-0.893,0.527,-0.074
9.458,-0.893,0.525,-0.078
9.468,-0.887,0.523,-0.074
9.478,-0.891,0.521,-0.076
9.488,-0.883,0.525,-0.076
9.498,-0.881,0.523,-0.076
9.508,-0.885,0.525,-0.074
9.518,-0.883,0.525,-0.078
9.527,-0.887,0.525,-0.074
9.537,-0.889,0.523,-0.076
9.547,-0.889,0.521,-0.076
9.557,-0.887,0.529,-0.078
9.567,-0.885,0.531,-0.072
9.577,-0.885,0.531,-0.074
9.587,-0.881,0.523,-0.082
9.597,-0.883,0.520,-0.080
9.607,-0.889,0.523,-0.076
9.617,-0.889,0.531,-0.076
9.627,-0.889,0.531,-0.076
9.637,-0.893,0.533,-0.074
9.647,-0.893,0.527,-0.076
9.656,-0.889,0.527,-0.080
9.666,-0.891,0.525,-0.074
9.676,-0.891,0.523,-0.080
9.686,-0.893,0.525,-0.078
9.696,-0.889,0.523,-0.076
9.706,-0.889,0.523,-0.078
9.716,-0.891,0.525,-0.078
9.726,-0.889,0.525,-0.076
9.736,-0.889,0.521,-0.078
9.746,-0.891,0.525,-0.078
9.756,-0.891,0.525,-0.076
9.766,-0.893,0.529,-0.074
9.775,-0.891,0.531,-0.078
9.785,-0.895,0.529,-0.076
9.795,-0.893,0.525,-0.080
9.805,-0.889,0.523,-0.076
9.815,-0.885,0.523,-0.076
9.825,-0.883,0.527,-0.076
9.835,-0.887,0.523,-0.080
9.845,-0.887,0.531,-0.078
9.855,-0.889,0.531,-0.074
9.865,-0.891,0.529,-0.072
9.875,-0.887,0.527,-0.070
9.885,-0.889,0.520,-0.074
9.895,-0.889,0.508,-0.080
9.904,-0.889,0.512,-0.074
9.914,-0.895,0.523,-0.076
9.924,-0.896,0.529,-0.074
9.934,-0.896,0.539,-0.074
9.944,-0.896,0.537,-0.076
9.954,-0.893,0.529,-0.080
9.964,-0.893,0.527,-0.078
9.974,-0.889,0.527,-0.080
9.984,-0.887,0.529,-0.082
9.994,-0.881,0.531,-0.082
10.004,-0.881,0.533,-0.082
10.014,-0.879,0.535,-0.084
10.023,-0.877,0.533,-0.084
10.033,-0.879,0.537,-0.086
10.043,-0.881,0.537,-0.084
10.053,-0.881,0.537,-0.086
10.063,-0.889,0.535,-0.082
10.073,-0.893,0.531,-0.080
10.083,-0.889,0.527,-0.078
10.093,-0.895,0.527,-0.080
10.103,-0.891,0.521,-0.076
10.113,-0.893,0.514,-0.078
10.123,-0.889,0.512,-0.078
10.133,-0.891,0.510,-0.078
10.143,-0.896,0.520,-0.076
10.152,-0.889,0.523,-0.074
10.162,-0.889,0.535,-0.074
10.172,-0.887,0.531,-0.074
10.182,-0.883,0.533,-0.076
10.192,-0.877,0.535,-0.076
10.202,-0.875,0.531,-0.080
10.212,-0.877,0.533,-0.076
10.222,-0.877,0.533,-0.078
10.232,-0.873,0.529,-0.080
10.242,-0.877,0.533,-0.078
10.252,-0.881,0.531,-0.082
10.262,-0.885,0.529,-0.078
10.271,-0.889,0.531,-0.082
10.281,-0.893,0.531,-0.076
10.291,-0.896,0.525,-0.078
10.301,-0.898,0.527,-0.074
10.311,-0.900,0.527,-0.074
10.321,-0.900,0.523,-0.074
10.331,-0.893,0.523,-0.074
10.341,-0.889,0.523,-0.076
10.351,-0.887,0.525,-0.076
10.361,-0.887,0.523,-0.078
10.371,-0.887,0.531,-0.076
10.381,-0.881,0.533,-0.078
10.391,-0.885,0.537,-0.072
10.400,-0.879,0.535,-0.076
10.410,-0.883,0.523,-0.078
10.420,-0.879,0.516,-0.076
10.430,-0.885,0.521,-0.074
10.440,-0.895,0.531,-0.074
10.450,-0.893,0.535,-0.074
10.460,-0.891,0.543,-0.076
10.470,-0.895,0.535,-0.078
10.480,-0.895,0.533,-0.078
10.490,-0.891,0.529,-0.082
10.500,-0.891,0.525,-0.082
10.510,-0.887,0.523,-0.074
10.519,-0.887,0.521,-0.076
10.529,-0.889,0.521,-0.076
10.539,-0.887,0.520,-0.076
10.549,-0.887,0.521,-0.076
10.559,-0.887,0.523,-0.076
10.569,-0.887,0.527,-0.076
10.579,-0.887,0.525,-0.076
10.589,-0.887,0.527,-0.078
10.599,-0.885,0.525,-0.078
10.609,-0.887,0.531,-0.076
10.619,-0.879,0.531,-0.078
10.629,-0.881,0.525,-0.078
10.639,-0.881,0.521,-0.082
10.648,-0.877,0.525,-0.078
10.658,-0.889,0.533,-0.080
10.668,-0.885,0.529,-0.080
10.678,-0.889,0.533,-0.078
10.688,-0.895,0.533,-0.080
10.698,-0.893,0.527,-0.080
10.708,-0.893,0.531,-0.082
10.718,-0.895,0.529,-0.084
10.728,-0.891,0.529,-0.080
10.738,-0.893,0.525,-0.080
10.748,-0.893,0.529,-0.082
10.758,-0.889,0.529,-0.084
10.767,-0.887,0.523,-0.082
10.777,-0.887,0.523,-0.080
10.787,-0.887,0.521,-0.084
10.797,-0.887,0.525,-0.082
10.807,-0.887,0.531,-0.080
10.817,-0.889,0.529,-0.078
10.827,-0.887,0.529,-0.078
10.837,-0.889,0.527,-0.078
10.847,-0.889,0.525,-0.078
10.857,-0.891,0.523,-0.078
10.867,-0.889,0.525,-0.078
10.877,-0.885,0.521,-0.078
10.887,-0.887,0.521,-0.074
10.896,-0.889,0.523,-0.080
10.906,-0.887,0.529,-0.078
10.916,-0.885,0.531,-0.078
10.926,-0.887,0.537,-0.078
10.936,-0.881,0.529,-0.078
10.946,-0.885,0.520,-0.082
10.956,-0.883,0.516,-0.084
10.966,-0.889,0.525,-0.082
10.976,-0.896,0.535,-0.078
10.986,-0.896,0.543,-0.080
10.996,-0.896,0.545,-0.080
11.006,-0.896,0.539,-0.080
11.015,-0.893,0.529,-0.080
11.025,-0.893,0.523,-0.082
11.035,-0.893,0.521,-0.078
11.045,-0.891,0.521,-0.074
11.055,-0.887,0.521,-0.076
11.065,-0.887,0.520,-0.072
11.075,-0.881,0.521,-0.072
11.085,-0.885,0.523,-0.072
11.095,-0.881,0.523,-0.070
11.105,-0.879,0.525,-0.074
11.115,-0.881,0.523,-0.074
11.125,-0.881,0.529,-0.076
11.135,-0.879,0.529,-0.076
11.144,-0.881,0.533,-0.074
11.154,-0.881,0.531,-0.080
11.164,-0.881,0.529,-0.078
11.174,-0.881,0.523,-0.086
11.184,-0.885,0.527,-0.082
11.194,-0.891,0.529,-0.080
11.204,-0.891,0.535,-0.084
11.214,-0.896,0.533,-0.076
11.224,-0.898,0.531,-0.078
11.234,-0.896,0.525,-0.078
11.244,-0.896,0.525,-0.076
11.254,-0.896,0.521,-0.076
11.264,-0.896,0.520,-0.072
11.273,-0.895,0.516,-0.072
11.283,-0.896,0.518,-0.072
11.293,-0.895,0.518,-0.076
11.303,-0.889,0.521,-0.074
11.313,-0.885,0.520,-0.076
11.323,-0.885,0.523,-0.074
11.333,-0.885,0.525,-0.076
11.343,-0.883,0.529,-0.082
11.353,-0.883,0.529,-0.082
11.363,-0.885,0.533,-0.082
11.373,-0.885,0.537,-0.084
11.383,-0.889,0.533,-0.084
11.392,-0.889,0.531,-0.082
11.402,-0.889,0.531,-0.080
11.412,-0.885,0.533,-0.082
11.422,-0.881,0.535,-0.082
11.432,-0.885,0.527,-0.080
11.442,-0.889,0.531,-0.080
11.452,-0.891,0.533,-0.080
11.462,-0.889,0.531,-0.078
11.472,-0.891,0.535,-0.076
11.482,-0.889,0.527,-0.074
11.492,-0.891,0.514,-0.080
11.502,-0.885,0.516,-0.076
11.512,-0.893,0.520,-0.074
11.521,-0.900,0.529,-0.072
11.531,-0.896,0.535,-0.072
11.541,-0.896,0.539,-0.072
11.551,-0.896,0.533,-0.074
11.561,-0.891,0.529,-0.072
11.571,-0.887,0.525,-0.076
11.581,-0.885,0.521,-0.078
11.591,-0.887,0.523,-0.074
11.601,-0.889,0.521,-0.074
11.611,-0.879,0.525,-0.076
11.621,-0.883,0.529,-0.076
11.631,-0.885,0.525,-0.078
11.640,-0.885,0.529,-0.080
11.650,-0.883,0.525,-0.078
11.660,-0.889,0.523,-0.078
11.670,-0.891,0.525,-0.078
11.680,-0.891,0.533,-0.076
11.690,-0.891,0.531,-0.076
11.700,-0.885,0.525,-0.074
11.710,-0.887,0.520,-0.076
11.720,-0.887,0.520,-0.078
11.730,-0.889,0.521,-0.076
11.740,-0.889,0.527,-0.076
11.750,-0.885,0.533,-0.074
11.760,-0.893,0.535,-0.076
11.769,-0.889,0.537,-0.078
11.779,-0.885,0.531,-0.078
11.789,-0.889,0.531,-0.080
11.799,-0.887,0.527,-0.084
11.809,-0.889,0.527,-0.080
11.819,-0.889,0.527,-0.080
11.829,-0.889,0.525,-0.080
11.839,-0.891,0.523,-0.080
11.849,-0.891,0.523,-0.080
11.859,-0.891,0.523,-0.076
11.869,-0.889,0.523,-0.080
11.879,-0.893,0.525,-0.078
11.888,-0.891,0.523,-0.078
11.898,-0.889,0.523,-0.076
11.908,-0.891,0.525,-0.076
11.918,-0.887,0.527,-0.078
11.928,-0.889,0.529,-0.076
11.938,-0.883,0.529,-0.082
11.948,-0.887,0.525,-0.076
11.958,-0.889,0.525,-0.082
11.968,-0.889,0.525,-0.078
11.978,-0.889,0.523,-0.080
11.988,-0.896,0.531,-0.074
11.998,-0.895,0.531,-0.080
12.008,-0.893,0.533,-0.078
12.017,-0.889,0.539,-0.078
12.027,-0.887,0.531,-0.080
12.037,-0.887,0.523,-0.084
12.047,-0.883,0.514,-0.086
12.057,-0.891,0.523,-0.080
12.067,-0.898,0.529,-0.076
12.077,-0.896,0.535,-0.078
12.087,-0.900,0.529,-0.078
12.097,-0.906,0.521,-0.072
12.107,-0.900,0.521,-0.074
12.117,-0.898,0.525,-0.076
12.127,-0.895,0.523,-0.072
12.136,-0.893,0.525,-0.070
12.146,-0.891,0.527,-0.070
12.156,-0.891,0.529,-0.072
12.166,-0.889,0.531,-0.070
12.176,-0.887,0.529,-0.072
12.186,-0.883,0.533,-0.076
12.196,-0.883,0.533,-0.078
12.206,-0.887,0.533,-0.078
12.216,-0.885,0.537,-0.084
12.226,-0.883,0.551,-0.084
12.236,-0.883,0.557,-0.084
12.246,-0.879,0.559,-0.086
12.256,-0.877,0.549,-0.088
12.265,-0.877,0.545,-0.092
12.275,-0.881,0.541,-0.092
12.285,-0.879,0.549,-0.090
12.295,-0.879,0.551,-0.094
12.305,-0.877,0.549,-0.088
12.315,-0.867,0.553,-0.090
12.325,-0.857,0.547,-0.090
12.335,-0.842,0.549,-0.088
12.345,-0.820,0.547,-0.082
12.355,-0.818,0.562,-0.080
12.365,-0.818,0.564,-0.076
12.375,-0.828,0.568,-0.080
12.384,-0.838,0.568,-0.082
12.394,-0.844,0.568,-0.082
12.404,-0.842,0.570,-0.086
12.414,-0.832,0.562,-0.098
12.424,-0.828,0.564,-0.100
12.434,-0.832,0.570,-0.098
12.444,-0.838,0.568,-0.098
12.454,-0.846,0.574,-0.100
12.464,-0.842,0.572,-0.092
12.474,-0.840,0.570,-0.096
12.484,-0.850,0.568,-0.090
12.494,-0.840,0.561,-0.098
12.504,-0.836,0.559,-0.092
12.513,-0.842,0.559,-0.096
12.523,-0.848,0.555,-0.098
12.533,-0.840,0.551,-0.100
12.543,-0.832,0.549,-0.102
12.553,-0.830,0.551,-0.104
12.563,-0.840,0.555,-0.105
12.573,-0.836,0.551,-0.107
12.583,-0.842,0.543,-0.119
12.593,-0.836,0.539,-0.125
12.603,-0.840,0.541,-0.129
12.613,-0.846,0.547,-0.127
12.623,-0.844,0.551,-0.139
12.632,-0.840,0.557,-0.141
12.642,-0.838,0.559,-0.143
12.652,-0.830,0.562,-0.152
12.662,-0.836,0.561,-0.156
12.672,-0.840,0.557,-0.160
12.682,-0.842,0.559,-0.164
12.692,-0.840,0.562,-0.172
12.702,-0.844,0.561,-0.174
12.712,-0.850,0.562,-0.176
12.722,-0.846,0.557,-0.184
12.732,-0.852,0.551,-0.182
12.742,-0.859,0.543,-0.189
12.752,-0.861,0.535,-0.197
12.761,-0.863,0.535,-0.203
12.771,-0.877,0.537,-0.205
12.781,-0.877,0.537,-0.205
12.791,-0.879,0.531,-0.213
12.801,-0.883,0.531,-0.223
12.811,-0.881,0.541,-0.234
12.821,-0.889,0.551,-0.236
12.831,-0.889,0.549,-0.234
12.841,-0.891,0.553,-0.240
12.851,-0.885,0.549,-0.238
12.861,-0.889,0.547,-0.242
12.871,-0.885,0.545,-0.240
12.880,-0.885,0.539,-0.244
12.890,-0.883,0.533,-0.244
12.900,-0.891,0.535,-0.244
12.910,-0.891,0.533,-0.244
12.920,-0.893,0.521,-0.244
12.930,-0.887,0.516,-0.240
12.940,-0.887,0.512,-0.238
12.950,-0.887,0.510,-0.230
12.960,-0.893,0.512,-0.232
12.970,-0.887,0.510,-0.229
12.980,-0.879,0.508,-0.234
12.990,-0.875,0.500,-0.236
13.000,-0.867,0.496,-0.236
13.009,-0.863,0.492,-0.229
13.019,-0.859,0.490,-0.229
13.029,-0.857,0.498,-0.223
13.039,-0.855,0.504,-0.219
13.049,-0.855,0.506,-0.215
13.059,-0.855,0.514,-0.219
13.069,-0.857,0.516,-0.215
13.079,-0.852,0.525,-0.213
13.089,-0.852,0.531,-0.217
13.099,-0.846,0.525,-0.215
13.109,-0.844,0.520,-0.215
13.119,-0.842,0.512,-0.219
13.128,-0.850,0.516,-0.211
13.138,-0.854,0.516,-0.217
13.148,-0.855,0.520,-0.211
13.158,-0.861,0.520,-0.211
13.168,-0.863,0.520,-0.209
13.178,-0.857,0.514,-0.215
13.188,-0.850,0.506,-0.219
13.198,-0.846,0.500,-0.217
13.208,-0.846,0.494,-0.217
13.218,-0.852,0.492,-0.213
13.228,-0.857,0.494,-0.213
13.238,-0.861,0.498,-0.217
13.248,-0.869,0.504,-0.213
13.257,-0.877,0.500,-0.217
13.267,-0.879,0.494,-0.219
13.277,-0.885,0.498,-0.217
13.287,-0.891,0.496,-0.217
13.297,-0.885,0.494,-0.219
13.307,-0.889,0.498,-0.219
13.317,-0.887,0.502,-0.219
13.327,-0.885,0.494,-0.221
13.337,-0.885,0.494,-0.230
13.347,-0.883,0.494,-0.225
13.357,-0.885,0.488,-0.225
13.367,-0.881,0.492,-0.229
13.376,-0.881,0.496,-0.227
13.386,-0.875,0.496,-0.229
13.396,-0.871,0.498,-0.227
13.406,-0.861,0.494,-0.227
13.416,-0.859,0.494,-0.223
13.426,-0.861,0.494,-0.223
13.436,-0.867,0.494,-0.225
13.446,-0.869,0.494,-0.221
13.456,-0.873,0.496,-0.221
13.466,-0.875,0.496,-0.219
13.476,-0.879,0.496,-0.221
13.486,-0.879,0.492,-0.221
13.496,-0.877,0.492,-0.225
13.505,-0.879,0.492,-0.217
13.515,-0.879,0.488,-0.223
13.525,-0.879,0.488,-0.221
13.535,-0.877,0.486,-0.223
13.545,-0.875,0.486,-0.215
13.555,-0.877,0.488,-0.215
13.565,-0.873,0.486,-0.219
13.575,-0.869,0.490,-0.213
13.585,-0.881,0.490,-0.213
13.595,-0.883,0.498,-0.215
13.605,-0.879,0.496,-0.213
13.615,-0.881,0.498,-0.213
13.624,-0.879,0.504,-0.211
13.634,-0.877,0.496,-0.207
13.644,-0.877,0.490,-0.213
13.654,-0.881,0.486,-0.211
13.664,-0.885,0.492,-0.213
13.674,-0.883,0.492,-0.213
13.684,-0.889,0.498,-0.207
13.694,-0.885,0.500,-0.209
13.704,-0.881,0.502,-0.207
13.714,-0.879,0.498,-0.205
13.724,-0.879,0.498,-0.205
13.734,-0.877,0.492,-0.205
13.744,-0.877,0.488,-0.207
13.753,-0.873,0.488,-0.203
13.763,-0.875,0.488,-0.207
13.773,-0.871,0.490,-0.205
13.783,-0.871,0.488,-0.205
13.793,-0.877,0.490,-0.195
13.803,-0.879,0.492,-0.199
13.813,-0.881,0.488,-0.203
13.823,-0.883,0.490,-0.197
13.833,-0.881,0.490,-0.199
13.843,-0.879,0.492,-0.203
13.853,-0.875,0.496,-0.199
13.863,-0.875,0.492,-0.197
13.873,-0.871,0.488,-0.203
13.882,-0.877,0.488,-0.201
13.892,-0.883,0.494,-0.199
13.902,-0.883,0.490,-0.199
13.912,-0.881,0.494,-0.201
13.922,-0.889,0.496,-0.201
13.932,-0.881,0.490,-0.197
13.942,-0.875,0.490,-0.199
13.952,-0.885,0.488,-0.199
13.962,-0.883,0.486,-0.197
13.972,-0.881,0.484,-0.201
13.982,-0.879,0.490,-0.199
13.992,-0.875,0.490,-0.205
14.001,-0.873,0.494,-0.199
14.011,-0.879,0.494,-0.201
14.021,-0.879,0.494,-0.203
14.031,-0.877,0.492,-0.201
14.041,-0.877,0.492,-0.203
14.051,-0.881,0.494,-0.205
14.061,-0.875,0.492,-0.207
14.071,-0.881,0.492,-0.201
14.081,-0.879,0.498,-0.205
14.091,-0.881,0.494,-0.211
14.101,-0.881,0.496,-0.207
14.111,-0.879,0.490,-0.207
14.121,-0.881,0.494,-0.213
14.130,-0.881,0.498,-0.207
14.140,-0.879,0.498,-0.207
14.150,-0.883,0.502,-0.209
14.160,-0.873,0.498,-0.207
14.170,-0.873,0.494,-0.207
14.180,-0.873,0.484,-0.213
14.190,-0.875,0.482,-0.217
14.200,-0.873,0.486,-0.209
14.210,-0.881,0.494,-0.209
14.220,-0.889,0.502,-0.213
14.230,-0.881,0.500,-0.207
14.240,-0.881,0.502,-0.207
14.249,-0.879,0.496,-0.209
14.259,-0.879,0.492,-0.213
14.269,-0.875,0.492,-0.209
14.279,-0.875,0.496,-0.209
14.289,-0.877,0.496,-0.213
14.299,-0.877,0.492,-0.207
14.309,-0.879,0.498,-0.209
14.319,-0.879,0.490,-0.209
14.329,-0.879,0.496,-0.209
14.339,-0.875,0.490,-0.209
14.349,-0.879,0.490,-0.209
14.359,-0.881,0.490,-0.213
14.369,-0.873,0.492,-0.209
14.378,-0.873,0.502,-0.213
14.388,-0.867,0.492,-0.203
14.398,-0.871,0.494,-0.211
14.408,-0.873,0.488,-0.211
14.418,-0.873,0.486,-0.209
14.428,-0.879,0.496,-0.211
14.438,-0.875,0.498,-0.207
14.448,-0.879,0.502,-0.209
14.458,-0.879,0.504,-0.211
14.468,-0.879,0.502,-0.203
14.478,-0.879,0.502,-0.205
14.488,-0.877,0.496,-0.213
14.497,-0.877,0.492,-0.209
14.507,-0.875,0.500,-0.205
14.517,-0.875,0.498,-0.207
14.527,-0.873,0.500,-0.209
14.537,-0.877,0.496,-0.209
14.547,-0.871,0.496,-0.205
14.557,-0.879,0.500,-0.207
14.567,-0.879,0.498,-0.209
14.577,-0.881,0.496,-0.205
14.587,-0.877,0.494,-0.207
14.597,-0.879,0.496,-0.205
14.607,-0.877,0.502,-0.205
14.617,-0.877,0.502,-0.209
14.626,-0.869,0.494,-0.209
14.636,-0.873,0.494,-0.211
14.646,-0.873,0.496,-0.209
14.656,-0.877,0.506,-0.205
14.666,-0.877,0.502,-0.207
14.676,-0.875,0.508,-0.207
14.686,-0.875,0.508,-0.205
14.696,-0.873,0.500,-0.203
14.706,-0.875,0.484,-0.209
14.716,-0.873,0.482,-0.211
14.726,-0.879,0.494,-0.209
14.736,-0.887,0.504,-0.197
14.745,-0.889,0.508,-0.203
14.755,-0.883,0.506,-0.201
14.765,-0.885,0.504,-0.205
14.775,-0.883,0.500,-0.207
14.785,-0.881,0.498,-0.209
14.795,-0.875,0.494,-0.205
14.805,-0.875,0.494,-0.203
14.815,-0.871,0.492,-0.207
14.825,-0.867,0.496,-0.201
14.835,-0.873,0.498,-0.199
14.845,-0.879,0.496,-0.199
14.855,-0.877,0.494,-0.201
14.865,-0.875,0.492,-0.201
14.874,-0.879,0.492,-0.201
14.884,-0.883,0.494,-0.205
14.894,-0.877,0.498,-0.203
14.904,-0.877,0.498,-0.199
14.914,-0.877,0.498,-0.205
14.924,-0.873,0.490,-0.205
14.934,-0.873,0.484,-0.207
14.944,-0.881,0.496,-0.203
14.954,-0.883,0.494,-0.209
14.964,-0.881,0.496,-0.203
14.974,-0.879,0.500,-0.203
14.984,-0.881,0.502,-0.203
14.993,-0.881,0.498,-0.207
15.003,-0.883,0.496,-0.205
15.013,-0.877,0.496,-0.199
15.023,-0.877,0.492,-0.205
15.033,-0.879,0.496,-0.207
15.043,-0.873,0.490,-0.207
15.053,-0.873,0.490,-0.203
15.063,-0.877,0.492,-0.203
15.073,-0.881,0.494,-0.203
15.083,-0.875,0.496,-0.201
15.093,-0.883,0.496,-0.205
15.103,-0.879,0.494,-0.203
15.113,-0.879,0.494,-0.203
15.122,-0.879,0.494,-0.205
15.132,-0.879,0.494,-0.205
15.142,-0.881,0.494,-0.203
15.152,-0.881,0.492,-0.205
15.162,-0.881,0.496,-0.203
15.172,-0.881,0.498,-0.203
15.182,-0.877,0.500,-0.203
15.192,-0.875,0.502,-0.199
15.202,-0.877,0.498,-0.203
15.212,-0.881,0.484,-0.203
15.222,-0.879,0.480,-0.207
15.232,-0.881,0.488,-0.205
15.241,-0.879,0.492,-0.197
15.251,-0.889,0.498,-0.201
15.261,-0.889,0.502,-0.197
15.271,-0.885,0.500,-0.201
15.281,-0.879,0.496,-0.203
15.291,-0.881,0.490,-0.201
15.301,-0.877,0.492,-0.203
15.311,-0.875,0.492,-0.201
15.321,-0.873,0.492,-0.203
15.331,-0.879,0.492,-0.199
15.341,-0.877,0.496,-0.199
15.351,-0.879,0.490,-0.195
15.361,-0.879,0.490,-0.201
15.370,-0.879,0.490,-0.197
15.380,-0.881,0.490,-0.201
15.390,-0.881,0.492,-0.201
15.400,-0.881,0.496,-0.201
15.410,-0.881,0.498,-0.197
15.420,-0.879,0.502,-0.203
15.430,-0.881,0.488,-0.203
15.440,-0.879,0.484,-0.205
15.450,-0.885,0.488,-0.201
15.460,-0.887,0.490,-0.203
15.470,-0.887,0.490,-0.203
15.480,-0.883,0.496,-0.197
15.489,-0.885,0.498,-0.203
15.499,-0.885,0.494,-0.201
15.509,-0.881,0.492,-0.201
15.519,-0.879,0.492,-0.199
15.529,-0.879,0.488,-0.203
15.539,-0.879,0.492,-0.203
15.549,-0.879,0.488,-0.203
15.559,-0.879,0.492,-0.201
15.569,-0.881,0.494,-0.199
15.579,-0.881,0.490,-0.201
15.589,-0.885,0.492,-0.201
15.599,-0.883,0.494,-0.201
15.609,-0.883,0.494,-0.203
15.618,-0.881,0.484,-0.207
15.628,-0.879,0.488,-0.203
15.638,-0.881,0.488,-0.201
15.648,-0.885,0.486,-0.201
15.658,-0.881,0.492,-0.199
15.668,-0.883,0.490,-0.197
15.678,-0.887,0.492,-0.201
15.688,-0.891,0.504,-0.199
15.698,-0.889,0.500,-0.203
15.708,-0.883,0.496,-0.199
15.718,-0.881,0.498,-0.199
15.728,-0.883,0.484,-0.197
15.737,-0.881,0.477,-0.205
15.747,-0.887,0.482,-0.197
15.757,-0.891,0.484,-0.201
15.767,-0.893,0.490,-0.197
15.777,-0.893,0.496,-0.195
15.787,-0.889,0.494,-0.195
15.797,-0.887,0.492,-0.197
15.807,-0.883,0.486,-0.195
15.817,-0.881,0.486,-0.195
15.827,-0.881,0.484,-0.193
15.837,-0.879,0.486,-0.197
15.847,-0.879,0.486,-0.195
15.857,-0.881,0.486,-0.193
15.866,-0.879,0.488,-0.197
15.876,-0.883,0.490,-0.191
15.886,-0.883,0.488,-0.195
15.896,-0.885,0.486,-0.193
15.906,-0.889,0.484,-0.197
15.916,-0.887,0.490,-0.197
15.926,-0.887,0.488,-0.197
15.936,-0.887,0.492,-0.195
15.946,-0.885,0.486,-0.199
15.956,-0.887,0.482,-0.201
15.966,-0.887,0.482,-0.195
15.976,-0.891,0.484,-0.199
15.985,-0.889,0.486,-0.195
15.995,-0.891,0.488,-0.193
16.005,-0.889,0.490,-0.195
16.015,-0.891,0.490,-0.197
16.025,-0.887,0.486,-0.195
16.035,-0.885,0.482,-0.195
16.045,-0.881,0.482,-0.193
16.055,-0.881,0.480,-0.195
16.065,-0.887,0.482,-0.193
16.075,-0.881,0.482,-0.191
16.085,-0.883,0.480,-0.195
16.095,-0.883,0.480,-0.197
16.105,-0.885,0.484,-0.191
16.114,-0.887,0.486,-0.195
16.124,-0.889,0.488,-0.195
16.134,-0.889,0.488,-0.197
16.144,-0.887,0.490,-0.195
16.154,-0.893,0.488,-0.193
16.164,-0.895,0.488,-0.195
16.174,-0.895,0.486,-0.193
16.184,-0.895,0.486,-0.195
16.194,-0.887,0.484,-0.195
16.204,-0.887,0.484,-0.195
16.214,-0.885,0.482,-0.195
16.224,-0.885,0.479,-0.197
16.234,-0.885,0.490,-0.197
16.243,-0.885,0.490,-0.193
16.253,-0.885,0.494,-0.193
16.263,-0.885,0.496,-0.195
16.273,-0.879,0.488,-0.193
16.283,-0.881,0.477,-0.197
16.293,-0.883,0.473,-0.203
16.303,-0.889,0.480,-0.193
16.313,-0.893,0.486,-0.195
16.323,-0.898,0.492,-0.191
16.333,-0.898,0.492,-0.193
16.343,-0.893,0.490,-0.189
16.353,-0.893,0.490,-0.197
16.362,-0.889,0.486,-0.193
16.372,-0.889,0.482,-0.195
16.382,-0.885,0.484,-0.191
16.392,-0.881,0.482,-0.191
16.402,-0.883,0.482,-0.191
16.412,-0.883,0.484,-0.193
16.422,-0.883,0.482,-0.189
16.432,-0.881,0.484,-0.191
16.442,-0.887,0.484,-0.193
16.452,-0.891,0.482,-0.193
16.462,-0.891,0.482,-0.193
16.472,-0.889,0.486,-0.193
16.482,-0.891,0.488,-0.191
16.491,-0.887,0.486,-0.199
16.501,-0.889,0.479,-0.197
16.511,-0.887,0.477,-0.199
16.521,-0.891,0.484,-0.199
16.531,-0.895,0.486,-0.197
16.541,-0.893,0.488,-0.197
16.551,-0.891,0.488,-0.193
16.561,-0.889,0.484,-0.193
16.571,-0.889,0.486,-0.193
16.581,-0.887,0.482,-0.193
16.591,-0.887,0.484,-0.195
16.601,-0.887,0.479,-0.191
16.610,-0.887,0.479,-0.195
16.620,-0.885,0.479,-0.195
16.630,-0.885,0.480,-0.191
16.640,-0.885,0.477,-0.193
16.650,-0.885,0.480,-0.193
16.660,-0.891,0.486,-0.193
16.670,-0.889,0.482,-0.191
16.680,-0.891,0.486,-0.197
16.690,-0.889,0.488,-0.195
16.700,-0.891,0.480,-0.197
16.710,-0.891,0.482,-0.195
16.720,-0.891,0.482,-0.195
16.730,-0.891,0.484,-0.193
16.739,-0.891,0.480,-0.195
16.749,-0.891,0.479,-0.197
16.759,-0.891,0.482,-0.195
16.769,-0.891,0.482,-0.195
16.779,-0.889,0.479,-0.197
16.789,-0.889,0.480,-0.189
16.799,-0.891,0.480,-0.195
16.809,-0.893,0.482,-0.193
16.819,-0.889,0.482,-0.191
16.829,-0.887,0.484,-0.193
16.839,-0.889,0.488,-0.195
16.849,-0.887,0.486,-0.197
16.858,-0.887,0.473,-0.199
16.868,-0.887,0.471,-0.195
16.878,-0.893,0.477,-0.193
16.888,-0.896,0.484,-0.191
16.898,-0.898,0.490,-0.193
16.908,-0.896,0.490,-0.193
16.918,-0.895,0.488,-0.191
16.928,-0.889,0.484,-0.193
16.938,-0.887,0.480,-0.195
16.948,-0.889,0.482,-0.193
16.958,-0.883,0.479,-0.191
16.968,-0.885,0.480,-0.195
16.978,-0.881,0.479,-0.191
16.987,-0.887,0.480,-0.191
16.997,-0.887,0.480,-0.195
17.007,-0.887,0.480,-0.193
17.017,-0.889,0.482,-0.193
17.027,-0.893,0.480,-0.195
17.037,-0.891,0.479,-0.195
17.047,-0.893,0.480,-0.193
17.057,-0.891,0.482,-0.188
17.067,-0.891,0.482,-0.193
17.077,-0.891,0.477,-0.191
17.087,-0.891,0.471,-0.197
17.097,-0.895,0.475,-0.193
17.106,-0.895,0.477,-0.193
17.116,-0.895,0.480,-0.193
17.126,-0.895,0.479,-0.189
17.136,-0.893,0.480,-0.189
17.146,-0.893,0.480,-0.193
17.156,-0.891,0.477,-0.193
17.166,-0.887,0.479,-0.189
17.176,-0.889,0.477,-0.191
17.186,-0.887,0.479,-0.193
17.196,-0.889,0.477,-0.195
17.206,-0.887,0.479,-0.193
17.216,-0.889,0.480,-0.193
17.226,-0.895,0.480,-0.193
17.235,-0.891,0.480,-0.195
17.245,-0.893,0.482,-0.197
17.255,-0.895,0.480,-0.199
17.265,-0.895,0.482,-0.193
17.275,-0.893,0.477,-0.197
17.285,-0.893,0.484,-0.193
17.295,-0.896,0.480,-0.195
17.305,-0.891,0.479,-0.195
17.315,-0.891,0.479,-0.195
17.325,-0.889,0.477,-0.195
17.335,-0.891,0.475,-0.195
17.345,-0.889,0.475,-0.195
17.354,-0.891,0.469,-0.191
17.364,-0.893,0.479,-0.191
17.374,-0.895,0.473,-0.193
17.384,-0.895,0.475,-0.191
17.394,-0.895,0.479,-0.191
17.404,-0.891,0.482,-0.189
17.414,-0.889,0.480,-0.191
17.424,-0.889,0.482,-0.189
17.434,-0.891,0.471,-0.193
17.444,-0.889,0.463,-0.197
17.454,-0.895,0.469,-0.193
17.464,-0.893,0.480,-0.188
17.474,-0.900,0.484,-0.197
17.483,-0.902,0.486,-0.191
17.493,-0.900,0.486,-0.189
17.503,-0.893,0.484,-0.191
17.513,-0.891,0.479,-0.193
17.523,-0.885,0.477,-0.193
17.533,-0.885,0.475,-0.195
17.543,-0.885,0.471,-0.193
17.553,-0.887,0.475,-0.191
17.563,-0.891,0.473,-0.189
17.573,-0.891,0.477,-0.189
17.583,-0.889,0.475,-0.191
17.593,-0.891,0.475,-0.186
17.602,-0.893,0.477,-0.186
17.612,-0.896,0.473,-0.191
17.622,-0.896,0.471,-0.189
17.632,-0.895,0.477,-0.188
17.642,-0.891,0.477,-0.189
17.652,-0.893,0.473,-0.188
17.662,-0.896,0.465,-0.189
17.672,-0.893,0.467,-0.191
17.682,-0.898,0.475,-0.189
17.692,-0.902,0.479,-0.189
17.702,-0.898,0.479,-0.191
17.712,-0.898,0.482,-0.188
17.722,-0.898,0.475,-0.189
17.731,-0.896,0.475,-0.191
17.741,-0.891,0.473,-0.193
17.751,-0.893,0.469,-0.189
17.761,-0.887,0.471,-0.189
17.771,-0.885,0.469,-0.189
17.781,-0.891,0.475,-0.189
17.791,-0.895,0.477,-0.191
17.801,-0.895,0.475,-0.188
17.811,-0.891,0.473,-0.189
17.821,-0.896,0.475,-0.189
17.831,-0.898,0.473,-0.191
17.841,-0.896,0.473,-0.189
17.850,-0.893,0.477,-0.191
17.860,-0.896,0.477,-0.193
17.870,-0.895,0.475,-0.193
17.880,-0.895,0.477,-0.191
17.890,-0.895,0.475,-0.191
17.900,-0.895,0.473,-0.191
17.910,-0.893,0.473,-0.189
17.920,-0.889,0.473,-0.189
17.930,-0.896,0.477,-0.189
17.940,-0.893,0.473,-0.191
17.950,-0.893,0.477,-0.191
17.960,-0.889,0.475,-0.184
17.970,-0.891,0.482,-0.186
17.979,-0.891,0.482,-0.191
17.989,-0.893,0.473,-0.191
17.999,-0.893,0.465,-0.193
18.009,-0.896,0.461,-0.193
18.019,-0.895,0.473,-0.184
18.029,-0.908,0.482,-0.189
18.039,-0.906,0.482,-0.186
18.049,-0.904,0.486,-0.191
18.059,-0.898,0.480,-0.189
18.069,-0.893,0.473,-0.193
18.079,-0.893,0.471,-0.188
18.089,-0.891,0.475,-0.188
18.098,-0.895,0.473,-0.186
18.108,-0.891,0.473,-0.188
18.118,-0.889,0.475,-0.189
18.128,-0.889,0.471,-0.189
18.138,-0.891,0.475,-0.189
18.148,-0.895,0.479,-0.191
18.158,-0.891,0.473,-0.191
18.168,-0.893,0.473,-0.193
18.178,-0.895,0.471,-0.191
18.188,-0.893,0.473,-0.191
18.198,-0.895,0.480,-0.191
18.208,-0.896,0.484,-0.191
18.218,-0.893,0.473,-0.189
18.227,-0.893,0.467,-0.197
18.237,-0.893,0.467,-0.191
18.247,-0.895,0.471,-0.191
18.257,-0.896,0.475,-0.191
18.267,-0.898,0.479,-0.189
18.277,-0.898,0.479,-0.189
18.287,-0.898,0.477,-0.191
18.297,-0.895,0.473,-0.189
18.307,-0.895,0.473,-0.193
18.317,-0.889,0.475,-0.191
18.327,-0.893,0.471,-0.189
18.337,-0.895,0.473,-0.191
18.346,-0.895,0.473,-0.191
18.356,-0.895,0.471,-0.191
18.366,-0.895,0.473,-0.191
18.376,-0.893,0.471,-0.189
18.386,-0.893,0.473,-0.191
18.396,-0.895,0.477,-0.195
18.406,-0.895,0.477,-0.191
18.416,-0.895,0.475,-0.195
18.426,-0.895,0.479,-0.191
18.436,-0.893,0.475,-0.193
18.446,-0.893,0.475,-0.191
18.456,-0.895,0.473,-0.191
18.466,-0.896,0.473,-0.193
18.475,-0.893,0.475,-0.191
18.485,-0.893,0.473,-0.191
18.495,-0.893,0.475,-0.191
18.505,-0.895,0.473,-0.189
18.515,-0.896,0.475,-0.193
18.525,-0.893,0.477,-0.189
18.535,-0.893,0.479,-0.189
18.545,-0.889,0.480,-0.188
18.555,-0.891,0.473,-0.188
18.565,-0.891,0.461,-0.191
18.575,-0.895,0.463,-0.191
18.585,-0.900,0.471,-0.189
18.594,-0.902,0.479,-0.186
18.604,-0.908,0.482,-0.188
18.614,-0.906,0.482,-0.186
18.624,-0.898,0.477,-0.189
18.634,-0.896,0.473,-0.191
18.644,-0.895,0.471,-0.188
18.654,-0.887,0.471,-0.191
18.664,-0.891,0.475,-0.188
18.674,-0.889,0.471,-0.188
18.684,-0.889,0.473,-0.188
18.694,-0.891,0.469,-0.186
18.704,-0.893,0.473,-0.184
18.714,-0.891,0.473,-0.188
18.723,-0.893,0.473,-0.186
18.733,-0.896,0.473,-0.188
18.743,-0.896,0.469,-0.191
18.753,-0.898,0.475,-0.189
18.763,-0.896,0.479,-0.191
18.773,-0.900,0.480,-0.189
18.783,-0.896,0.473,-0.188
18.793,-0.898,0.467,-0.195
18.803,-0.895,0.465,-0.189
18.813,-0.898,0.471,-0.188
18.823,-0.896,0.473,-0.188
18.833,-0.900,0.477,-0.189
18.843,-0.902,0.477,-0.193
18.852,-0.895,0.477,-0.188
18.862,-0.898,0.475,-0.189
18.872,-0.898,0.469,-0.189
18.882,-0.896,0.471,-0.191
18.892,-0.895,0.469,-0.188
18.902,-0.895,0.469,-0.191
18.912,-0.896,0.473,-0.186
18.922,-0.895,0.471,-0.189
18.932,-0.896,0.473,-0.188
18.942,-0.896,0.475,-0.188
18.952,-0.895,0.475,-0.191
18.962,-0.893,0.473,-0.191
18.971,-0.896,0.473,-0.189
18.981,-0.895,0.475,-0.191
18.991,-0.895,0.475,-0.188
19.001,-0.895,0.475,-0.188
19.011,-0.896,0.469,-0.188
19.021,-0.896,0.473,-0.189
19.031,-0.898,0.469,-0.189
19.041,-0.896,0.473,-0.193
19.051,-0.895,0.471,-0.191
19.061,-0.895,0.469,-0.188
19.071,-0.898,0.471,-0.189
19.081,-0.900,0.469,-0.186
19.091,-0.904,0.473,-0.191
19.100,-0.896,0.475,-0.189
19.110,-0.896,0.480,-0.186
19.120,-0.895,0.482,-0.188
19.130,-0.895,0.469,-0.188
19.140,-0.891,0.461,-0.193
19.150,-0.895,0.459,-0.191
19.160,-0.898,0.469,-0.188
19.170,-0.904,0.475,-0.186
19.180,-0.902,0.482,-0.188
19.190,-0.902,0.480,-0.186
19.200,-0.896,0.477,-0.188
19.210,-0.896,0.473,-0.191
19.219,-0.893,0.473,-0.191
19.229,-0.891,0.473,-0.188
19.239,-0.895,0.475,-0.188
19.249,-0.895,0.471,-0.184
19.259,-0.893,0.473,-0.188
19.269,-0.893,0.473,-0.188
19.279,-0.893,0.473,-0.189
19.289,-0.895,0.473,-0.186
19.299,-0.896,0.471,-0.188
19.309,-0.895,0.471,-0.186
19.319,-0.896,0.471,-0.188
19.329,-0.898,0.469,-0.188
19.339,-0.898,0.475,-0.191
19.348,-0.896,0.475,-0.189
19.358,-0.896,0.471,-0.189
19.368,-0.895,0.465,-0.191
19.378,-0.896,0.465,-0.191
19.388,-0.896,0.469,-0.189
19.398,-0.900,0.467,-0.189
19.408,-0.902,0.473,-0.189
19.418,-0.900,0.475,-0.191
19.428,-0.900,0.471,-0.191
19.438,-0.900,0.469,-0.191
19.448,-0.900,0.469,-0.191
19.458,-0.895,0.467,-0.189
19.467,-0.893,0.465,-0.188
19.477,-0.898,0.469,-0.193
19.487,-0.898,0.467,-0.189
19.497,-0.898,0.467,-0.191
19.507,-0.900,0.467,-0.189
19.517,-0.895,0.469,-0.188
19.527,-0.898,0.471,-0.189
19.537,-0.898,0.473,-0.193
19.547,-0.895,0.473,-0.189
19.557,-0.896,0.471,-0.193
19.567,-0.898,0.471,-0.189
19.577,-0.896,0.469,-0.191
19.587,-0.898,0.469,-0.186
19.596,-0.896,0.467,-0.189
19.606,-0.898,0.469,-0.193
19.616,-0.902,0.467,-0.188
19.626,-0.902,0.467,-0.191
19.636,-0.900,0.467,-0.188
19.646,-0.896,0.467,-0.188
19.656,-0.898,0.467,-0.188
19.666,-0.900,0.465,-0.188
19.676,-0.902,0.469,-0.186
19.686,-0.895,0.471,-0.188
19.696,-0.896,0.473,-0.186
19.706,-0.902,0.482,-0.191
19.715,-0.895,0.463,-0.186
19.725,-0.896,0.457,-0.189
19.735,-0.895,0.459,-0.188
19.745,-0.902,0.465,-0.186
19.755,-0.900,0.477,-0.188
19.765,-0.906,0.480,-0.186
19.775,-0.906,0.479,-0.188
19.785,-0.900,0.473,-0.189
19.795,-0.900,0.469,-0.191
19.805,-0.896,0.469,-0.188
19.815,-0.895,0.469,-0.188
19.825,-0.893,0.469,-0.186
19.835,-0.891,0.465,-0.184
19.844,-0.895,0.465,-0.184
19.854,-0.896,0.469,-0.188
19.864,-0.893,0.467,-0.186
19.874,-0.896,0.469,-0.186
19.884,-0.896,0.469,-0.188
19.894,-0.898,0.469,-0.189
19.904,-0.898,0.469,-0.186
19.914,-0.900,0.473,-0.186
19.924,-0.902,0.471,-0.189
19.934,-0.902,0.473,-0.191
19.944,-0.902,0.469,-0.191
19.954,-0.900,0.463,-0.195
19.963,-0.898,0.465,-0.191
19.973,-0.902,0.471,-0.193
19.983,-0.898,0.471,-0.191
19.993,-0.898,0.473,-0.188
20.003,-0.898,0.475,-0.189
20.013,-0.896,0.469,-0.189
20.023,-0.896,0.469,-0.189
20.033,-0.896,0.471,-0.195
20.043,-0.895,0.471,-0.188
20.053,-0.898,0.467,-0.186
20.063,-0.895,0.467,-0.188
20.073,-0.898,0.469,-0.189
20.083,-0.896,0.467,-0.189
20.092,-0.896,0.467,-0.186
20.102,-0.898,0.469,-0.189
20.112,-0.896,0.467,-0.191
20.122,-0.896,0.469,-0.188
20.132,-0.900,0.471,-0.191
20.142,-0.896,0.473,-0.188
20.152,-0.900,0.471,-0.189
20.162,-0.898,0.469,-0.188
20.172,-0.896,0.467,-0.186
20.182,-0.900,0.465,-0.188
20.192,-0.900,0.465,-0.188
20.202,-0.898,0.469,-0.188
20.211,-0.896,0.469,-0.188
20.221,-0.898,0.467,-0.188
20.231,-0.900,0.461,-0.193
20.241,-0.898,0.465,-0.188
20.251,-0.902,0.473,-0.189
20.261,-0.898,0.467,-0.186
20.271,-0.898,0.477,-0.188
20.281,-0.893,0.477,-0.186
20.291,-0.893,0.469,-0.189
20.301,-0.889,0.455,-0.189
20.311,-0.895,0.455,-0.189
20.321,-0.904,0.467,-0.188
20.331,-0.908,0.477,-0.184
20.340,-0.906,0.479,-0.184
20.350,-0.904,0.480,-0.188
20.360,-0.900,0.471,-0.189
20.370,-0.900,0.465,-0.191
20.380,-0.896,0.463,-0.189
20.390,-0.893,0.465,-0.186
20.400,-0.895,0.467,-0.186
20.410,-0.895,0.465,-0.189
20.420,-0.895,0.467,-0.186
20.430,-0.898,0.469,-0.186
20.440,-0.898,0.465,-0.182
20.450,-0.898,0.469,-0.186
20.459,-0.900,0.465,-0.189
20.469,-0.902,0.467,-0.189
20.479,-0.902,0.465,-0.189
20.489,-0.902,0.469,-0.188
20.499,-0.898,0.471,-0.186
20.509,-0.895,0.469,-0.186
20.519,-0.895,0.457,-0.188
20.529,-0.896,0.457,-0.189
20.539,-0.898,0.463,-0.189
20.549,-0.902,0.471,-0.188
20.559,-0.904,0.469,-0.186
20.569,-0.904,0.471,-0.188
20.579,-0.902,0.469,-0.189
20.588,-0.898,0.465,-0.188
20.598,-0.900,0.463,-0.188
20.608,-0.898,0.465,-0.189
20.618,-0.900,0.467,-0.189
20.628,-0.898,0.465,-0.189
20.638,-0.898,0.463,-0.191
20.648,-0.902,0.465,-0.188
20.658,-0.900,0.463,-0.189
20.668,-0.900,0.465,-0.191
20.678,-0.900,0.467,-0.189
20.688,-0.898,0.465,-0.188
20.698,-0.896,0.467,-0.189
20.707,-0.898,0.469,-0.188
20.717,-0.898,0.469,-0.191
20.727,-0.898,0.469,-0.189
20.737,-0.900,0.465,-0.191
20.747,-0.902,0.467,-0.189
20.757,-0.900,0.465,-0.188
20.767,-0.900,0.463,-0.189
20.777,-0.900,0.465,-0.191
20.787,-0.902,0.465,-0.189
20.797,-0.900,0.467,-0.189
20.807,-0.902,0.469,-0.188
20.817,-0.896,0.469,-0.184
20.827,-0.898,0.473,-0.191
20.836,-0.898,0.469,-0.186
20.846,-0.895,0.453,-0.186
20.856,-0.898,0.449,-0.195
20.866,-0.900,0.455,-0.188
20.876,-0.904,0.469,-0.180
20.886,-0.912,0.475,-0.184
20.896,-0.908,0.475,-0.182
20.906,-0.906,0.471,-0.184
20.916,-0.898,0.467,-0.188
20.926,-0.896,0.459,-0.191
20.936,-0.896,0.461,-0.188
20.946,-0.896,0.465,-0.189
20.955,-0.896,0.465,-0.189
20.965,-0.898,0.463,-0.186
20.975,-0.898,0.465,-0.186
20.985,-0.896,0.463,-0.188
20.995,-0.896,0.463,-0.191
21.005,-0.908,0.469,-0.191
21.015,-0.898,0.463,-0.186
21.025,-0.902,0.465,-0.188
21.035,-0.902,0.467,-0.189
21.045,-0.900,0.471,-0.189
21.055,-0.902,0.475,-0.188
21.065,-0.898,0.471,-0.188
21.075,-0.896,0.459,-0.188
21.084,-0.896,0.459,-0.189
21.094,-0.898,0.461,-0.191
21.104,-0.904,0.465,-0.189
21.114,-0.898,0.471,-0.188
21.124,-0.906,0.473,-0.188
21.134,-0.904,0.471,-0.189
21.144,-0.900,0.467,-0.188
21.154,-0.900,0.467,-0.188
21.164,-0.900,0.463,-0.188
21.174,-0.898,0.465,-0.188
21.184,-0.896,0.463,-0.188
21.194,-0.896,0.463,-0.188
21.203,-0.896,0.465,-0.189
21.213,-0.900,0.463,-0.189
21.223,-0.900,0.465,-0.186
21.233,-0.900,0.467,-0.188
21.243,-0.900,0.459,-0.188
21.253,-0.902,0.469,-0.191
21.263,-0.900,0.469,-0.189
21.273,-0.902,0.469,-0.191
21.283,-0.900,0.469,-0.188
21.293,-0.902,0.465,-0.191
21.303,-0.898,0.461,-0.191
21.313,-0.904,0.467,-0.189
21.323,-0.898,0.465,-0.188
21.332,-0.898,0.463,-0.188
21.342,-0.896,0.467,-0.189
21.352,-0.898,0.465,-0.191
21.362,-0.896,0.467,-0.186
21.372,-0.902,0.469,-0.189
21.382,-0.898,0.471,-0.188
21.392,-0.900,0.475,-0.188
21.402,-0.898,0.469,-0.188
21.412,-0.896,0.455,-0.189
21.422,-0.900,0.457,-0.191
21.432,-0.902,0.459,-0.188
21.442,-0.906,0.471,-0.186
21.452,-0.902,0.477,-0.186
21.461,-0.908,0.477,-0.186
21.471,-0.906,0.469,-0.186
21.481,-0.902,0.469,-0.188
21.491,-0.902,0.463,-0.188
21.501,-0.895,0.467,-0.188
21.511,-0.895,0.467,-0.186
21.521,-0.893,0.465,-0.189
21.531,-0.895,0.467,-0.184
21.541,-0.895,0.467,-0.186
21.551,-0.896,0.463,-0.184
21.561,-0.896,0.467,-0.182
21.571,-0.900,0.469,-0.188
21.580,-0.898,0.465,-0.184
21.590,-0.902,0.465,-0.189
21.600,-0.904,0.463,-0.188
21.610,-0.902,0.467,-0.186
21.620,-0.902,0.471,-0.191
21.630,-0.900,0.469,-0.189
21.640,-0.898,0.461,-0.189
21.650,-0.896,0.457,-0.191
21.660,-0.900,0.459,-0.184
21.670,-0.906,0.463,-0.189
21.680,-0.900,0.469,-0.189
21.690,-0.902,0.471,-0.188
21.700,-0.904,0.471,-0.188
21.709,-0.900,0.467,-0.189
21.719,-0.898,0.463,-0.188
21.729,-0.900,0.465,-0.186
21.739,-0.898,0.465,-0.186
21.749,-0.896,0.463,-0.188
21.759,-0.898,0.465,-0.188
21.769,-0.898,0.469,-0.188
21.779,-0.900,0.465,-0.188
21.789,-0.898,0.465,-0.186
21.799,-0.898,0.465,-0.189
21.809,-0.896,0.465,-0.188
21.819,-0.898,0.469,-0.186
21.828,-0.902,0.471,-0.186
21.838,-0.902,0.471,-0.188
21.848,-0.898,0.467,-0.188
21.858,-0.906,0.467,-0.186
21.868,-0.902,0.463,-0.188
21.878,-0.902,0.465,-0.189
21.888,-0.898,0.465,-0.188
21.898,-0.898,0.467,-0.186
21.908,-0.898,0.465,-0.184
21.918,-0.902,0.461,-0.186
21.928,-0.902,0.467,-0.188
21.938,-0.902,0.467,-0.184
21.948,-0.902,0.471,-0.184
21.957,-0.900,0.475,-0.184
21.967,-0.895,0.477,-0.184
21.977,-0.896,0.463,-0.184
21.987,-0.898,0.455,-0.188
21.997,-0.900,0.457,-0.186
22.007,-0.904,0.465,-0.184
22.017,-0.904,0.469,-0.182
22.027,-0.908,0.477,-0.188
22.037,-0.906,0.473,-0.184
22.047,-0.906,0.471,-0.186
22.057,-0.898,0.469,-0.184
22.067,-0.898,0.465,-0.188
22.076,-0.895,0.465,-0.186
22.086,-0.893,0.467,-0.186
22.096,-0.895,0.469,-0.186
22.106,-0.896,0.469,-0.186
22.116,-0.896,0.467,-0.182
22.126,-0.896,0.469,-0.180
22.136,-0.898,0.467,-0.180
22.146,-0.900,0.467,-0.184
22.156,-0.902,0.463,-0.186
22.166,-0.904,0.463,-0.182
22.176,-0.904,0.467,-0.186
22.186,-0.902,0.467,-0.186
22.196,-0.900,0.471,-0.186
22.205,-0.900,0.467,-0.188
22.215,-0.904,0.461,-0.188
22.225,-0.898,0.457,-0.184
22.235,-0.900,0.463,-0.188
22.245,-0.902,0.465,-0.188
22.255,-0.902,0.471,-0.188
22.265,-0.902,0.471,-0.184
22.275,-0.904,0.471,-0.184
22.285,-0.902,0.467,-0.186
22.295,-0.898,0.463,-0.188
22.305,-0.898,0.467,-0.188
22.315,-0.898,0.469,-0.191
22.324,-0.895,0.467,-0.188
22.334,-0.896,0.463,-0.191
22.344,-0.900,0.465,-0.188
22.354,-0.902,0.465,-0.191
22.364,-0.904,0.469,-0.188
22.374,-0.902,0.467,-0.191
22.384,-0.900,0.469,-0.189
22.394,-0.902,0.473,-0.189
22.404,-0.900,0.471,-0.191
22.414,-0.900,0.473,-0.189
22.424,-0.900,0.469,-0.186
22.434,-0.902,0.467,-0.188
22.444,-0.898,0.465,-0.186
22.453,-0.898,0.465,-0.188
22.463,-0.900,0.467,-0.189
22.473,-0.902,0.467,-0.184
22.483,-0.898,0.465,-0.186
22.493,-0.898,0.465,-0.188
22.503,-0.900,0.461,-0.184
22.513,-0.902,0.463,-0.188
22.523,-0.904,0.467,-0.188
22.533,-0.896,0.465,-0.182
22.543,-0.898,0.475,-0.184
22.553,-0.898,0.473,-0.184
22.563,-0.898,0.461,-0.184
22.572,-0.896,0.451,-0.186
22.582,-0.902,0.459,-0.184
22.592,-0.904,0.463,-0.184
22.602,-0.910,0.473,-0.182
22.612,-0.908,0.475,-0.180
22.622,-0.908,0.475,-0.182
22.632,-0.908,0.467,-0.182
22.642,-0.902,0.463,-0.184
22.652,-0.896,0.459,-0.184
22.662,-0.895,0.465,-0.184
22.672,-0.896,0.463,-0.184
22.682,-0.896,0.463,-0.182
22.692,-0.896,0.467,-0.186
22.701,-0.895,0.467,-0.182
22.711,-0.902,0.467,-0.184
22.721,-0.900,0.467,-0.184
22.731,-0.900,0.465,-0.182
22.741,-0.902,0.461,-0.184
22.751,-0.906,0.463,-0.184
22.761,-0.904,0.467,-0.182
22.771,-0.902,0.469,-0.184
22.781,-0.900,0.471,-0.186
22.791,-0.900,0.465,-0.186
22.801,-0.904,0.457,-0.186
22.811,-0.902,0.459,-0.186
22.820,-0.904,0.465,-0.186
22.830,-0.906,0.467,-0.184
22.840,-0.900,0.473,-0.186
22.850,-0.902,0.473,-0.182
22.860,-0.906,0.467,-0.184
22.870,-0.902,0.469,-0.186
22.880,-0.900,0.463,-0.184
22.890,-0.898,0.463,-0.186
22.900,-0.900,0.459,-0.186
22.910,-0.900,0.463,-0.188
22.920,-0.900,0.461,-0.188
22.930,-0.902,0.463,-0.186
22.940,-0.900,0.461,-0.184
22.949,-0.900,0.467,-0.184
22.959,-0.902,0.465,-0.186
22.969,-0.900,0.465,-0.184
22.979,-0.902,0.467,-0.188
22.989,-0.904,0.467,-0.186
22.999,-0.904,0.465,-0.186
23.009,-0.904,0.465,-0.184
23.019,-0.902,0.467,-0.184
23.029,-0.902,0.463,-0.184
23.039,-0.900,0.461,-0.186
23.049,-0.902,0.463,-0.186
23.059,-0.900,0.461,-0.186
23.068,-0.902,0.459,-0.186
23.078,-0.898,0.463,-0.184
23.088,-0.904,0.469,-0.186
23.098,-0.902,0.467,-0.178
23.108,-0.902,0.473,-0.184
23.118,-0.896,0.467,-0.184
23.128,-0.896,0.459,-0.188
23.138,-0.895,0.449,-0.188
23.148,-0.902,0.461,-0.182
23.158,-0.910,0.471,-0.178
23.168,-0.910,0.475,-0.182
23.178,-0.906,0.482,-0.172
23.188,-0.906,0.473,-0.182
23.197,-0.900,0.465,-0.186
23.207,-0.896,0.463,-0.184
23.217,-0.896,0.459,-0.182
23.227,-0.895,0.463,-0.184
23.237,-0.898,0.465,-0.186
23.247,-0.898,0.463,-0.182
23.257,-0.898,0.461,-0.182
23.267,-0.902,0.463,-0.184
23.277,-0.902,0.465,-0.184
23.287,-0.902,0.467,-0.184
23.297,-0.902,0.465,-0.184
23.307,-0.900,0.469,-0.186
23.316,-0.904,0.465,-0.184
23.326,-0.900,0.469,-0.184
23.336,-0.902,0.475,-0.182
23.346,-0.902,0.471,-0.182
23.356,-0.900,0.463,-0.186
23.366,-0.900,0.455,-0.184
23.376,-0.900,0.453,-0.184
23.386,-0.906,0.461,-0.182
23.396,-0.904,0.463,-0.180
23.406,-0.906,0.467,-0.180
23.416,-0.906,0.463,-0.180
23.426,-0.904,0.461,-0.182
23.436,-0.898,0.461,-0.182
23.445,-0.902,0.459,-0.178
23.455,-0.902,0.463,-0.184
23.465,-0.898,0.463,-0.180
23.475,-0.900,0.465,-0.182
23.485,-0.900,0.463,-0.180
23.495,-0.902,0.467,-0.182
23.505,-0.904,0.463,-0.184
23.515,-0.900,0.463,-0.182
23.525,-0.900,0.463,-0.182
23.535,-0.898,0.465,-0.184
23.545,-0.900,0.467,-0.186
23.555,-0.900,0.469,-0.182
23.564,-0.904,0.467,-0.182
23.574,-0.904,0.467,-0.186
23.584,-0.902,0.463,-0.180
23.594,-0.904,0.463,-0.184
23.604,-0.908,0.465,-0.184
23.614,-0.900,0.465,-0.184
23.624,-0.902,0.465,-0.186
23.634,-0.900,0.465,-0.186
23.644,-0.906,0.465,-0.186
23.654,-0.904,0.467,-0.184
23.664,-0.902,0.471,-0.180
23.674,-0.898,0.475,-0.184
23.684,-0.898,0.469,-0.180
23.693,-0.896,0.457,-0.184
23.703,-0.900,0.451,-0.186
23.713,-0.898,0.459,-0.182
23.723,-0.904,0.463,-0.182
23.733,-0.906,0.467,-0.184
23.743,-0.916,0.477,-0.186
23.753,-0.910,0.469,-0.184
23.763,-0.906,0.469,-0.186
23.773,-0.902,0.465,-0.188
23.783,-0.900,0.465,-0.188
23.793,-0.896,0.465,-0.184
23.803,-0.896,0.463,-0.184
23.813,-0.895,0.465,-0.186
23.822,-0.893,0.463,-0.182
23.832,-0.896,0.463,-0.182
23.842,-0.898,0.467,-0.180
23.852,-0.896,0.463,-0.178
23.862,-0.898,0.463,-0.178
23.872,-0.900,0.461,-0.182
23.882,-0.902,0.463,-0.184
23.892,-0.904,0.467,-0.182
23.902,-0.904,0.467,-0.184
23.912,-0.904,0.469,-0.182
23.922,-0.904,0.471,-0.186
23.932,-0.904,0.455,-0.182
23.941,-0.900,0.457,-0.186
23.951,-0.902,0.459,-0.182
23.961,-0.906,0.465,-0.184
23.971,-0.904,0.469,-0.180
23.981,-0.908,0.469,-0.184
23.991,-0.906,0.465,-0.186
24.001,-0.902,0.463,-0.184
24.011,-0.904,0.465,-0.182
24.021,-0.902,0.467,-0.182
24.031,-0.898,0.465,-0.182
24.041,-0.898,0.463,-0.182
24.051,-0.902,0.463,-0.182
24.061,-0.904,0.463,-0.184
24.070,-0.902,0.463,-0.182
24.080,-0.902,0.463,-0.180
24.090,-0.904,0.465,-0.182
24.100,-0.902,0.463,-0.182
24.110,-0.904,0.469,-0.182
24.120,-0.902,0.469,-0.182
24.130,-0.904,0.467,-0.184
24.140,-0.902,0.467,-0.186
24.150,-0.902,0.463,-0.182
24.160,-0.898,0.463,-0.184
24.170,-0.900,0.461,-0.182
24.180,-0.900,0.461,-0.184
24.189,-0.895,0.461,-0.182
24.199,-0.906,0.465,-0.178
24.209,-0.904,0.465,-0.178
24.219,-0.906,0.465,-0.178
24.229,-0.904,0.467,-0.182
24.239,-0.904,0.465,-0.178
24.249,-0.904,0.473,-0.180
24.259,-0.902,0.473,-0.182
24.269,-0.900,0.471,-0.182
24.279,-0.898,0.451,-0.184
24.289,-0.898,0.449,-0.186
24.299,-0.902,0.457,-0.180
24.309,-0.906,0.469,-0.178
24.318,-0.906,0.477,-0.172
24.328,-0.912,0.475,-0.184
24.338,-0.910,0.471,-0.176
24.348,-0.904,0.467,-0.184
24.358,-0.902,0.467,-0.182
24.368,-0.895,0.465,-0.184
24.378,-0.900,0.465,-0.180
24.388,-0.896,0.463,-0.182
24.398,-0.900,0.465,-0.182
24.408,-0.900,0.465,-0.180
24.418,-0.902,0.467,-0.184
24.428,-0.906,0.465,-0.182
24.437,-0.906,0.459,-0.182
24.447,-0.910,0.463,-0.184
24.457,-0.920,0.461,-0.186
24.467,-0.930,0.459,-0.193
24.477,-0.934,0.463,-0.191
24.487,-0.943,0.465,-0.195
24.497,-0.949,0.449,-0.197
24.507,-0.963,0.436,-0.195
24.517,-0.990,0.438,-0.197
24.527,-1.004,0.432,-0.211
24.537,-1.018,0.443,-0.221
24.547,-1.027,0.471,-0.221
24.557,-1.035,0.508,-0.213
24.566,-1.031,0.539,-0.201
24.576,-1.012,0.555,-0.193
24.586,-0.982,0.559,-0.188
24.596,-0.959,0.549,-0.178
24.606,-0.953,0.541,-0.168
24.616,-0.930,0.531,-0.170
24.626,-0.904,0.516,-0.164
24.636,-0.889,0.502,-0.148
24.646,-0.895,0.525,-0.154
24.656,-0.898,0.539,-0.145
24.666,-0.900,0.541,-0.125
24.676,-0.908,0.574,-0.121
24.685,-0.896,0.578,-0.121
24.695,-0.873,0.574,-0.111
24.705,-0.881,0.605,-0.105
24.715,-0.848,0.594,-0.111
24.725,-0.826,0.590,-0.096
24.735,-0.826,0.611,-0.080
24.745,-0.830,0.623,-0.078
24.755,-0.809,0.621,-0.066
24.765,-0.816,0.615,-0.055
24.775,-0.822,0.627,-0.061
24.785,-0.807,0.635,-0.041
24.795,-0.801,0.664,-0.039
24.805,-0.789,0.684,-0.029
24.814,-0.783,0.699,-0.021
24.824,-0.766,0.699,-0.025
24.834,-0.752,0.699,-0.008
24.844,-0.740,0.697,-0.002
24.854,-0.742,0.723,0.008
24.864,-0.732,0.734,0.021
24.874,-0.721,0.738,0.021
24.884,-0.680,0.746,0.020
24.894,-0.643,0.756,0.021
24.904,-0.619,0.770,0.018
24.914,-0.596,0.795,0.020
24.924,-0.596,0.809,0.023
24.933,-0.605,0.820,0.031
24.943,-0.592,0.822,0.041
24.953,-0.561,0.818,0.047
24.963,-0.516,0.830,0.047
24.973,-0.500,0.818,0.045
24.983,-0.486,0.812,0.043
24.993,-0.484,0.809,0.059
25.003,-0.488,0.799,0.059
25.013,-0.463,0.811,0.062
25.023,-0.475,0.820,0.072
25.033,-0.473,0.834,0.084
25.043,-0.457,0.863,0.084
25.053,-0.455,0.873,0.082
25.062,-0.451,0.879,0.088
25.072,-0.447,0.877,0.080
25.082,-0.449,0.891,0.080
25.092,-0.438,0.910,0.070
25.102,-0.443,0.900,0.070
25.112,-0.457,0.896,0.068
25.122,-0.471,0.896,0.074
25.132,-0.461,0.920,0.074
25.142,-0.455,0.938,0.072
25.152,-0.449,0.934,0.072
25.162,-0.432,0.934,0.078
25.172,-0.420,0.924,0.076
25.181,-0.430,0.896,0.070
25.191,-0.434,0.889,0.070
25.201,-0.422,0.902,0.072
25.211,-0.422,0.914,0.074
25.221,-0.426,0.906,0.078
25.231,-0.420,0.896,0.082
25.241,-0.418,0.900,0.084
25.251,-0.410,0.904,0.084
25.261,-0.375,0.941,0.086
25.271,-0.377,0.922,0.092
25.281,-0.391,0.895,0.082
25.291,-0.391,0.875,0.090
25.301,-0.408,0.855,0.107
25.310,-0.383,0.893,0.105
25.320,-0.361,0.904,0.113
25.330,-0.359,0.904,0.105
25.340,-0.348,0.914,0.105
25.350,-0.342,0.918,0.100
25.360,-0.332,0.959,0.094
25.370,-0.334,0.973,0.092
25.380,-0.340,0.961,0.084
25.390,-0.350,0.961,0.082
25.400,-0.346,0.986,0.084
25.410,-0.350,0.979,0.086
25.420,-0.363,0.969,0.084
25.429,-0.387,0.965,0.090
25.439,-0.414,0.961,0.090
25.449,-0.436,0.951,0.098
25.459,-0.443,0.951,0.107
25.469,-0.459,0.928,0.109
25.479,-0.463,0.908,0.117
25.489,-0.463,0.891,0.123
25.499,-0.451,0.887,0.125
25.509,-0.418,0.881,0.123
25.519,-0.406,0.900,0.127
25.529,-0.391,0.916,0.121
25.539,-0.379,0.930,0.119
25.549,-0.387,0.936,0.111
25.558,-0.395,0.939,0.111
25.568,-0.400,0.947,0.102
25.578,-0.408,0.965,0.102
25.588,-0.406,0.973,0.090
25.598,-0.406,0.986,0.090
25.608,-0.404,0.998,0.082
25.618,-0.395,0.998,0.084
25.628,-0.396,0.996,0.082
25.638,-0.398,0.990,0.084
25.648,-0.408,0.973,0.078
25.658,-0.426,0.945,0.078
25.668,-0.436,0.914,0.086
25.677,-0.434,0.904,0.096
25.687,-0.420,0.910,0.105
25.697,-0.416,0.916,0.117
25.707,-0.416,0.914,0.119
25.717,-0.416,0.916,0.121
25.727,-0.420,0.918,0.119
25.737,-0.420,0.926,0.115
25.747,-0.418,0.914,0.115
25.757,-0.412,0.912,0.115
25.767,-0.402,0.904,0.115
25.777,-0.400,0.900,0.109
25.787,-0.398,0.895,0.111
25.797,-0.408,0.889,0.117
25.806,-0.420,0.904,0.115
25.816,-0.430,0.916,0.117
25.826,-0.424,0.934,0.111
25.836,-0.416,0.941,0.113
25.846,-0.400,0.947,0.107
25.856,-0.400,0.947,0.105
25.866,-0.375,0.955,0.102
25.876,-0.354,0.953,0.092
25.886,-0.342,0.959,0.100
25.896,-0.334,0.926,0.111
25.906,-0.348,0.908,0.117
25.916,-0.352,0.900,0.119
25.925,-0.365,0.902,0.117
25.935,-0.387,0.904,0.121
25.945,-0.402,0.920,0.115
25.955,-0.414,0.916,0.111
25.965,-0.438,0.938,0.098
25.975,-0.445,0.939,0.092
25.985,-0.457,0.943,0.088
25.995,-0.471,0.943,0.088
26.005,-0.479,0.961,0.084
26.015,-0.480,0.963,0.080
26.025,-0.473,0.963,0.076
26.035,-0.447,0.963,0.070
26.045,-0.416,0.949,0.064
26.054,-0.402,0.918,0.061
26.064,-0.408,0.887,0.072
26.074,-0.420,0.867,0.088
26.084,-0.434,0.863,0.092
26.094,-0.447,0.854,0.105
26.104,-0.457,0.863,0.109
26.114,-0.459,0.867,0.109
26.124,-0.463,0.871,0.115
26.134,-0.449,0.887,0.109
26.144,-0.447,0.896,0.109
26.154,-0.453,0.912,0.104
26.164,-0.453,0.936,0.109
26.173,-0.459,0.957,0.100
26.183,-0.461,0.969,0.094
26.193,-0.457,0.984,0.086
26.203,-0.465,0.979,0.082
26.213,-0.486,0.945,0.074
26.223,-0.506,0.918,0.080
26.233,-0.520,0.914,0.092
26.243,-0.516,0.891,0.098
26.253,-0.514,0.869,0.102
26.263,-0.494,0.859,0.111
26.273,-0.477,0.852,0.117
26.283,-0.463,0.842,0.111
26.293,-0.465,0.840,0.109
26.302,-0.469,0.840,0.109
26.312,-0.471,0.852,0.105
26.322,-0.479,0.863,0.100
26.332,-0.488,0.875,0.098
26.342,-0.498,0.877,0.090
26.352,-0.508,0.900,0.088
26.362,-0.512,0.904,0.096
26.372,-0.523,0.898,0.096
26.382,-0.537,0.881,0.100
26.392,-0.553,0.877,0.104
26.402,-0.568,0.867,0.107
26.412,-0.568,0.867,0.102
26.422,-0.566,0.877,0.107
26.431,-0.541,0.891,0.111
26.441,-0.502,0.898,0.107
26.451,-0.488,0.908,0.107
26.461,-0.490,0.932,0.107
26.471,-0.502,0.928,0.109
26.481,-0.520,0.918,0.111
26.491,-0.527,0.906,0.109
26.501,-0.531,0.893,0.104
26.511,-0.535,0.887,0.098
26.521,-0.537,0.883,0.092
26.531,-0.533,0.893,0.094
26.541,-0.523,0.906,0.092
26.550,-0.512,0.918,0.088
26.560,-0.506,0.932,0.090
26.570,-0.494,0.943,0.088
26.580,-0.492,0.941,0.080
26.590,-0.492,0.934,0.086
26.600,-0.492,0.922,0.086
26.610,-0.486,0.920,0.094
26.620,-0.482,0.912,0.088
26.630,-0.477,0.908,0.096
26.640,-0.465,0.908,0.100
26.650,-0.451,0.906,0.102
26.660,-0.439,0.910,0.105
26.670,-0.443,0.906,0.111
26.679,-0.445,0.900,0.117
26.689,-0.451,0.893,0.123
26.699,-0.453,0.887,0.117
26.709,-0.453,0.877,0.117
26.719,-0.455,0.887,0.115
26.729,-0.455,0.891,0.115
26.739,-0.461,0.895,0.113
26.749,-0.467,0.896,0.113
26.759,-0.475,0.908,0.107
26.769,-0.482,0.910,0.107
26.779,-0.488,0.916,0.111
26.789,-0.498,0.924,0.107
26.798,-0.492,0.912,0.111
26.808,-0.498,0.916,0.109
26.818,-0.498,0.908,0.109
26.828,-0.500,0.896,0.102
26.838,-0.502,0.891,0.109
26.848,-0.510,0.887,0.111
26.858,-0.506,0.885,0.105
26.868,-0.502,0.885,0.109
26.878,-0.488,0.891,0.098
26.888,-0.482,0.893,0.107
26.898,-0.475,0.896,0.104
26.908,-0.473,0.896,0.104
26.918,-0.480,0.893,0.104
26.927,-0.486,0.896,0.105
26.937,-0.492,0.893,0.109
26.947,-0.500,0.891,0.105
26.957,-0.504,0.896,0.111
26.967,-0.504,0.895,0.111
26.977,-0.506,0.893,0.111
26.987,-0.510,0.898,0.109
26.997,-0.510,0.898,0.113
27.007,-0.510,0.891,0.119
27.017,-0.508,0.893,0.121
27.027,-0.506,0.891,0.125
27.037,-0.510,0.895,0.127
27.046,-0.502,0.895,0.125
27.056,-0.500,0.877,0.125
27.066,-0.496,0.881,0.119
27.076,-0.492,0.883,0.115
27.086,-0.492,0.881,0.127
27.096,-0.490,0.895,0.127
27.106,-0.488,0.898,0.127
27.116,-0.488,0.898,0.127
27.126,-0.486,0.896,0.129
27.136,-0.488,0.893,0.123
27.146,-0.488,0.891,0.125
27.156,-0.494,0.889,0.127
27.166,-0.498,0.887,0.123
27.175,-0.504,0.887,0.129
27.185,-0.500,0.887,0.125
27.195,-0.496,0.889,0.121
27.205,-0.496,0.889,0.123
27.215,-0.500,0.893,0.125
27.225,-0.500,0.895,0.127
27.235,-0.502,0.895,0.121
27.245,-0.504,0.891,0.125
27.255,-0.502,0.893,0.121
27.265,-0.508,0.895,0.125
27.275,-0.502,0.896,0.119
27.285,-0.504,0.895,0.119
27.294,-0.506,0.891,0.123
27.304,-0.502,0.887,0.117
27.314,-0.504,0.887,0.119
27.324,-0.506,0.891,0.123
27.334,-0.508,0.893,0.119
27.344,-0.508,0.887,0.123
27.354,-0.508,0.887,0.121
27.364,-0.512,0.881,0.127
27.374,-0.512,0.883,0.123
27.384,-0.512,0.885,0.123
27.394,-0.510,0.891,0.121
27.404,-0.512,0.893,0.125
27.414,-0.506,0.887,0.123
27.423,-0.506,0.887,0.121
27.433,-0.504,0.889,0.119
27.443,-0.502,0.893,0.125
27.453,-0.500,0.887,0.121
27.463,-0.502,0.891,0.121
27.473,-0.508,0.893,0.123
27.483,-0.504,0.895,0.121
27.493,-0.508,0.891,0.123
27.503,-0.510,0.891,0.129
27.513,-0.506,0.887,0.125
27.523,-0.510,0.887,0.127
27.533,-0.506,0.883,0.127
27.542,-0.510,0.885,0.129
27.552,-0.510,0.879,0.129
27.562,-0.514,0.881,0.125
27.572,-0.510,0.881,0.127
27.582,-0.508,0.883,0.125
27.592,-0.506,0.891,0.127
27.602,-0.506,0.883,0.119
27.612,-0.512,0.881,0.121
27.622,-0.514,0.881,0.117
27.632,-0.516,0.885,0.121
27.642,-0.520,0.891,0.125
27.652,-0.521,0.898,0.121
27.662,-0.521,0.900,0.119
27.671,-0.518,0.898,0.123
27.681,-0.518,0.893,0.119
27.691,-0.514,0.885,0.117
27.701,-0.510,0.883,0.117
27.711,-0.506,0.881,0.115
27.721,-0.500,0.885,0.113
27.731,-0.494,0.879,0.113
27.741,-0.496,0.883,0.113
27.751,-0.494,0.881,0.113
27.761,-0.494,0.885,0.113
27.771,-0.506,0.885,0.113
27.781,-0.514,0.889,0.113
27.790,-0.520,0.889,0.113
27.800,-0.521,0.887,0.113
27.810,-0.520,0.891,0.113
27.820,-0.521,0.889,0.111
27.830,-0.523,0.889,0.111
27.840,-0.523,0.883,0.113
27.850,-0.521,0.879,0.113
27.860,-0.523,0.881,0.111
27.870,-0.521,0.883,0.111
27.880,-0.514,0.883,0.117
27.890,-0.512,0.889,0.117
27.900,-0.510,0.883,0.115
27.910,-0.510,0.885,0.117
27.919,-0.514,0.883,0.113
27.929,-0.516,0.883,0.119
27.939,-0.518,0.881,0.115
27.949,-0.518,0.883,0.115
27.959,-0.521,0.885,0.115
27.969,-0.525,0.885,0.111
27.979,-0.525,0.885,0.115
27.989,-0.525,0.885,0.113
27.999,-0.523,0.887,0.111
28.009,-0.521,0.887,0.111
28.019,-0.520,0.881,0.109
28.029,-0.518,0.889,0.111
28.038,-0.516,0.887,0.111
28.048,-0.512,0.889,0.111
28.058,-0.514,0.885,0.107
28.068,-0.512,0.885,0.109
28.078,-0.508,0.883,0.107
28.088,-0.504,0.881,0.105
28.098,-0.506,0.885,0.109
28.108,-0.506,0.885,0.111
28.118,-0.506,0.885,0.111
28.128,-0.508,0.889,0.104
28.138,-0.504,0.891,0.113
28.148,-0.508,0.887,0.107
28.158,-0.506,0.887,0.111
28.167,-0.514,0.887,0.111
28.177,-0.518,0.883,0.109
28.187,-0.521,0.887,0.113
28.197,-0.527,0.891,0.113
28.207,-0.525,0.895,0.119
28.217,-0.527,0.898,0.119
28.227,-0.521,0.893,0.119
28.237,-0.518,0.889,0.117
28.247,-0.514,0.883,0.117
28.257,-0.508,0.877,0.111
28.267,-0.508,0.875,0.117
28.277,-0.510,0.873,0.115
28.286,-0.510,0.875,0.117
28.296,-0.512,0.875,0.119
28.306,-0.514,0.875,0.117
28.316,-0.516,0.877,0.115
28.326,-0.520,0.879,0.115
28.336,-0.518,0.887,0.117
28.346,-0.520,0.885,0.115
28.356,-0.518,0.885,0.113
28.366,-0.518,0.883,0.117
28.376,-0.514,0.891,0.117
28.386,-0.508,0.885,0.115
28.396,-0.510,0.881,0.115
28.406,-0.518,0.877,0.113
28.415,-0.521,0.877,0.119
28.425,-0.527,0.883,0.119
28.435,-0.531,0.885,0.125
28.445,-0.531,0.883,0.123
28.455,-0.521,0.877,0.123
28.465,-0.518,0.875,0.125
28.475,-0.523,0.881,0.129
28.485,-0.525,0.879,0.127
28.495,-0.521,0.877,0.123
28.505,-0.525,0.873,0.125
28.515,-0.527,0.875,0.123
28.525,-0.533,0.879,0.125
28.534,-0.521,0.869,0.117
28.544,-0.533,0.889,0.131
28.554,-0.539,0.885,0.125
28.564,-0.531,0.875,0.123
28.574,-0.531,0.873,0.127
28.584,-0.535,0.871,0.125
28.594,-0.527,0.869,0.123
28.604,-0.531,0.869,0.123
28.614,-0.531,0.869,0.123
28.624,-0.527,0.871,0.123
28.634,-0.529,0.871,0.125
28.644,-0.533,0.875,0.125
28.654,-0.531,0.875,0.121
28.663,-0.537,0.879,0.125
28.673,-0.525,0.881,0.123
28.683,-0.523,0.877,0.125
28.693,-0.520,0.877,0.127
28.703,-0.518,0.877,0.127
28.713,-0.525,0.867,0.125
28.723,-0.533,0.869,0.123
28.733,-0.541,0.875,0.127
28.743,-0.547,0.883,0.125
28.753,-0.545,0.881,0.127
28.763,-0.549,0.883,0.129
28.773,-0.543,0.881,0.135
28.782,-0.549,0.855,0.125
28.792,-0.531,0.859,0.113
28.802,-0.535,0.869,0.131
28.812,-0.539,0.867,0.123
28.822,-0.535,0.863,0.127
28.832,-0.539,0.859,0.121
28.842,-0.539,0.865,0.123
28.852,-0.543,0.869,0.125
28.862,-0.541,0.869,0.123
28.872,-0.547,0.873,0.123
28.882,-0.547,0.871,0.127
28.892,-0.553,0.871,0.127
28.902,-0.547,0.871,0.127
28.911,-0.543,0.875,0.125
28.921,-0.543,0.869,0.127
28.931,-0.539,0.863,0.123
28.941,-0.541,0.859,0.123
28.951,-0.545,0.863,0.119
28.961,-0.551,0.867,0.121
28.971,-0.549,0.871,0.125
28.981,-0.551,0.873,0.119
28.991,-0.547,0.871,0.121
29.001,-0.549,0.871,0.119
29.011,-0.545,0.871,0.121
29.021,-0.543,0.867,0.119
29.031,-0.541,0.867,0.119
29.040,-0.543,0.871,0.119
29.050,-0.547,0.867,0.119
29.060,-0.549,0.863,0.119
29.070,-0.557,0.863,0.121
29.080,-0.559,0.867,0.119
29.090,-0.553,0.865,0.121
29.100,-0.549,0.865,0.119
29.110,-0.549,0.867,0.121
29.120,-0.543,0.865,0.121
29.130,-0.543,0.869,0.123
29.140,-0.541,0.865,0.123
29.150,-0.541,0.859,0.121
29.159,-0.549,0.855,0.125
29.169,-0.551,0.859,0.123
29.179,-0.555,0.863,0.121
29.189,-0.557,0.867,0.125
29.199,-0.557,0.871,0.121
29.209,-0.559,0.875,0.123
29.219,-0.551,0.871,0.129
29.229,-0.543,0.871,0.123
29.239,-0.539,0.867,0.123
29.249,-0.541,0.857,0.121
29.259,-0.545,0.854,0.125
29.269,-0.551,0.855,0.123
29.279,-0.559,0.865,0.125
29.288,-0.559,0.875,0.125
29.298,-0.561,0.879,0.129
29.308,-0.562,0.871,0.127
29.318,-0.562,0.867,0.125
29.328,-0.557,0.863,0.127
29.338,-0.557,0.861,0.127
29.348,-0.555,0.863,0.127
29.358,-0.549,0.863,0.127
29.368,-0.547,0.859,0.129
29.378,-0.547,0.857,0.127
29.388,-0.543,0.859,0.127
29.398,-0.545,0.857,0.129
29.407,-0.547,0.861,0.129
29.417,-0.549,0.861,0.131
29.427,-0.553,0.857,0.133
29.437,-0.555,0.857,0.131
29.447,-0.559,0.863,0.129
29.457,-0.557,0.863,0.133
29.467,-0.553,0.863,0.133
29.477,-0.553,0.861,0.129
29.487,-0.549,0.859,0.129
29.497,-0.551,0.863,0.129
29.507,-0.555,0.865,0.129
29.517,-0.549,0.869,0.129
29.527,-0.553,0.867,0.129
29.536,-0.557,0.863,0.125
29.546,-0.559,0.865,0.129
29.556,-0.559,0.863,0.127
29.566,-0.559,0.861,0.125
29.576,-0.557,0.861,0.129
29.586,-0.555,0.861,0.131
29.596,-0.555,0.863,0.129
29.606,-0.555,0.859,0.129
29.616,-0.551,0.857,0.129
29.626,-0.551,0.857,0.127
29.636,-0.547,0.861,0.127
29.646,-0.551,0.867,0.129
29.655,-0.551,0.867,0.127
29.665,-0.555,0.865,0.129
29.675,-0.553,0.865,0.131
29.685,-0.553,0.863,0.125
29.695,-0.559,0.861,0.129
29.705,-0.555,0.861,0.127
29.715,-0.557,0.861,0.131
29.725,-0.555,0.863,0.125
29.735,-0.557,0.863,0.127
29.745,-0.557,0.863,0.129
29.755,-0.553,0.863,0.135
29.765,-0.551,0.857,0.129
29.775,-0.551,0.861,0.133
29.784,-0.549,0.857,0.129
29.794,-0.555,0.854,0.127
29.804,-0.555,0.848,0.127
29.814,-0.562,0.855,0.131
29.824,-0.568,0.865,0.133
29.834,-0.566,0.867,0.133
29.844,-0.566,0.869,0.131
29.854,-0.564,0.863,0.127
29.864,-0.562,0.859,0.131
29.874,-0.561,0.857,0.129
29.884,-0.557,0.859,0.131
29.894,-0.555,0.857,0.127
29.903,-0.553,0.859,0.127
29.913,-0.553,0.859,0.125
29.923,-0.551,0.859,0.125
29.933,-0.547,0.863,0.125
29.943,-0.549,0.863,0.129
29.953,-0.551,0.867,0.129
29.963,-0.555,0.865,0.125
29.973,-0.559,0.863,0.127
29.983,-0.557,0.861,0.127
29.993,-0.553,0.865,0.123
30.003,-0.545,0.861,0.127
30.013,-0.547,0.854,0.129
30.023,-0.557,0.854,0.127
30.032,-0.559,0.857,0.127
30.042,-0.564,0.861,0.125
30.052,-0.564,0.863,0.127
30.062,-0.562,0.867,0.127
30.072,-0.562,0.867,0.125
30.082,-0.559,0.865,0.125
30.092,-0.559,0.865,0.125
30.102,-0.557,0.857,0.127
30.112,-0.555,0.859,0.123
30.122,-0.557,0.859,0.127
30.132,-0.557,0.859,0.127
30.142,-0.559,0.859,0.127
30.151,-0.557,0.863,0.123
30.161,-0.553,0.857,0.125
30.171,-0.557,0.857,0.123
30.181,-0.557,0.859,0.125
30.191,-0.557,0.859,0.119
30.201,-0.559,0.859,0.127
30.211,-0.559,0.859,0.125
30.221,-0.561,0.859,0.125
30.231,-0.561,0.859,0.127
30.241,-0.562,0.859,0.123
30.251,-0.562,0.857,0.125
30.261,-0.559,0.855,0.127
30.271,-0.559,0.855,0.127
30.280,-0.559,0.859,0.125
30.290,-0.564,0.861,0.125
30.300,-0.561,0.865,0.127
30.310,-0.561,0.861,0.129
30.320,-0.555,0.861,0.129
30.330,-0.551,0.861,0.131
30.340,-0.557,0.857,0.127
30.350,-0.559,0.850,0.123
30.360,-0.561,0.852,0.125
30.370,-0.568,0.855,0.125
30.380,-0.568,0.865,0.125
30.390,-0.568,0.875,0.127
30.399,-0.564,0.871,0.127
30.409,-0.568,0.865,0.125
30.419,-0.564,0.859,0.127
30.429,-0.562,0.857,0.123
30.439,-0.559,0.859,0.125
30.449,-0.557,0.855,0.129
30.459,-0.555,0.854,0.125
30.469,-0.555,0.855,0.123
30.479,-0.553,0.855,0.123
30.489,-0.555,0.857,0.125
30.499,-0.555,0.857,0.129
30.509,-0.557,0.857,0.127
30.519,-0.564,0.857,0.127
30.528,-0.564,0.861,0.127
30.538,-0.561,0.859,0.129
30.548,-0.555,0.859,0.127
30.558,-0.555,0.859,0.127
30.568,-0.557,0.854,0.125
30.578,-0.557,0.859,0.127
30.588,-0.562,0.863,0.123
30.598,-0.562,0.865,0.127
30.608,-0.562,0.865,0.127
30.618,-0.559,0.867,0.127
30.628,-0.557,0.865,0.125
30.638,-0.559,0.855,0.127
30.647,-0.557,0.857,0.127
30.657,-0.561,0.859,0.129
30.667,-0.562,0.857,0.127
30.677,-0.561,0.855,0.125
30.687,-0.562,0.855,0.125
30.697,-0.562,0.857,0.127
30.707,-0.561,0.855,0.127
30.717,-0.559,0.857,0.127
30.727,-0.561,0.857,0.129
30.737,-0.561,0.855,0.127
30.747,-0.557,0.855,0.129
30.757,-0.559,0.861,0.129
30.767,-0.561,0.861,0.129
30.776,-0.559,0.861,0.125
30.786,-0.561,0.859,0.129
30.796,-0.559,0.857,0.123
30.806,-0.559,0.855,0.125
30.816,-0.557,0.859,0.125
30.826,-0.559,0.859,0.125
30.836,-0.562,0.861,0.125
30.846,-0.562,0.865,0.129
30.856,-0.557,0.859,0.131
30.866,-0.555,0.857,0.123
30.876,-0.555,0.854,0.129
30.886,-0.559,0.852,0.127
30.895,-0.562,0.850,0.125
30.905,-0.564,0.855,0.127
30.915,-0.572,0.859,0.127
30.925,-0.572,0.877,0.129
30.935,-0.568,0.873,0.131
30.945,-0.568,0.869,0.127
30.955,-0.566,0.859,0.127
30.965,-0.562,0.857,0.127
30.975,-0.559,0.854,0.127
30.985,-0.557,0.852,0.125
30.995,-0.559,0.850,0.125
31.005,-0.559,0.852,0.127
31.015,-0.557,0.854,0.125
31.024,-0.557,0.854,0.125
31.034,-0.555,0.857,0.127
31.044,-0.561,0.859,0.129
31.054,-0.562,0.861,0.127
31.064,-0.564,0.855,0.125
31.074,-0.559,0.857,0.129
31.084,-0.559,0.863,0.131
31.094,-0.555,0.861,0.127
31.104,-0.557,0.854,0.125
31.114,-0.559,0.855,0.123
31.124,-0.562,0.857,0.123
31.134,-0.564,0.857,0.121
31.143,-0.562,0.861,0.125
31.153,-0.566,0.861,0.129
31.163,-0.564,0.863,0.125
31.173,-0.562,0.859,0.125
31.183,-0.564,0.854,0.125
31.193,-0.561,0.855,0.125
31.203,-0.557,0.855,0.123
31.213,-0.559,0.854,0.127
31.223,-0.559,0.855,0.125
31.233,-0.559,0.855,0.127
31.243,-0.559,0.857,0.127
31.253,-0.561,0.857,0.123
31.263,-0.564,0.857,0.123
31.272,-0.566,0.859,0.125
31.282,-0.564,0.859,0.125
31.292,-0.564,0.859,0.123
31.302,-0.562,0.859,0.123
31.312,-0.561,0.861,0.125
31.322,-0.562,0.861,0.121
31.332,-0.561,0.854,0.125
31.342,-0.561,0.859,0.127
31.352,-0.561,0.857,0.121
31.362,-0.562,0.854,0.121
31.372,-0.568,0.859,0.125
31.382,-0.564,0.861,0.125
31.391,-0.561,0.854,0.123
31.401,-0.559,0.859,0.125
31.411,-0.561,0.855,0.125
31.421,-0.561,0.854,0.123
31.431,-0.561,0.852,0.119
31.441,-0.570,0.859,0.129
31.451,-0.570,0.865,0.127
31.461,-0.568,0.875,0.125
31.471,-0.568,0.867,0.129
31.481,-0.564,0.861,0.125
31.491,-0.562,0.854,0.125
31.501,-0.561,0.852,0.125
31.511,-0.559,0.850,0.131
31.520,-0.561,0.848,0.127
31.530,-0.559,0.848,0.129
31.540,-0.561,0.854,0.129
31.550,-0.562,0.855,0.129
31.560,-0.562,0.859,0.125
31.570,-0.561,0.857,0.129
31.580,-0.561,0.859,0.125
31.590,-0.564,0.867,0.125
31.600,-0.562,0.857,0.129
31.610,-0.561,0.869,0.125
31.620,-0.559,0.863,0.127
31.630,-0.559,0.859,0.127
31.640,-0.562,0.852,0.123
31.649,-0.561,0.852,0.125
31.659,-0.564,0.852,0.123
31.669,-0.568,0.859,0.127
31.679,-0.568,0.861,0.127
31.689,-0.566,0.865,0.127
31.699,-0.564,0.861,0.125
31.709,-0.564,0.855,0.127
31.719,-0.566,0.857,0.127
31.729,-0.562,0.854,0.129
31.739,-0.562,0.855,0.123
31.749,-0.562,0.855,0.125
31.759,-0.562,0.855,0.129
31.768,-0.559,0.854,0.125
31.778,-0.562,0.855,0.125
31.788,-0.561,0.854,0.125
31.798,-0.564,0.855,0.125
31.808,-0.562,0.861,0.125
31.818,-0.564,0.857,0.127
31.828,-0.566,0.859,0.127
31.838,-0.566,0.857,0.123
31.848,-0.566,0.857,0.125
31.858,-0.564,0.857,0.123
31.868,-0.562,0.855,0.123
31.878,-0.559,0.855,0.123
31.888,-0.559,0.855,0.123
31.897,-0.562,0.859,0.123
31.907,-0.566,0.861,0.127
31.917,-0.568,0.863,0.125
31.927,-0.561,0.857,0.129
31.937,-0.559,0.857,0.127
31.947,-0.559,0.855,0.125
31.957,-0.562,0.854,0.121
31.967,-0.564,0.854,0.125
31.977,-0.568,0.857,0.125
31.987,-0.572,0.863,0.125
31.997,-0.568,0.875,0.131
32.007,-0.572,0.865,0.127
32.016,-0.566,0.861,0.127
32.026,-0.566,0.855,0.125
32.036,-0.561,0.855,0.127
32.046,-0.559,0.855,0.127
32.056,-0.561,0.854,0.125
32.066,-0.559,0.852,0.125
32.076,-0.557,0.854,0.125
32.086,-0.557,0.850,0.127
32.096,-0.557,0.855,0.129
32.106,-0.561,0.855,0.127
32.116,-0.562,0.859,0.127
32.126,-0.574,0.855,0.125
32.136,-0.576,0.854,0.127
32.145,-0.574,0.857,0.129
32.155,-0.566,0.863,0.125
32.165,-0.561,0.863,0.127
32.175,-0.555,0.852,0.123
32.185,-0.555,0.854,0.125
32.195,-0.557,0.850,0.127
32.205,-0.562,0.854,0.125
32.215,-0.564,0.857,0.127
32.225,-0.564,0.859,0.125
32.235,-0.570,0.861,0.125
32.245,-0.568,0.859,0.127
32.255,-0.566,0.863,0.125
32.264,-0.566,0.857,0.127
32.274,-0.561,0.859,0.131
32.284,-0.559,0.859,0.127
32.294,-0.557,0.854,0.129
32.304,-0.559,0.854,0.129
32.314,-0.561,0.854,0.127
32.324,-0.555,0.857,0.129
32.334,-0.557,0.861,0.129
32.344,-0.557,0.857,0.131
32.354,-0.555,0.859,0.127
32.364,-0.562,0.857,0.129
32.374,-0.564,0.859,0.123
32.384,-0.566,0.855,0.125
32.393,-0.574,0.854,0.127
32.403,-0.570,0.846,0.125
32.413,-0.576,0.859,0.119
32.423,-0.568,0.859,0.123
32.433,-0.562,0.863,0.125
32.443,-0.559,0.867,0.123
32.453,-0.553,0.863,0.127
32.463,-0.549,0.859,0.125
32.473,-0.551,0.855,0.129
32.483,-0.555,0.852,0.131
32.493,-0.564,0.844,0.133
32.503,-0.568,0.846,0.131
32.512,-0.582,0.848,0.133
32.522,-0.582,0.854,0.135
32.532,-0.592,0.861,0.131
32.542,-0.594,0.859,0.125
32.552,-0.590,0.855,0.127
32.562,-0.584,0.852,0.123
32.572,-0.568,0.855,0.121
32.582,-0.559,0.854,0.121
32.592,-0.549,0.854,0.125
32.602,-0.549,0.854,0.123
32.612,-0.551,0.848,0.127
32.622,-0.559,0.848,0.121
32.632,-0.566,0.848,0.121
32.641,-0.566,0.855,0.123
32.651,-0.570,0.859,0.123
32.661,-0.572,0.865,0.121
32.671,-0.574,0.863,0.123
32.681,-0.568,0.863,0.121
32.691,-0.568,0.863,0.127
32.701,-0.566,0.859,0.127
32.711,-0.564,0.848,0.127
32.721,-0.561,0.846,0.125
32.731,-0.559,0.846,0.125
32.741,-0.557,0.854,0.127
32.751,-0.557,0.857,0.129
32.760,-0.551,0.859,0.127
32.770,-0.559,0.867,0.129
32.780,-0.559,0.867,0.125
32.790,-0.564,0.861,0.133
32.800,-0.570,0.861,0.127
32.810,-0.576,0.857,0.131
32.820,-0.578,0.852,0.131
32.830,-0.576,0.852,0.131
32.840,-0.574,0.857,0.133
32.850,-0.566,0.854,0.131
32.860,-0.561,0.852,0.127
32.870,-0.561,0.852,0.131
32.880,-0.557,0.854,0.129
32.889,-0.559,0.852,0.131
32.899,-0.561,0.852,0.129
32.909,-0.564,0.850,0.133
32.919,-0.566,0.848,0.131
32.929,-0.568,0.854,0.131
32.939,-0.570,0.852,0.129
32.949,-0.566,0.852,0.129
32.959,-0.562,0.850,0.129
32.969,-0.562,0.852,0.129
32.979,-0.568,0.857,0.123
32.989,-0.566,0.857,0.123
32.999,-0.570,0.859,0.129
33.008,-0.570,0.852,0.123
33.018,-0.570,0.854,0.121
33.028,-0.580,0.850,0.121
33.038,-0.580,0.854,0.121
33.048,-0.586,0.854,0.121
33.058,-0.584,0.859,0.121
33.068,-0.574,0.861,0.123
33.078,-0.574,0.869,0.121
33.088,-0.576,0.863,0.123
33.098,-0.568,0.857,0.123
33.108,-0.568,0.850,0.127
33.118,-0.566,0.850,0.127
33.128,-0.564,0.850,0.129
33.137,-0.562,0.846,0.131
33.147,-0.562,0.846,0.133
33.157,-0.561,0.848,0.133
33.167,-0.564,0.844,0.135
33.177,-0.570,0.848,0.135
33.187,-0.576,0.848,0.135
33.197,-0.582,0.852,0.133
33.207,-0.588,0.852,0.133
33.217,-0.584,0.852,0.133
33.227,-0.576,0.852,0.129
33.237,-0.570,0.855,0.129
33.247,-0.568,0.854,0.133
33.256,-0.568,0.850,0.129
33.266,-0.562,0.848,0.133
33.276,-0.564,0.850,0.129
33.286,-0.568,0.855,0.135
33.296,-0.568,0.859,0.135
33.306,-0.566,0.857,0.135
33.316,-0.572,0.855,0.137
33.326,-0.572,0.854,0.137
33.336,-0.574,0.848,0.141
33.346,-0.574,0.846,0.137
33.356,-0.572,0.844,0.137
33.366,-0.568,0.844,0.137
33.376,-0.572,0.846,0.135
33.385,-0.576,0.842,0.135
33.395,-0.582,0.838,0.135
33.405,-0.592,0.840,0.133
33.415,-0.600,0.842,0.129
33.425,-0.600,0.842,0.125
33.435,-0.602,0.848,0.125
33.445,-0.594,0.848,0.127
33.455,-0.594,0.852,0.127
33.465,-0.586,0.850,0.125
33.475,-0.578,0.846,0.127
33.485,-0.574,0.844,0.125
33.495,-0.572,0.844,0.125
33.504,-0.564,0.842,0.129
33.514,-0.562,0.842,0.129
33.524,-0.564,0.846,0.131
33.534,-0.570,0.850,0.133
33.544,-0.572,0.855,0.135
33.554,-0.578,0.852,0.141
33.564,-0.574,0.842,0.135
33.574,-0.576,0.842,0.139
33.584,-0.578,0.842,0.137
33.594,-0.582,0.838,0.135
33.604,-0.588,0.836,0.135
33.614,-0.592,0.842,0.139
33.624,-0.600,0.850,0.139
33.633,-0.598,0.854,0.139
33.643,-0.596,0.852,0.141
33.653,-0.592,0.852,0.139
33.663,-0.586,0.846,0.131
33.673,-0.582,0.844,0.133
33.683,-0.580,0.838,0.131
33.693,-0.578,0.836,0.133
33.703,-0.578,0.840,0.133
33.713,-0.582,0.838,0.131
33.723,-0.580,0.842,0.129
33.733,-0.582,0.844,0.131
33.743,-0.582,0.842,0.133
33.752,-0.584,0.840,0.131
33.762,-0.588,0.842,0.135
33.772,-0.590,0.844,0.133
33.782,-0.586,0.844,0.135
33.792,-0.586,0.842,0.135
33.802,-0.580,0.846,0.131
33.812,-0.578,0.842,0.133
33.822,-0.580,0.842,0.129
33.832,-0.582,0.840,0.133
33.842,-0.588,0.846,0.135
33.852,-0.588,0.848,0.135
33.862,-0.588,0.854,0.135
33.872,-0.586,0.848,0.137
33.881,-0.588,0.846,0.135
33.891,-0.586,0.840,0.137
33.901,-0.588,0.838,0.137
33.911,-0.588,0.840,0.137
33.921,-0.586,0.838,0.135
33.931,-0.584,0.836,0.135
33.941,-0.586,0.842,0.135
33.951,-0.588,0.838,0.135
33.961,-0.590,0.840,0.135
33.971,-0.586,0.838,0.137
33.981,-0.586,0.842,0.137
33.991,-0.586,0.840,0.135
34.001,-0.584,0.844,0.137
34.010,-0.586,0.844,0.135
34.020,-0.586,0.842,0.137
34.030,-0.588,0.838,0.131
34.040,-0.590,0.840,0.137
34.050,-0.596,0.836,0.133
34.060,-0.596,0.842,0.137
34.070,-0.596,0.840,0.131
34.080,-0.594,0.844,0.135
34.090,-0.600,0.842,0.133
34.100,-0.598,0.844,0.139
34.110,-0.596,0.842,0.137
34.120,-0.590,0.840,0.137
34.129,-0.586,0.832,0.137
34.139,-0.584,0.832,0.135
34.149,-0.584,0.832,0.135
34.159,-0.592,0.828,0.135
34.169,-0.598,0.836,0.137
34.179,-0.602,0.838,0.139
34.189,-0.600,0.848,0.139
34.199,-0.600,0.848,0.139
34.209,-0.594,0.844,0.137
34.219,-0.594,0.842,0.133
34.229,-0.592,0.838,0.137
34.239,-0.596,0.836,0.133
34.249,-0.592,0.838,0.131
34.258,-0.592,0.830,0.135
34.268,-0.594,0.834,0.133
34.278,-0.594,0.832,0.137
34.288,-0.596,0.834,0.133
34.298,-0.594,0.836,0.133
34.308,-0.596,0.836,0.133
34.318,-0.600,0.836,0.127
34.328,-0.602,0.836,0.135
34.338,-0.600,0.836,0.133
34.348,-0.600,0.844,0.137
34.358,-0.596,0.840,0.135
34.368,-0.592,0.834,0.135
34.377,-0.590,0.830,0.129
34.387,-0.592,0.832,0.133
34.397,-0.596,0.836,0.131
34.407,-0.596,0.846,0.135
34.417,-0.596,0.850,0.135
34.427,-0.592,0.846,0.135
34.437,-0.594,0.842,0.137
34.447,-0.594,0.836,0.133
34.457,-0.592,0.836,0.131
34.467,-0.594,0.836,0.137
34.477,-0.592,0.838,0.133
34.487,-0.594,0.838,0.137
34.497,-0.594,0.836,0.133
34.506,-0.592,0.844,0.133
34.516,-0.594,0.836,0.133
34.526,-0.592,0.838,0.133
34.536,-0.596,0.834,0.133
34.546,-0.596,0.840,0.135
34.556,-0.594,0.838,0.135
34.566,-0.592,0.838,0.137
34.576,-0.594,0.838,0.135
34.586,-0.592,0.840,0.135
34.596,-0.596,0.836,0.133
34.606,-0.590,0.836,0.133
34.616,-0.592,0.836,0.131
34.625,-0.592,0.840,0.131
34.635,-0.590,0.838,0.135
34.645,-0.590,0.838,0.135
34.655,-0.592,0.842,0.135
34.665,-0.598,0.840,0.137
34.675,-0.600,0.844,0.137
34.685,-0.596,0.838,0.141
34.695,-0.594,0.836,0.137
34.705,-0.586,0.840,0.137
34.715,-0.590,0.838,0.135
34.725,-0.590,0.830,0.131
34.735,-0.590,0.822,0.137
34.745,-0.598,0.830,0.133
34.754,-0.602,0.838,0.137
34.764,-0.602,0.844,0.137
34.774,-0.604,0.844,0.135
34.784,-0.604,0.844,0.131
34.794,-0.602,0.840,0.133
34.804,-0.598,0.836,0.131
34.814,-0.600,0.836,0.133
34.824,-0.598,0.834,0.133
34.834,-0.596,0.832,0.135
34.844,-0.596,0.832,0.133
34.854,-0.596,0.834,0.133
34.864,-0.596,0.834,0.137
34.873,-0.600,0.834,0.133
34.883,-0.598,0.836,0.137
34.893,-0.602,0.836,0.135
34.903,-0.600,0.836,0.139
34.913,-0.604,0.836,0.137
34.923,-0.598,0.830,0.133
34.933,-0.594,0.842,0.139
34.943,-0.586,0.840,0.139
34.953,-0.584,0.830,0.137
34.963,-0.586,0.830,0.139
34.973,-0.586,0.832,0.133
34.983,-0.592,0.836,0.133
34.993,-0.588,0.840,0.137
35.002,-0.592,0.842,0.137
35.012,-0.594,0.844,0.139
35.022,-0.596,0.842,0.135
35.032,-0.596,0.840,0.137
35.042,-0.596,0.836,0.137
35.052,-0.600,0.838,0.135
35.062,-0.598,0.838,0.137
35.072,-0.596,0.838,0.137
35.082,-0.594,0.840,0.135
35.092,-0.592,0.838,0.133
35.102,-0.590,0.836,0.135
35.112,-0.590,0.834,0.133
35.121,-0.590,0.834,0.135
35.131,-0.592,0.836,0.133
35.141,-0.592,0.838,0.133
35.151,-0.594,0.838,0.131
35.161,-0.596,0.838,0.129
35.171,-0.604,0.838,0.131
35.181,-0.605,0.834,0.131
35.191,-0.604,0.830,0.131
35.201,-0.604,0.830,0.135
35.211,-0.604,0.834,0.129
35.221,-0.604,0.830,0.133
35.231,-0.600,0.832,0.133
35.241,-0.600,0.836,0.131
35.250,-0.602,0.834,0.129
35.260,-0.604,0.836,0.131
35.270,-0.602,0.836,0.133
35.280,-0.600,0.834,0.133
35.290,-0.600,0.838,0.133
35.300,-0.592,0.836,0.137
35.310,-0.592,0.828,0.133
35.320,-0.594,0.826,0.133
35.330,-0.602,0.830,0.131
35.340,-0.609,0.832,0.135
35.350,-0.609,0.842,0.133
35.360,-0.613,0.844,0.137
35.369,-0.615,0.838,0.137
35.379,-0.611,0.832,0.133
35.389,-0.611,0.830,0.135
35.399,-0.609,0.830,0.133
35.409,-0.605,0.830,0.131
35.419,-0.604,0.828,0.127
35.429,-0.604,0.832,0.135
35.439,-0.600,0.826,0.131
35.449,-0.600,0.832,0.127
35.459,-0.598,0.828,0.129
35.469,-0.600,0.828,0.133
35.479,-0.602,0.828,0.133
35.489,-0.605,0.834,0.133
35.498,-0.613,0.834,0.133
35.508,-0.607,0.830,0.135
35.518,-0.602,0.830,0.133
35.528,-0.604,0.834,0.133
35.538,-0.598,0.828,0.135
35.548,-0.602,0.826,0.139
35.558,-0.602,0.826,0.133
35.568,-0.604,0.826,0.135
35.578,-0.602,0.832,0.135
35.588,-0.607,0.832,0.133
35.598,-0.609,0.832,0.131
35.608,-0.609,0.834,0.131
35.617,-0.611,0.830,0.129
35.627,-0.609,0.830,0.131
35.637,-0.611,0.832,0.133
35.647,-0.605,0.830,0.131
35.657,-0.605,0.828,0.133
35.667,-0.602,0.826,0.131
35.677,-0.602,0.828,0.133
35.687,-0.605,0.828,0.131
35.697,-0.602,0.824,0.135
35.707,-0.605,0.828,0.133
35.717,-0.607,0.828,0.133
35.727,-0.605,0.832,0.133
35.737,-0.605,0.834,0.133
35.746,-0.609,0.834,0.133
35.756,-0.609,0.834,0.137
35.766,-0.607,0.830,0.131
35.776,-0.605,0.830,0.133
35.786,-0.607,0.830,0.129
35.796,-0.607,0.826,0.131
35.806,-0.605,0.830,0.135
35.816,-0.607,0.828,0.133
35.826,-0.602,0.830,0.133
35.836,-0.604,0.832,0.131
35.846,-0.607,0.830,0.137
35.856,-0.609,0.832,0.133
35.865,-0.609,0.832,0.139
35.875,-0.604,0.826,0.135
35.885,-0.604,0.828,0.135
35.895,-0.602,0.828,0.135
35.905,-0.600,0.822,0.137
35.915,-0.604,0.824,0.131
35.925,-0.609,0.824,0.135
35.935,-0.611,0.832,0.133
35.945,-0.613,0.838,0.135
35.955,-0.613,0.840,0.135
35.965,-0.615,0.840,0.137
35.975,-0.609,0.836,0.131
35.985,-0.605,0.832,0.135
35.994,-0.605,0.830,0.133
36.004,-0.602,0.824,0.133
36.014,-0.600,0.824,0.135
36.024,-0.600,0.822,0.135
36.034,-0.602,0.818,0.133
36.044,-0.604,0.828,0.135
36.054,-0.605,0.828,0.135
36.064,-0.611,0.830,0.137
36.074,-0.607,0.830,0.133
36.084,-0.611,0.828,0.129
36.094,-0.615,0.832,0.135
36.104,-0.609,0.830,0.135
36.113,-0.607,0.830,0.135
36.123,-0.605,0.830,0.133
36.133,-0.602,0.824,0.133
36.143,-0.605,0.822,0.135
36.153,-0.605,0.824,0.135
36.163,-0.609,0.824,0.133
36.173,-0.611,0.832,0.135
36.183,-0.611,0.834,0.133
36.193,-0.609,0.830,0.133
36.203,-0.609,0.834,0.135
36.213,-0.611,0.830,0.133
36.223,-0.607,0.824,0.133
36.233,-0.607,0.828,0.135
36.242,-0.602,0.828,0.135
36.252,-0.604,0.826,0.133
36.262,-0.607,0.830,0.135
36.272,-0.605,0.828,0.137
36.282,-0.609,0.828,0.137
36.292,-0.609,0.828,0.135
36.302,-0.611,0.826,0.139
36.312,-0.611,0.826,0.137
36.322,-0.609,0.830,0.137
36.332,-0.609,0.832,0.135
36.342,-0.609,0.830,0.135
36.352,-0.611,0.830,0.133
36.361,-0.605,0.828,0.135
36.371,-0.607,0.828,0.133
36.381,-0.609,0.828,0.131
36.391,-0.609,0.826,0.133
36.401,-0.607,0.828,0.133
36.411,-0.607,0.830,0.133
36.421,-0.607,0.828,0.131
36.431,-0.609,0.832,0.131
36.441,-0.613,0.824,0.131
36.451,-0.613,0.828,0.131
36.461,-0.609,0.826,0.135
36.471,-0.605,0.824,0.135
36.481,-0.602,0.828,0.135
36.490,-0.600,0.824,0.135
36.500,-0.604,0.826,0.133
36.510,-0.611,0.822,0.135
36.520,-0.619,0.828,0.137
36.530,-0.619,0.836,0.137
36.540,-0.619,0.836,0.141
36.550,-0.617,0.840,0.135
36.560,-0.613,0.832,0.139
36.570,-0.611,0.826,0.135
36.580,-0.607,0.820,0.135
36.590,-0.607,0.820,0.135
36.600,-0.609,0.820,0.133
36.610,-0.605,0.822,0.137
36.619,-0.607,0.826,0.135
36.629,-0.605,0.828,0.133
36.639,-0.605,0.826,0.133
36.649,-0.605,0.830,0.131
36.659,-0.605,0.828,0.135
36.669,-0.607,0.828,0.135
36.679,-0.607,0.830,0.135
36.689,-0.607,0.828,0.139
36.699,-0.605,0.828,0.139
36.709,-0.604,0.832,0.135
36.719,-0.602,0.826,0.135
36.729,-0.605,0.820,0.129
36.738,-0.609,0.822,0.133
36.748,-0.615,0.822,0.135
36.758,-0.615,0.836,0.133
36.768,-0.613,0.840,0.133
36.778,-0.615,0.840,0.139
36.788,-0.611,0.834,0.137
36.798,-0.609,0.830,0.133
36.808,-0.607,0.828,0.137
36.818,-0.607,0.822,0.137
36.828,-0.604,0.822,0.133
36.838,-0.605,0.822,0.135
36.848,-0.604,0.824,0.137
36.858,-0.604,0.824,0.137
36.867,-0.607,0.826,0.133
36.877,-0.609,0.828,0.135
36.887,-0.609,0.828,0.137
36.897,-0.611,0.828,0.137
36.907,-0.613,0.826,0.137
36.917,-0.615,0.830,0.135
36.927,-0.613,0.828,0.137
36.937,-0.611,0.824,0.137
36.947,-0.611,0.826,0.135
36.957,-0.607,0.824,0.133
36.967,-0.607,0.826,0.137
36.977,-0.605,0.824,0.135
36.986,-0.607,0.828,0.133
36.996,-0.611,0.828,0.135
37.006,-0.611,0.836,0.135
37.016,-0.611,0.834,0.135
37.026,-0.605,0.828,0.131
37.036,-0.604,0.824,0.135
37.046,-0.604,0.824,0.133
37.056,-0.605,0.822,0.133
37.066,-0.613,0.822,0.133
37.076,-0.619,0.826,0.133
37.086,-0.619,0.830,0.137
37.096,-0.615,0.838,0.139
37.106,-0.613,0.838,0.137
37.115,-0.609,0.828,0.139
37.125,-0.604,0.826,0.137
37.135,-0.604,0.822,0.135
37.145,-0.604,0.824,0.135
37.155,-0.602,0.824,0.131
37.165,-0.604,0.822,0.133
37.175,-0.604,0.824,0.135
37.185,-0.605,0.826,0.137
37.195,-0.607,0.828,0.135
37.205,-0.609,0.826,0.137
37.215,-0.609,0.824,0.135
37.225,-0.613,0.826,0.133
37.234,-0.613,0.826,0.137
37.244,-0.615,0.824,0.137
37.254,-0.607,0.832,0.137
37.264,-0.605,0.834,0.139
37.274,-0.600,0.830,0.141
37.284,-0.602,0.822,0.131
37.294,-0.600,0.816,0.135
37.304,-0.609,0.820,0.133
37.314,-0.611,0.830,0.133
37.324,-0.617,0.834,0.137
37.334,-0.617,0.832,0.133
37.344,-0.621,0.828,0.133
37.354,-0.619,0.828,0.135
37.363,-0.619,0.826,0.133
37.373,-0.617,0.828,0.131
37.383,-0.615,0.826,0.127
37.393,-0.613,0.824,0.135
37.403,-0.611,0.824,0.133
37.413,-0.611,0.826,0.131
37.423,-0.611,0.828,0.131
37.433,-0.609,0.830,0.133
37.443,-0.605,0.826,0.133
37.453,-0.609,0.826,0.135
37.463,-0.611,0.826,0.137
37.473,-0.611,0.824,0.137
37.482,-0.615,0.828,0.133
37.492,-0.613,0.826,0.133
37.502,-0.617,0.824,0.133
37.512,-0.613,0.824,0.137
37.522,-0.613,0.822,0.139
37.532,-0.611,0.824,0.133
37.542,-0.609,0.824,0.139
37.552,-0.607,0.828,0.137
37.562,-0.613,0.826,0.139
37.572,-0.611,0.826,0.135
37.582,-0.609,0.828,0.137
37.592,-0.604,0.820,0.141
37.602,-0.604,0.826,0.137
37.611,-0.602,0.828,0.139
37.621,-0.605,0.820,0.141
37.631,-0.609,0.816,0.141
37.641,-0.617,0.822,0.139
37.651,-0.619,0.830,0.137
37.661,-0.619,0.836,0.141
37.671,-0.617,0.840,0.141
37.681,-0.613,0.834,0.139
37.691,-0.613,0.830,0.139
37.701,-0.611,0.826,0.139
37.711,-0.605,0.824,0.135
37.721,-0.607,0.824,0.137
37.730,-0.607,0.822,0.135
37.740,-0.605,0.822,0.133
37.750,-0.607,0.826,0.135
37.760,-0.605,0.824,0.133
37.770,-0.609,0.830,0.127
37.780,-0.611,0.824,0.135
37.790,-0.609,0.828,0.133
37.800,-0.611,0.834,0.133
37.810,-0.615,0.834,0.135
37.820,-0.613,0.828,0.137
37.830,-0.609,0.830,0.131
37.840,-0.602,0.834,0.135
37.850,-0.602,0.824,0.135
37.859,-0.607,0.822,0.139
37.869,-0.609,0.822,0.135
37.879,-0.615,0.826,0.137
37.889,-0.613,0.832,0.137
37.899,-0.617,0.832,0.135
37.909,-0.619,0.830,0.137
37.919,-0.617,0.832,0.135
37.929,-0.617,0.826,0.135
37.939,-0.613,0.828,0.133
37.949,-0.611,0.826,0.135
37.959,-0.607,0.824,0.135
37.969,-0.602,0.824,0.133
37.978,-0.600,0.828,0.135
37.988,-0.604,0.826,0.133
37.998,-0.604,0.826,0.135
38.008,-0.605,0.826,0.137
38.018,-0.605,0.828,0.139
38.028,-0.609,0.828,0.139
38.038,-0.607,0.828,0.135
38.048,-0.609,0.830,0.137
38.058,-0.607,0.826,0.135
38.068,-0.613,0.826,0.135
38.078,-0.613,0.822,0.133
38.088,-0.615,0.826,0.137
38.098,-0.613,0.824,0.135
38.107,-0.611,0.828,0.135
38.117,-0.609,0.828,0.133
38.127,-0.613,0.824,0.133
38.137,-0.615,0.828,0.133
38.147,-0.613,0.828,0.135
38.157,-0.609,0.824,0.135
38.167,-0.607,0.826,0.135
38.177,-0.605,0.824,0.135
38.187,-0.605,0.822,0.135
38.197,-0.609,0.818,0.135
38.207,-0.615,0.820,0.129
38.217,-0.617,0.826,0.137
38.226,-0.621,0.834,0.141
38.236,-0.619,0.838,0.139
38.246,-0.617,0.836,0.135
38.256,-0.621,0.832,0.135
38.266,-0.613,0.826,0.135
38.276,-0.615,0.824,0.135
38.286,-0.611,0.824,0.137
38.296,-0.607,0.826,0.135
38.306,-0.609,0.822,0.131
38.316,-0.607,0.822,0.133
38.326,-0.605,0.824,0.133
38.336,-0.607,0.824,0.135
38.346,-0.605,0.824,0.133
38.355,-0.609,0.824,0.135
38.365,-0.609,0.828,0.133
38.375,-0.613,0.828,0.135
38.385,-0.615,0.828,0.135
38.395,-0.611,0.824,0.135
38.405,-0.609,0.830,0.133
38.415,-0.605,0.826,0.137
38.425,-0.611,0.822,0.133
38.435,-0.609,0.818,0.135
38.445,-0.615,0.822,0.133
38.455,-0.617,0.826,0.137
38.465,-0.617,0.832,0.139
38.474,-0.615,0.832,0.139
38.484,-0.613,0.830,0.137
38.494,-0.615,0.830,0.137
38.504,-0.613,0.824,0.135
38.514,-0.611,0.822,0.135
38.524,-0.611,0.824,0.139
38.534,-0.611,0.826,0.137
38.544,-0.609,0.824,0.137
38.554,-0.609,0.826,0.135
38.564,-0.611,0.824,0.135
38.574,-0.609,0.824,0.139
38.584,-0.607,0.824,0.135
38.594,-0.609,0.830,0.135
38.603,-0.609,0.826,0.139
38.613,-0.611,0.828,0.135
38.623,-0.611,0.826,0.135
38.633,-0.613,0.828,0.133
38.643,-0.611,0.828,0.133
38.653,-0.615,0.826,0.133
38.663,-0.615,0.822,0.135
38.673,-0.615,0.824,0.129
38.683,-0.617,0.824,0.131
38.693,-0.615,0.822,0.133
38.703,-0.615,0.824,0.133
38.713,-0.613,0.830,0.135
38.722,-0.615,0.830,0.129
38.732,-0.619,0.830,0.137
38.742,-0.619,0.830,0.133
38.752,-0.611,0.822,0.137
38.762,-0.609,0.824,0.137
38.772,-0.607,0.822,0.135
38.782,-0.607,0.820,0.135
38.792,-0.613,0.820,0.135
38.802,-0.617,0.816,0.133
38.812,-0.623,0.822,0.135
38.822,-0.625,0.834,0.137
38.832,-0.623,0.838,0.137
38.842,-0.621,0.834,0.137
38.851,-0.619,0.826,0.137
38.861,-0.615,0.820,0.135
38.871,-0.611,0.818,0.137
38.881,-0.611,0.818,0.135
38.891,-0.607,0.818,0.133
38.901,-0.607,0.822,0.131
38.911,-0.607,0.822,0.135
38.921,-0.609,0.824,0.135
38.931,-0.611,0.820,0.135
38.941,-0.613,0.824,0.129
38.951,-0.615,0.826,0.135
38.961,-0.613,0.828,0.135
38.970,-0.617,0.830,0.133
38.980,-0.613,0.828,0.137
38.990,-0.609,0.826,0.133
39.000,-0.605,0.830,0.129
39.010,-0.604,0.828,0.133
39.020,-0.607,0.824,0.131
39.030,-0.605,0.818,0.129
39.040,-0.613,0.824,0.129
39.050,-0.613,0.824,0.135
39.060,-0.617,0.828,0.135
39.070,-0.617,0.836,0.137
39.080,-0.619,0.832,0.135
39.090,-0.615,0.828,0.137
39.099,-0.615,0.824,0.131
39.109,-0.615,0.822,0.139
39.119,-0.615,0.824,0.135
39.129,-0.613,0.822,0.135
39.139,-0.611,0.824,0.135
39.149,-0.611,0.824,0.135
39.159,-0.609,0.824,0.137
39.169,-0.615,0.824,0.137
39.179,-0.611,0.824,0.137
39.189,-0.617,0.822,0.131
39.199,-0.617,0.822,0.135
39.209,-0.617,0.824,0.139
39.219,-0.615,0.824,0.135
39.228,-0.615,0.824,0.131
39.238,-0.615,0.824,0.137
39.248,-0.615,0.824,0.135
39.258,-0.613,0.820,0.139
39.268,-0.615,0.824,0.135
39.278,-0.613,0.822,0.135
39.288,-0.615,0.824,0.137
39.298,-0.615,0.822,0.133
39.308,-0.613,0.824,0.133
39.318,-0.613,0.826,0.139
39.328,-0.619,0.824,0.133
39.338,-0.615,0.828,0.137
39.347,-0.613,0.824,0.133
39.357,-0.611,0.822,0.133
39.367,-0.609,0.820,0.133
39.377,-0.611,0.822,0.131
39.387,-0.613,0.820,0.131
39.397,-0.623,0.826,0.137
39.407,-0.623,0.830,0.135
39.417,-0.621,0.836,0.141
39.427,-0.617,0.832,0.135
39.437,-0.615,0.826,0.139
39.447,-0.611,0.820,0.137
39.457,-0.613,0.812,0.133
39.467,-0.611,0.818,0.135
39.476,-0.609,0.818,0.135
39.486,-0.613,0.818,0.133
39.496,-0.613,0.820,0.135
39.506,-0.615,0.822,0.137
39.516,-0.611,0.824,0.133
39.526,-0.611,0.826,0.133
39.536,-0.617,0.828,0.133
39.546,-0.613,0.828,0.131
39.556,-0.615,0.828,0.135
39.566,-0.617,0.830,0.133
39.576,-0.613,0.820,0.135
39.586,-0.611,0.824,0.139
39.595,-0.605,0.824,0.137
39.605,-0.604,0.820,0.137
39.615,-0.609,0.814,0.133
39.625,-0.611,0.814,0.131
39.635,-0.617,0.820,0.137
39.645,-0.623,0.830,0.133
39.655,-0.621,0.834,0.135
39.665,-0.621,0.834,0.135
39.675,-0.617,0.830,0.135
39.685,-0.619,0.824,0.135
39.695,-0.613,0.824,0.135
39.705,-0.613,0.820,0.135
39.715,-0.607,0.818,0.137
39.724,-0.609,0.822,0.135
39.734,-0.609,0.820,0.135
39.744,-0.615,0.818,0.137
39.754,-0.611,0.820,0.135
39.764,-0.617,0.822,0.135
39.774,-0.621,0.822,0.131
39.784,-0.619,0.824,0.133
39.794,-0.621,0.824,0.133
39.804,-0.619,0.826,0.129
39.814,-0.621,0.824,0.131
39.824,-0.621,0.826,0.133
39.834,-0.615,0.824,0.131
39.843,-0.615,0.822,0.129
39.853,-0.615,0.822,0.131
39.863,-0.611,0.822,0.135
39.873,-0.611,0.820,0.133
39.883,-0.611,0.820,0.133
39.893,-0.613,0.824,0.133
39.903,-0.619,0.822,0.133
39.913,-0.621,0.828,0.133
39.923,-0.623,0.828,0.139
39.933,-0.617,0.824,0.137
39.943,-0.615,0.818,0.135
39.953,-0.615,0.818,0.135
39.963,-0.613,0.816,0.133
39.972,-0.617,0.812,0.133
39.982,-0.623,0.818,0.137
39.992,-0.629,0.828,0.137
40.002,-0.621,0.834,0.137
40.012,-0.619,0.836,0.135
40.022,-0.615,0.828,0.137
40.032,-0.613,0.824,0.135
40.042,-0.613,0.818,0.137
40.052,-0.613,0.820,0.133
40.062,-0.611,0.818,0.131
40.072,-0.615,0.818,0.133
40.082,-0.617,0.820,0.133
40.091,-0.617,0.820,0.137
40.101,-0.613,0.822,0.137
40.111,-0.617,0.820,0.135
40.121,-0.617,0.822,0.133
40.131,-0.615,0.822,0.133
40.141,-0.617,0.820,0.133
40.151,-0.621,0.832,0.131
40.161,-0.615,0.824,0.133
40.171,-0.611,0.830,0.133
40.181,-0.611,0.826,0.135
40.191,-0.609,0.822,0.133
40.201,-0.611,0.814,0.135
40.211,-0.611,0.812,0.133
40.220,-0.617,0.820,0.135
40.230,-0.617,0.820,0.135
40.240,-0.621,0.826,0.135
40.250,-0.619,0.824,0.131
40.260,-0.621,0.832,0.133
40.270,-0.615,0.826,0.133
40.280,-0.611,0.826,0.135
40.290,-0.613,0.826,0.135
40.300,-0.609,0.824,0.133
40.310,-0.607,0.824,0.133
40.320,-0.609,0.828,0.133
40.330,-0.607,0.828,0.133
40.339,-0.607,0.826,0.131
40.349,-0.607,0.820,0.133
40.359,-0.613,0.820,0.131
40.369,-0.615,0.826,0.133
40.379,-0.615,0.828,0.133
40.389,-0.613,0.826,0.127
40.399,-0.615,0.830,0.131
40.409,-0.613,0.830,0.131
40.419,-0.613,0.830,0.135
40.429,-0.611,0.822,0.133
40.439,-0.613,0.830,0.133
40.449,-0.613,0.826,0.129
40.459,-0.604,0.826,0.133
40.468,-0.604,0.822,0.129
40.478,-0.607,0.824,0.133
40.488,-0.605,0.826,0.131
40.498,-0.611,0.832,0.133
40.508,-0.607,0.830,0.133
40.518,-0.611,0.828,0.133
40.528,-0.611,0.834,0.129
40.538,-0.609,0.830,0.137
40.548,-0.609,0.828,0.131
40.558,-0.605,0.824,0.131
40.568,-0.602,0.826,0.129
40.578,-0.602,0.820,0.135
40.587,-0.607,0.822,0.133
40.597,-0.611,0.822,0.133
40.607,-0.617,0.832,0.133
40.617,-0.617,0.838,0.135
40.627,-0.615,0.844,0.135
40.637,-0.613,0.836,0.133
40.647,-0.613,0.832,0.133
40.657,-0.611,0.830,0.133
40.667,-0.607,0.828,0.135
40.677,-0.607,0.826,0.133
40.687,-0.607,0.824,0.133
40.697,-0.605,0.824,0.133
40.707,-0.605,0.824,0.133
40.716,-0.605,0.824,0.131
40.726,-0.607,0.826,0.133
40.736,-0.607,0.826,0.135
40.746,-0.605,0.830,0.131
40.756,-0.607,0.830,0.131
40.766,-0.609,0.834,0.133
40.776,-0.609,0.830,0.131
40.786,-0.604,0.826,0.129
40.796,-0.609,0.832,0.135
40.806,-0.604,0.832,0.129
40.816,-0.605,0.822,0.131
40.826,-0.607,0.824,0.131
40.835,-0.609,0.822,0.131
40.845,-0.613,0.830,0.133
40.855,-0.607,0.834,0.133
40.865,-0.607,0.836,0.133
40.875,-0.607,0.832,0.131
40.885,-0.609,0.832,0.135
40.895,-0.607,0.832,0.131
40.905,-0.609,0.832,0.131
40.915,-0.605,0.832,0.135
40.925,-0.605,0.830,0.133
40.935,-0.604,0.834,0.135
40.945,-0.602,0.832,0.131
40.955,-0.609,0.836,0.131
40.964,-0.604,0.834,0.131
40.974,-0.604,0.830,0.131
40.984,-0.604,0.830,0.129
40.994,-0.607,0.832,0.137
41.004,-0.605,0.834,0.133
41.014,-0.600,0.828,0.133
41.024,-0.607,0.836,0.137
41.034,-0.609,0.834,0.133
41.044,-0.600,0.834,0.137
41.054,-0.602,0.832,0.135
41.064,-0.602,0.834,0.133
41.074,-0.602,0.832,0.133
41.083,-0.600,0.832,0.135
41.093,-0.600,0.834,0.137
41.103,-0.605,0.832,0.137
41.113,-0.596,0.824,0.135
41.123,-0.600,0.830,0.135
41.133,-0.596,0.834,0.137
41.143,-0.598,0.834,0.139
41.153,-0.605,0.836,0.135
41.163,-0.604,0.836,0.137
41.173,-0.607,0.832,0.141
41.183,-0.596,0.834,0.135
41.193,-0.592,0.836,0.137
41.203,-0.590,0.834,0.133
41.212,-0.590,0.834,0.133
41.222,-0.586,0.834,0.129
41.232,-0.592,0.832,0.129
41.242,-0.596,0.826,0.131
41.252,-0.600,0.820,0.133
41.262,-0.607,0.840,0.131
41.272,-0.613,0.842,0.137
41.282,-0.611,0.838,0.131
41.292,-0.609,0.838,0.135
41.302,-0.609,0.838,0.133
41.312,-0.596,0.836,0.127
41.322,-0.594,0.834,0.125
41.331,-0.590,0.824,0.129
41.341,-0.594,0.830,0.129
41.351,-0.602,0.834,0.137
41.361,-0.604,0.834,0.131
41.371,-0.605,0.834,0.131
41.381,-0.611,0.836,0.129
41.391,-0.613,0.838,0.127
41.401,-0.617,0.840,0.127
41.411,-0.617,0.838,0.127
41.421,-0.609,0.838,0.125
41.431,-0.607,0.842,0.123
41.441,-0.602,0.838,0.125
41.451,-0.604,0.840,0.123
41.460,-0.600,0.836,0.121
41.470,-0.604,0.834,0.123
41.480,-0.604,0.842,0.123
41.490,-0.602,0.838,0.123
41.500,-0.602,0.834,0.127
41.510,-0.596,0.836,0.125
41.520,-0.596,0.834,0.129
41.530,-0.598,0.836,0.125
41.540,-0.596,0.832,0.129
41.550,-0.596,0.836,0.125
41.560,-0.594,0.834,0.129
41.570,-0.594,0.836,0.127
41.579,-0.586,0.832,0.131
41.589,-0.588,0.834,0.131
41.599,-0.590,0.836,0.129
41.609,-0.594,0.836,0.127
41.619,-0.592,0.840,0.129
41.629,-0.590,0.840,0.127
41.639,-0.590,0.842,0.127
41.649,-0.592,0.846,0.125
41.659,-0.590,0.840,0.127
41.669,-0.586,0.840,0.127
41.679,-0.584,0.842,0.127
41.689,-0.584,0.840,0.123
41.699,-0.584,0.840,0.125
41.708,-0.588,0.840,0.125
41.718,-0.586,0.840,0.125
41.728,-0.590,0.838,0.127
41.738,-0.590,0.838,0.125
41.748,-0.594,0.836,0.127
41.758,-0.592,0.836,0.129
41.768,-0.592,0.842,0.127
41.778,-0.594,0.842,0.123
41.788,-0.592,0.844,0.125
41.798,-0.592,0.844,0.121
41.808,-0.590,0.844,0.125
41.818,-0.582,0.842,0.125
41.828,-0.582,0.844,0.125
41.837,-0.584,0.844,0.123
41.847,-0.586,0.838,0.121
41.857,-0.592,0.834,0.125
41.867,-0.594,0.855,0.127
41.877,-0.600,0.848,0.129
41.887,-0.596,0.852,0.123
41.897,-0.596,0.846,0.127
41.907,-0.592,0.840,0.127
41.917,-0.590,0.840,0.125
41.927,-0.590,0.834,0.125
41.937,-0.592,0.834,0.125
41.947,-0.588,0.832,0.125
41.956,-0.590,0.838,0.121
41.966,-0.592,0.840,0.129
41.976,-0.590,0.842,0.127
41.986,-0.588,0.844,0.127
41.996,-0.588,0.838,0.125
42.006,-0.586,0.844,0.125
42.016,-0.588,0.846,0.127
42.026,-0.586,0.850,0.127
42.036,-0.582,0.846,0.125
42.046,-0.584,0.846,0.129
42.056,-0.580,0.852,0.129
42.066,-0.580,0.848,0.127
42.076,-0.578,0.842,0.129
42.085,-0.580,0.836,0.125
42.095,-0.582,0.830,0.125
42.105,-0.584,0.832,0.127
42.115,-0.578,0.830,0.131
42.125,-0.576,0.820,0.131
42.135,-0.570,0.812,0.141
42.145,-0.598,0.836,0.135
42.155,-0.592,0.826,0.133
42.165,-0.590,0.828,0.135
42.175,-0.596,0.850,0.135
42.185,-0.588,0.842,0.129
42.195,-0.557,0.826,0.125
42.204,-0.537,0.832,0.127
42.214,-0.549,0.844,0.131
42.224,-0.576,0.871,0.129
42.234,-0.568,0.875,0.123
42.244,-0.553,0.885,0.127
42.254,-0.551,0.895,0.121
42.264,-0.537,0.891,0.113
42.274,-0.537,0.908,0.104
42.284,-0.533,0.912,0.104
42.294,-0.521,0.914,0.104
42.304,-0.518,0.920,0.090
42.314,-0.506,0.926,0.088
42.324,-0.500,0.930,0.088
42.333,-0.502,0.955,0.080
42.343,-0.496,0.951,0.074
42.353,-0.482,0.953,0.076
42.363,-0.479,0.945,0.066
42.373,-0.475,0.938,0.066
42.383,-0.475,0.930,0.070
42.393,-0.480,0.932,0.076
42.403,-0.482,0.924,0.080
42.413,-0.484,0.922,0.078
42.423,-0.477,0.914,0.078
42.433,-0.480,0.910,0.080
42.443,-0.484,0.896,0.082
42.452,-0.496,0.898,0.090
42.462,-0.506,0.893,0.096
42.472,-0.508,0.889,0.100
42.482,-0.512,0.885,0.102
42.492,-0.514,0.875,0.111
42.502,-0.521,0.871,0.113
42.512,-0.520,0.857,0.125
42.522,-0.531,0.854,0.127
42.532,-0.539,0.844,0.135
42.542,-0.543,0.846,0.143
42.552,-0.551,0.844,0.146
42.562,-0.547,0.824,0.150
42.572,-0.545,0.818,0.158
42.581,-0.549,0.822,0.158
42.591,-0.551,0.820,0.162
42.601,-0.551,0.816,0.164
42.611,-0.561,0.816,0.166
42.621,-0.561,0.822,0.172
42.631,-0.551,0.805,0.166
42.641,-0.539,0.812,0.170
42.651,-0.531,0.822,0.174
42.661,-0.527,0.824,0.178
42.671,-0.525,0.830,0.178
42.681,-0.527,0.832,0.172
42.691,-0.531,0.834,0.178
42.700,-0.543,0.850,0.174
42.710,-0.553,0.861,0.178
42.720,-0.559,0.875,0.172
42.730,-0.562,0.883,0.176
42.740,-0.562,0.889,0.172
42.750,-0.559,0.900,0.166
42.760,-0.549,0.902,0.158
42.770,-0.547,0.904,0.152
42.780,-0.539,0.902,0.148
42.790,-0.533,0.900,0.146
42.800,-0.533,0.906,0.145
42.810,-0.523,0.922,0.143
42.820,-0.514,0.920,0.139
42.829,-0.506,0.914,0.131
42.839,-0.490,0.922,0.129
42.849,-0.479,0.930,0.121
42.859,-0.477,0.918,0.123
42.869,-0.479,0.918,0.119
42.879,-0.473,0.914,0.121
42.889,-0.477,0.912,0.113
42.899,-0.477,0.904,0.115
42.909,-0.479,0.896,0.115
42.919,-0.479,0.891,0.119
42.929,-0.482,0.887,0.117
42.939,-0.482,0.877,0.117
42.948,-0.490,0.875,0.123
42.958,-0.492,0.867,0.127
42.968,-0.510,0.865,0.131
42.978,-0.518,0.867,0.139
42.988,-0.518,0.861,0.137
42.998,-0.514,0.857,0.141
43.008,-0.510,0.850,0.146
43.018,-0.502,0.848,0.152
43.028,-0.504,0.852,0.150
43.038,-0.516,0.861,0.156
43.048,-0.520,0.867,0.160
43.058,-0.537,0.865,0.160
43.068,-0.543,0.871,0.156
43.077,-0.549,0.883,0.156
43.087,-0.549,0.887,0.156
43.097,-0.551,0.891,0.154
43.107,-0.543,0.895,0.150
43.117,-0.543,0.896,0.150
43.127,-0.539,0.895,0.150
43.137,-0.533,0.891,0.146
43.147,-0.527,0.889,0.143
43.157,-0.518,0.883,0.143
43.167,-0.523,0.881,0.139
43.177,-0.514,0.885,0.135
43.187,-0.512,0.889,0.139
43.196,-0.508,0.889,0.135
43.206,-0.506,0.893,0.135
43.216,-0.506,0.896,0.135
43.226,-0.502,0.896,0.131
43.236,-0.500,0.900,0.131
43.246,-0.500,0.904,0.127
43.256,-0.496,0.900,0.129
43.266,-0.496,0.906,0.127
43.276,-0.490,0.904,0.125
43.286,-0.490,0.900,0.127
43.296,-0.496,0.895,0.121
43.306,-0.486,0.910,0.125
43.316,-0.502,0.895,0.129
43.325,-0.512,0.893,0.125
43.335,-0.510,0.887,0.131
43.345,-0.514,0.879,0.133
43.355,-0.523,0.873,0.135
43.365,-0.529,0.869,0.141
43.375,-0.535,0.861,0.143
43.385,-0.537,0.857,0.141
43.395,-0.539,0.854,0.145
43.405,-0.539,0.854,0.150
43.415,-0.543,0.850,0.148
43.425,-0.545,0.857,0.150
43.435,-0.541,0.861,0.150
43.444,-0.539,0.865,0.148
43.454,-0.541,0.875,0.143
43.464,-0.527,0.875,0.146
43.474,-0.523,0.883,0.145
43.484,-0.520,0.885,0.143
43.494,-0.510,0.895,0.145
43.504,-0.500,0.896,0.139
43.514,-0.494,0.898,0.143
43.524,-0.488,0.896,0.141
43.534,-0.471,0.900,0.139
43.544,-0.469,0.895,0.137
43.554,-0.473,0.896,0.137
43.564,-0.479,0.895,0.141
43.573,-0.484,0.891,0.139
43.583,-0.488,0.891,0.139
43.593,-0.494,0.893,0.139
43.603,-0.502,0.891,0.141
43.613,-0.506,0.891,0.139
43.623,-0.502,0.885,0.137
43.633,-0.498,0.879,0.141
43.643,-0.496,0.881,0.146
43.653,-0.492,0.887,0.141
43.663,-0.494,0.885,0.145
43.673,-0.504,0.881,0.137
43.683,-0.514,0.883,0.141
43.692,-0.523,0.885,0.143
43.702,-0.537,0.887,0.141
43.712,-0.545,0.893,0.139
43.722,-0.547,0.893,0.143
43.732,-0.553,0.889,0.139
43.742,-0.553,0.885,0.143
43.752,-0.555,0.871,0.143
43.762,-0.564,0.861,0.139
43.772,-0.564,0.857,0.143
43.782,-0.568,0.846,0.143
43.792,-0.572,0.834,0.145
43.802,-0.584,0.832,0.146
43.812,-0.594,0.832,0.146
43.821,-0.604,0.830,0.152
43.831,-0.613,0.838,0.152
43.841,-0.621,0.848,0.156
43.851,-0.623,0.848,0.156
43.861,-0.623,0.846,0.158
43.871,-0.623,0.855,0.156
43.881,-0.609,0.861,0.152
43.891,-0.590,0.861,0.152
43.901,-0.578,0.863,0.146
43.911,-0.570,0.869,0.145
43.921,-0.562,0.875,0.143
43.931,-0.557,0.875,0.145
43.940,-0.551,0.885,0.162
43.950,-0.514,0.896,0.146
43.960,-0.510,0.902,0.141
43.970,-0.492,0.900,0.143
43.980,-0.482,0.902,0.143
43.990,-0.473,0.906,0.146
44.000,-0.480,0.895,0.146
44.010,-0.477,0.893,0.145
44.020,-0.455,0.893,0.148
44.030,-0.447,0.900,0.145
44.040,-0.455,0.902,0.156
44.050,-0.449,0.904,0.146
44.060,-0.445,0.908,0.156
44.069,-0.447,0.906,0.150
44.079,-0.447,0.896,0.156
44.089,-0.451,0.895,0.162
44.099,-0.441,0.904,0.166
44.109,-0.441,0.902,0.162
44.119,-0.432,0.904,0.160
44.129,-0.422,0.906,0.166
44.139,-0.402,0.916,0.168
44.149,-0.371,0.912,0.168
44.159,-0.367,0.910,0.160
44.169,-0.371,0.910,0.158
44.179,-0.387,0.912,0.166
44.188,-0.410,0.920,0.166
44.198,-0.434,0.914,0.156
44.208,-0.453,0.900,0.154
44.218,-0.467,0.895,0.150
44.228,-0.477,0.889,0.156
44.238,-0.482,0.891,0.154
44.248,-0.480,0.883,0.156
44.258,-0.477,0.895,0.156
44.268,-0.484,0.900,0.150
44.278,-0.496,0.895,0.145
44.288,-0.516,0.887,0.146
44.298,-0.543,0.879,0.146
44.308,-0.562,0.881,0.146
44.317,-0.570,0.875,0.145
44.327,-0.582,0.879,0.148
44.337,-0.586,0.875,0.148
44.347,-0.592,0.877,0.150
44.357,-0.598,0.879,0.150
44.367,-0.598,0.867,0.150
44.377,-0.598,0.859,0.146
44.387,-0.594,0.861,0.152
44.397,-0.596,0.861,0.148
44.407,-0.596,0.865,0.152
44.417,-0.590,0.867,0.150
44.427,-0.578,0.867,0.152
44.437,-0.566,0.871,0.154
44.446,-0.559,0.875,0.152
44.456,-0.557,0.879,0.154
44.466,-0.541,0.875,0.150
44.476,-0.535,0.877,0.156
44.486,-0.531,0.877,0.154
44.496,-0.527,0.881,0.154
44.506,-0.527,0.879,0.152
44.516,-0.523,0.873,0.158
44.526,-0.520,0.875,0.160
44.536,-0.508,0.881,0.160
44.546,-0.498,0.891,0.166
44.556,-0.484,0.896,0.164
44.565,-0.477,0.898,0.160
44.575,-0.471,0.895,0.164
44.585,-0.467,0.895,0.162
44.595,-0.465,0.898,0.158
44.605,-0.459,0.891,0.164
44.615,-0.463,0.898,0.168
44.625,-0.453,0.896,0.166
44.635,-0.447,0.898,0.162
44.645,-0.430,0.904,0.162
44.655,-0.408,0.900,0.162
44.665,-0.406,0.908,0.166
44.675,-0.398,0.918,0.166
44.685,-0.402,0.910,0.166
44.694,-0.412,0.908,0.162
44.704,-0.430,0.910,0.166
44.714,-0.459,0.898,0.160
44.724,-0.477,0.895,0.166
44.734,-0.494,0.885,0.162
44.744,-0.512,0.883,0.166
44.754,-0.529,0.885,0.158
44.764,-0.539,0.881,0.168
44.774,-0.553,0.887,0.164
44.784,-0.555,0.887,0.170
44.794,-0.561,0.879,0.166
44.804,-0.559,0.877,0.168
44.813,-0.559,0.881,0.166
44.823,-0.553,0.877,0.166
44.833,-0.553,0.879,0.162
44.843,-0.549,0.879,0.168
44.853,-0.541,0.885,0.168
44.863,-0.529,0.893,0.164
44.873,-0.520,0.895,0.168
44.883,-0.506,0.900,0.168
44.893,-0.490,0.895,0.164
44.903,-0.480,0.893,0.166
44.913,-0.469,0.893,0.162
44.923,-0.463,0.891,0.164
44.933,-0.449,0.895,0.160
44.942,-0.445,0.895,0.160
44.952,-0.441,0.895,0.162
44.962,-0.447,0.898,0.164
44.972,-0.453,0.898,0.164
44.982,-0.459,0.898,0.166
44.992,-0.473,0.900,0.168
45.002,-0.482,0.891,0.164
45.012,-0.486,0.889,0.166
45.022,-0.496,0.891,0.170
45.032,-0.502,0.889,0.164
45.042,-0.510,0.885,0.166
45.052,-0.520,0.881,0.164
45.061,-0.525,0.879,0.166
45.071,-0.531,0.883,0.170
45.081,-0.537,0.883,0.170
45.091,-0.535,0.891,0.172
45.101,-0.539,0.889,0.174
45.111,-0.539,0.887,0.176
45.121,-0.533,0.885,0.172
45.131,-0.525,0.883,0.174
45.141,-0.521,0.881,0.172
45.151,-0.518,0.881,0.172
45.161,-0.516,0.885,0.174
45.171,-0.504,0.893,0.170
45.181,-0.494,0.887,0.170
45.190,-0.484,0.885,0.172
45.200,-0.475,0.896,0.170
45.210,-0.467,0.893,0.168
45.220,-0.461,0.895,0.164
45.230,-0.459,0.895,0.166
45.240,-0.465,0.896,0.162
45.250,-0.473,0.900,0.160
45.260,-0.484,0.904,0.164
45.270,-0.488,0.891,0.162
45.280,-0.490,0.895,0.160
45.290,-0.496,0.891,0.154
45.300,-0.498,0.889,0.156
45.309,-0.494,0.881,0.160
45.319,-0.504,0.889,0.160
45.329,-0.514,0.891,0.164
45.339,-0.516,0.893,0.162
45.349,-0.518,0.887,0.166
45.359,-0.514,0.887,0.164
45.369,-0.510,0.891,0.164
45.379,-0.504,0.898,0.162
45.389,-0.504,0.895,0.164
45.399,-0.506,0.891,0.164
45.409,-0.508,0.902,0.166
45.419,-0.510,0.902,0.168
45.429,-0.502,0.902,0.172
45.438,-0.502,0.902,0.174
45.448,-0.502,0.893,0.176
45.458,-0.498,0.891,0.172
45.468,-0.498,0.887,0.172
45.478,-0.492,0.885,0.172
45.488,-0.494,0.881,0.176
45.498,-0.494,0.883,0.176
45.508,-0.494,0.877,0.180
45.518,-0.490,0.881,0.182
45.528,-0.482,0.877,0.182
45.538,-0.477,0.881,0.186
45.548,-0.475,0.881,0.178
45.557,-0.471,0.883,0.184
45.567,-0.473,0.887,0.180
45.577,-0.469,0.883,0.182
45.587,-0.471,0.887,0.182
45.597,-0.477,0.891,0.184
45.607,-0.479,0.887,0.180
45.617,-0.484,0.887,0.176
45.627,-0.488,0.891,0.172
45.637,-0.490,0.889,0.168
45.647,-0.504,0.895,0.168
45.657,-0.508,0.898,0.168
45.667,-0.508,0.896,0.170
45.677,-0.516,0.906,0.166
45.686,-0.518,0.902,0.166
45.696,-0.516,0.900,0.166
45.706,-0.512,0.895,0.166
45.716,-0.506,0.885,0.166
45.726,-0.506,0.885,0.162
45.736,-0.502,0.883,0.164
45.746,-0.502,0.881,0.172
45.756,-0.500,0.885,0.172
45.766,-0.496,0.885,0.172
45.776,-0.492,0.887,0.176
45.786,-0.482,0.891,0.174
45.796,-0.480,0.891,0.170
45.805,-0.475,0.893,0.176
45.815,-0.479,0.891,0.178
45.825,-0.486,0.889,0.178
45.835,-0.498,0.885,0.180
45.845,-0.506,0.885,0.180
45.855,-0.514,0.883,0.184
45.865,-0.518,0.889,0.178
45.875,-0.521,0.887,0.182
45.885,-0.520,0.889,0.182
45.895,-0.514,0.891,0.186
45.905,-0.506,0.885,0.184
45.915,-0.504,0.885,0.186
45.925,-0.508,0.887,0.184
45.934,-0.506,0.875,0.182
45.944,-0.514,0.877,0.176
45.954,-0.521,0.877,0.178
45.964,-0.529,0.887,0.186
45.974,-0.520,0.883,0.176
45.984,-0.494,0.885,0.168
45.994,-0.480,0.893,0.184
46.004,-0.463,0.898,0.174
46.014,-0.455,0.902,0.176
46.024,-0.430,0.906,0.166
46.034,-0.434,0.908,0.172
46.044,-0.406,0.908,0.158
46.053,-0.396,0.912,0.158
46.063,-0.400,0.916,0.154
46.073,-0.402,0.926,0.152
46.083,-0.418,0.928,0.150
46.093,-0.424,0.914,0.146
46.103,-0.432,0.896,0.150
46.113,-0.471,0.891,0.141
46.123,-0.506,0.881,0.148
46.133,-0.533,0.873,0.150
46.143,-0.547,0.875,0.162
46.153,-0.570,0.875,0.164
46.163,-0.588,0.885,0.156
46.173,-0.576,0.883,0.162
46.182,-0.588,0.893,0.156
46.192,-0.598,0.898,0.152
46.202,-0.596,0.889,0.154
46.212,-0.576,0.896,0.152
46.222,-0.559,0.904,0.148
46.232,-0.531,0.908,0.145
46.242,-0.506,0.912,0.146
46.252,-0.494,0.916,0.141
46.262,-0.484,0.908,0.137
46.272,-0.455,0.900,0.141
46.282,-0.436,0.900,0.145
46.292,-0.418,0.898,0.141
46.301,-0.398,0.893,0.141
46.311,-0.385,0.891,0.150
46.321,-0.359,0.902,0.146
46.331,-0.340,0.916,0.162
46.341,-0.332,0.922,0.148
46.351,-0.338,0.932,0.156
46.361,-0.350,0.934,0.148
46.371,-0.389,0.910,0.145
46.381,-0.445,0.904,0.150
46.391,-0.498,0.910,0.152
46.401,-0.529,0.887,0.150
46.411,-0.541,0.871,0.158
46.421,-0.561,0.875,0.150
46.430,-0.572,0.869,0.160
46.440,-0.584,0.859,0.162
46.450,-0.592,0.861,0.172
46.460,-0.588,0.863,0.170
46.470,-0.590,0.869,0.166
46.480,-0.598,0.869,0.164
46.490,-0.578,0.881,0.160
46.500,-0.578,0.893,0.158
46.510,-0.572,0.914,0.146
46.520,-0.543,0.920,0.156
46.530,-0.525,0.920,0.146
46.540,-0.516,0.918,0.137
46.549,-0.490,0.920,0.133
46.559,-0.459,0.918,0.127
46.569,-0.436,0.916,0.119
46.579,-0.404,0.912,0.123
46.589,-0.363,0.906,0.113
46.599,-0.332,0.896,0.129
46.609,-0.301,0.912,0.131
46.619,-0.279,0.920,0.139
46.629,-0.277,0.938,0.133
46.639,-0.273,0.939,0.129
46.649,-0.291,0.926,0.119
46.659,-0.346,0.920,0.146
46.669,-0.395,0.922,0.131
46.678,-0.432,0.902,0.133
46.688,-0.479,0.875,0.121
46.698,-0.529,0.881,0.137
46.708,-0.568,0.873,0.131
46.718,-0.570,0.877,0.146
46.728,-0.602,0.893,0.127
46.738,-0.607,0.883,0.135
46.748,-0.568,0.869,0.117
46.758,-0.584,0.861,0.119
46.768,-0.582,0.869,0.121
46.778,-0.582,0.873,0.119
46.788,-0.584,0.877,0.119
46.798,-0.582,0.883,0.119
46.807,-0.598,0.885,0.123
46.817,-0.609,0.869,0.121
46.827,-0.611,0.855,0.105
46.837,-0.607,0.842,0.100
46.847,-0.617,0.842,0.104
46.857,-0.617,0.855,0.111
46.867,-0.602,0.877,0.109
46.877,-0.572,0.885,0.100
46.887,-0.529,0.891,0.084
46.897,-0.451,0.873,0.072
46.907,-0.371,0.852,0.064
46.917,-0.334,0.854,0.066
46.926,-0.348,0.877,0.076
46.936,-0.393,0.902,0.092
46.946,-0.441,0.908,0.100
46.956,-0.504,0.896,0.109
46.966,-0.559,0.883,0.115
46.976,-0.596,0.875,0.115
46.986,-0.609,0.883,0.111
46.996,-0.617,0.861,0.104
47.006,-0.631,0.865,0.105
47.016,-0.643,0.887,0.111
47.026,-0.650,0.902,0.098
47.036,-0.625,0.910,0.102
47.046,-0.629,0.918,0.096
47.055,-0.602,0.920,0.090
47.065,-0.564,0.902,0.078
47.075,-0.539,0.896,0.082
47.085,-0.514,0.885,0.088
47.095,-0.484,0.877,0.096
47.105,-0.465,0.863,0.090
47.115,-0.451,0.861,0.094
47.125,-0.443,0.855,0.098
47.135,-0.455,0.861,0.098
47.145,-0.469,0.861,0.102
47.155,-0.502,0.863,0.102
47.165,-0.531,0.861,0.104
47.174,-0.568,0.857,0.111
47.184,-0.586,0.854,0.115
47.194,-0.596,0.861,0.119
47.204,-0.592,0.861,0.121
47.214,-0.574,0.869,0.121
47.224,-0.568,0.871,0.117
47.234,-0.555,0.873,0.115
47.244,-0.555,0.879,0.115
47.254,-0.570,0.879,0.119
47.264,-0.574,0.873,0.125
47.274,-0.584,0.873,0.127
47.284,-0.582,0.865,0.129
47.294,-0.570,0.867,0.123
47.303,-0.562,0.871,0.119
47.313,-0.541,0.877,0.117
47.323,-0.516,0.877,0.111
47.333,-0.510,0.879,0.104
47.343,-0.510,0.879,0.102
47.353,-0.504,0.885,0.102
47.363,-0.512,0.893,0.105
47.373,-0.514,0.898,0.109
47.383,-0.508,0.906,0.113
47.393,-0.473,0.893,0.105
47.403,-0.445,0.871,0.102
47.413,-0.406,0.857,0.096
47.422,-0.383,0.855,0.094
47.432,-0.377,0.865,0.094
47.442,-0.385,0.885,0.098
47.452,-0.402,0.902,0.100
47.462,-0.424,0.920,0.098
47.472,-0.449,0.934,0.096
47.482,-0.473,0.938,0.094
47.492,-0.484,0.930,0.088
47.502,-0.496,0.926,0.082
47.512,-0.500,0.920,0.080
47.522,-0.500,0.910,0.068
47.532,-0.490,0.896,0.061
47.542,-0.480,0.891,0.059
47.551,-0.467,0.891,0.055
47.561,-0.469,0.891,0.061
47.571,-0.465,0.896,0.057
47.581,-0.469,0.900,0.059
47.591,-0.479,0.904,0.061
47.601,-0.484,0.906,0.057
47.611,-0.490,0.910,0.053
47.621,-0.504,0.912,0.059
47.631,-0.508,0.906,0.051
47.641,-0.506,0.900,0.049
47.651,-0.508,0.887,0.043
47.661,-0.506,0.889,0.047
47.670,-0.520,0.889,0.047
47.680,-0.521,0.883,0.045
47.690,-0.529,0.885,0.039
47.700,-0.535,0.889,0.047
47.710,-0.539,0.895,0.051
47.720,-0.549,0.900,0.047
47.730,-0.557,0.895,0.049
47.740,-0.568,0.889,0.061
47.750,-0.578,0.887,0.059
47.760,-0.580,0.873,0.062
47.770,-0.580,0.863,0.061
47.780,-0.574,0.854,0.070
47.790,-0.568,0.852,0.068
47.799,-0.562,0.854,0.070
47.809,-0.564,0.857,0.074
47.819,-0.564,0.867,0.078
47.829,-0.562,0.869,0.082
47.839,-0.557,0.865,0.074
47.849,-0.553,0.863,0.072
47.859,-0.549,0.865,0.072
47.869,-0.551,0.869,0.078
47.879,-0.547,0.867,0.082
47.889,-0.549,0.869,0.082
47.899,-0.553,0.867,0.084
47.909,-0.564,0.869,0.090
47.918,-0.570,0.871,0.092
47.928,-0.570,0.871,0.094
47.938,-0.566,0.869,0.094
47.948,-0.564,0.865,0.098
47.958,-0.555,0.863,0.094
47.968,-0.557,0.861,0.092
47.978,-0.555,0.854,0.092
47.988,-0.559,0.857,0.090
47.998,-0.549,0.855,0.090
48.008,-0.547,0.852,0.092
48.018,-0.541,0.848,0.094
48.028,-0.539,0.852,0.100
48.038,-0.537,0.857,0.102
48.047,-0.541,0.857,0.098
48.057,-0.547,0.850,0.096
48.067,-0.553,0.861,0.098
48.077,-0.564,0.863,0.096
48.087,-0.566,0.877,0.098
48.097,-0.570,0.875,0.096
48.107,-0.568,0.885,0.098
48.117,-0.568,0.881,0.092
48.127,-0.570,0.879,0.096
48.137,-0.570,0.873,0.094
48.147,-0.568,0.865,0.092
48.157,-0.566,0.861,0.090
48.166,-0.562,0.863,0.092
48.176,-0.553,0.863,0.092
48.186,-0.547,0.859,0.094
48.196,-0.549,0.859,0.094
48.206,-0.555,0.859,0.094
48.216,-0.564,0.854,0.098
48.226,-0.562,0.844,0.094
48.236,-0.562,0.846,0.098
48.246,-0.561,0.848,0.096
48.256,-0.559,0.852,0.094
48.266,-0.561,0.865,0.096
48.276,-0.562,0.863,0.092
48.286,-0.562,0.865,0.090
48.295,-0.559,0.863,0.088
48.305,-0.559,0.865,0.090
48.315,-0.561,0.863,0.094
48.325,-0.557,0.855,0.090
48.335,-0.559,0.855,0.090
48.345,-0.561,0.854,0.090
48.355,-0.562,0.846,0.094
48.365,-0.570,0.850,0.092
48.375,-0.578,0.852,0.094
48.385,-0.586,0.852,0.096
48.395,-0.596,0.854,0.094
48.405,-0.602,0.852,0.094
48.414,-0.609,0.844,0.094
48.424,-0.600,0.826,0.092
48.434,-0.590,0.814,0.096
48.444,-0.588,0.814,0.102
48.454,-0.590,0.816,0.104
48.464,-0.596,0.826,0.107
48.474,-0.602,0.832,0.107
48.484,-0.604,0.844,0.104
48.494,-0.604,0.855,0.100
48.504,-0.605,0.859,0.092
48.514,-0.604,0.867,0.092
48.524,-0.604,0.871,0.094
48.534,-0.598,0.865,0.088
48.543,-0.598,0.865,0.092
48.553,-0.600,0.859,0.094
48.563,-0.598,0.857,0.096
48.573,-0.602,0.848,0.096
48.583,-0.615,0.854,0.098
48.593,-0.631,0.854,0.098
48.603,-0.641,0.867,0.104
48.613,-0.637,0.873,0.107
48.623,-0.641,0.883,0.104
48.633,-0.648,0.889,0.100
48.643,-0.631,0.877,0.094
48.653,-0.625,0.863,0.090
48.662,-0.611,0.840,0.086
48.672,-0.604,0.826,0.088
48.682,-0.596,0.816,0.088
48.692,-0.592,0.812,0.088
48.702,-0.582,0.809,0.088
48.712,-0.578,0.807,0.094
48.722,-0.572,0.805,0.100
48.732,-0.562,0.805,0.107
48.742,-0.555,0.797,0.100
48.752,-0.516,0.777,0.092
48.762,-0.486,0.771,0.098
48.772,-0.473,0.770,0.098
48.782,-0.463,0.775,0.105
48.791,-0.490,0.803,0.125
48.801,-0.518,0.811,0.123
48.811,-0.510,0.814,0.115
48.821,-0.496,0.816,0.119
48.831,-0.506,0.820,0.117
48.841,-0.521,0.836,0.121
48.851,-0.555,0.859,0.113
48.861,-0.574,0.881,0.107
48.871,-0.600,0.895,0.102
48.881,-0.625,0.904,0.100
48.891,-0.645,0.908,0.092
48.901,-0.666,0.914,0.090
48.910,-0.686,0.910,0.082
48.920,-0.688,0.906,0.074
48.930,-0.691,0.904,0.080
48.940,-0.693,0.895,0.070
48.950,-0.695,0.883,0.068
48.960,-0.672,0.865,0.066
48.970,-0.658,0.840,0.055
48.980,-0.652,0.836,0.064
48.990,-0.658,0.830,0.059
49.000,-0.652,0.824,0.064
49.010,-0.656,0.809,0.062
49.020,-0.645,0.781,0.055
49.030,-0.623,0.766,0.062
49.039,-0.617,0.768,0.074
49.049,-0.623,0.770,0.078
49.059,-0.621,0.768,0.086
49.069,-0.613,0.764,0.086
49.079,-0.602,0.758,0.090
49.089,-0.592,0.756,0.094
49.099,-0.625,0.764,0.117
49.109,-0.648,0.787,0.133
49.119,-0.664,0.814,0.139
49.129,-0.672,0.832,0.141
49.139,-0.682,0.844,0.152
49.149,-0.670,0.857,0.146
49.158,-0.650,0.855,0.143
49.168,-0.631,0.852,0.133
49.178,-0.600,0.867,0.127
49.188,-0.570,0.869,0.125
49.198,-0.545,0.867,0.115
49.208,-0.529,0.875,0.115
49.218,-0.527,0.873,0.113
49.228,-0.535,0.865,0.104
49.238,-0.557,0.850,0.105
49.248,-0.582,0.828,0.100
49.258,-0.572,0.787,0.082
49.268,-0.568,0.762,0.096
49.278,-0.570,0.742,0.088
49.287,-0.566,0.746,0.094
49.297,-0.592,0.764,0.109
49.307,-0.617,0.785,0.117
49.317,-0.637,0.809,0.123
49.327,-0.648,0.822,0.123
49.337,-0.658,0.838,0.123
49.347,-0.662,0.859,0.125
49.357,-0.658,0.873,0.123
49.367,-0.658,0.881,0.119
49.377,-0.643,0.887,0.113
49.387,-0.643,0.889,0.109
49.397,-0.643,0.885,0.111
49.407,-0.631,0.883,0.109
49.416,-0.615,0.877,0.105
49.426,-0.604,0.863,0.100
49.436,-0.578,0.840,0.094
49.446,-0.531,0.795,0.080
49.456,-0.488,0.770,0.082
49.466,-0.486,0.766,0.090
49.476,-0.502,0.775,0.092
49.486,-0.521,0.807,0.104
49.496,-0.537,0.834,0.100
49.506,-0.547,0.842,0.096
49.516,-0.568,0.854,0.098
49.526,-0.574,0.881,0.096
49.535,-0.582,0.906,0.090
49.545,-0.582,0.914,0.080
49.555,-0.588,0.918,0.080
49.565,-0.582,0.912,0.082
49.575,-0.582,0.922,0.072
49.585,-0.574,0.928,0.068
49.595,-0.584,0.926,0.068
49.605,-0.584,0.926,0.072
49.615,-0.574,0.922,0.074
49.625,-0.568,0.910,0.068
49.635,-0.553,0.902,0.066
49.645,-0.543,0.889,0.066
49.655,-0.531,0.873,0.068
49.664,-0.531,0.869,0.072
49.674,-0.525,0.863,0.070
49.684,-0.525,0.861,0.078
