df_hash,22ZHK4.XMLDE7
device,HZ2X61
project_hash,29R7
project_name,istanbul_aydin_university
person_hash,29R7.LYXY
person_label,v138
date_time_start,2026-04-14_15-48-30.092000_+03
date_time_start_unix,1776163710.092
date_time_end,2026-04-14_15-56-41.793000_+03
length_difference_noticed,no

time,acc_x,acc_y,acc_z
5.290,-0.674,0.707,0.012
5.300,-0.676,0.709,0.016
5.310,-0.674,0.709,0.014
5.320,-0.672,0.707,0.016
5.330,-0.668,0.707,0.020
5.340,-0.672,0.707,0.020
5.350,-0.668,0.703,0.018
5.360,-0.666,0.709,0.020
5.370,-0.664,0.713,0.027
5.380,-0.662,0.713,0.027
5.390,-0.656,0.719,0.027
5.400,-0.658,0.721,0.029
5.410,-0.656,0.721,0.035
5.419,-0.654,0.721,0.031
5.429,-0.650,0.721,0.035
5.439,-0.650,0.719,0.035
5.449,-0.650,0.721,0.039
5.459,-0.648,0.721,0.041
5.469,-0.646,0.721,0.041
5.479,-0.652,0.721,0.047
5.489,-0.648,0.723,0.045
5.499,-0.646,0.723,0.049
5.509,-0.648,0.723,0.049
5.519,-0.646,0.721,0.051
5.529,-0.645,0.721,0.051
5.538,-0.645,0.725,0.055
5.548,-0.643,0.727,0.055
5.558,-0.637,0.725,0.053
5.568,-0.639,0.721,0.059
5.578,-0.639,0.721,0.059
5.588,-0.648,0.729,0.062
5.598,-0.648,0.719,0.059
5.608,-0.648,0.713,0.062
5.618,-0.646,0.711,0.061
5.628,-0.648,0.711,0.061
5.638,-0.646,0.717,0.061
5.648,-0.646,0.721,0.061
5.658,-0.646,0.719,0.064
5.667,-0.648,0.719,0.064
5.677,-0.648,0.719,0.062
5.687,-0.648,0.717,0.062
5.697,-0.648,0.713,0.064
5.707,-0.646,0.717,0.061
5.717,-0.646,0.727,0.062
5.727,-0.648,0.729,0.062
5.737,-0.646,0.725,0.064
5.747,-0.646,0.723,0.064
5.757,-0.648,0.725,0.061
5.767,-0.650,0.721,0.062
5.777,-0.654,0.721,0.066
5.787,-0.654,0.719,0.062
5.796,-0.658,0.719,0.062
5.806,-0.656,0.715,0.059
5.816,-0.656,0.715,0.057
5.826,-0.658,0.723,0.057
5.836,-0.658,0.725,0.061
5.846,-0.650,0.715,0.059
5.856,-0.652,0.715,0.051
5.866,-0.654,0.709,0.053
5.876,-0.656,0.707,0.049
5.886,-0.666,0.709,0.053
5.896,-0.664,0.709,0.047
5.906,-0.664,0.713,0.047
5.915,-0.664,0.715,0.047
5.925,-0.662,0.711,0.043
5.935,-0.662,0.703,0.045
5.945,-0.662,0.703,0.039
5.955,-0.666,0.701,0.037
5.965,-0.664,0.703,0.039
5.975,-0.664,0.705,0.035
5.985,-0.664,0.707,0.033
5.995,-0.664,0.709,0.031
6.005,-0.662,0.713,0.029
6.015,-0.664,0.711,0.023
6.025,-0.668,0.709,0.021
6.035,-0.670,0.707,0.020
6.044,-0.668,0.709,0.016
6.054,-0.670,0.709,0.016
6.064,-0.668,0.711,0.014
6.074,-0.670,0.715,0.014
6.084,-0.670,0.713,0.006
6.094,-0.668,0.713,0.006
6.104,-0.668,0.713,0.002
6.114,-0.670,0.713,0.002
6.124,-0.666,0.717,-0.002
6.134,-0.666,0.711,-0.002
6.144,-0.668,0.711,-0.004
6.154,-0.668,0.713,-0.006
6.164,-0.666,0.713,-0.006
6.173,-0.666,0.715,-0.010
6.183,-0.666,0.715,-0.010
6.193,-0.664,0.715,-0.010
6.203,-0.664,0.717,-0.016
6.213,-0.662,0.717,-0.016
6.223,-0.660,0.717,-0.016
6.233,-0.662,0.711,-0.021
6.243,-0.660,0.715,-0.018
6.253,-0.662,0.719,-0.023
6.263,-0.664,0.719,-0.027
6.273,-0.660,0.711,-0.027
6.283,-0.664,0.711,-0.029
6.292,-0.668,0.717,-0.029
6.302,-0.668,0.715,-0.027
6.312,-0.666,0.707,-0.033
6.322,-0.666,0.707,-0.039
6.332,-0.668,0.707,-0.037
6.342,-0.668,0.713,-0.039
6.352,-0.670,0.717,-0.041
6.362,-0.666,0.715,-0.045
6.372,-0.664,0.721,-0.047
6.382,-0.662,0.719,-0.045
6.392,-0.660,0.723,-0.045
6.402,-0.660,0.717,-0.047
6.412,-0.662,0.717,-0.047
6.421,-0.664,0.717,-0.045
6.431,-0.662,0.719,-0.047
6.441,-0.658,0.725,-0.045
6.451,-0.656,0.725,-0.049
6.461,-0.658,0.725,-0.049
6.471,-0.660,0.725,-0.045
6.481,-0.658,0.723,-0.047
6.491,-0.662,0.721,-0.045
6.501,-0.662,0.719,-0.051
6.511,-0.666,0.717,-0.047
6.521,-0.660,0.719,-0.049
6.531,-0.662,0.727,-0.047
6.540,-0.664,0.725,-0.041
6.550,-0.664,0.723,-0.039
6.560,-0.658,0.715,-0.041
6.570,-0.662,0.713,-0.041
6.580,-0.662,0.711,-0.041
6.590,-0.664,0.713,-0.037
6.600,-0.664,0.717,-0.039
6.610,-0.666,0.719,-0.039
6.620,-0.664,0.721,-0.035
6.630,-0.666,0.719,-0.031
6.640,-0.666,0.717,-0.033
6.650,-0.670,0.711,-0.031
6.660,-0.664,0.707,-0.027
6.669,-0.672,0.703,-0.020
6.679,-0.672,0.701,-0.018
6.689,-0.672,0.705,-0.018
6.699,-0.674,0.703,-0.008
6.709,-0.674,0.701,-0.010
6.719,-0.676,0.703,-0.010
6.729,-0.678,0.705,-0.006
6.739,-0.678,0.705,-0.004
6.749,-0.680,0.703,-0.002
6.759,-0.674,0.707,-0.002
6.769,-0.678,0.707,0.000
6.779,-0.672,0.707,0.002
6.789,-0.670,0.709,0.004
6.798,-0.670,0.707,0.008
6.808,-0.670,0.709,0.008
6.818,-0.672,0.705,0.012
6.828,-0.668,0.707,0.014
6.838,-0.670,0.709,0.014
6.848,-0.670,0.707,0.016
6.858,-0.666,0.711,0.018
6.868,-0.672,0.707,0.023
6.878,-0.668,0.711,0.023
6.888,-0.666,0.715,0.027
6.898,-0.670,0.709,0.027
6.908,-0.670,0.711,0.027
6.917,-0.668,0.713,0.025
6.927,-0.668,0.709,0.031
6.937,-0.666,0.713,0.027
6.947,-0.668,0.713,0.037
6.957,-0.662,0.711,0.037
6.967,-0.660,0.707,0.033
6.977,-0.664,0.709,0.041
6.987,-0.670,0.711,0.043
6.997,-0.664,0.707,0.043
7.007,-0.664,0.703,0.039
7.017,-0.662,0.703,0.041
7.027,-0.664,0.707,0.039
7.037,-0.662,0.709,0.045
7.046,-0.660,0.715,0.047
7.056,-0.658,0.717,0.047
7.066,-0.658,0.713,0.049
7.076,-0.658,0.709,0.047
7.086,-0.656,0.707,0.051
7.096,-0.656,0.709,0.047
7.106,-0.658,0.709,0.049
7.116,-0.656,0.715,0.051
7.126,-0.658,0.719,0.053
7.136,-0.656,0.727,0.053
7.146,-0.652,0.723,0.055
7.156,-0.654,0.721,0.053
7.165,-0.654,0.721,0.051
7.175,-0.650,0.719,0.053
7.185,-0.654,0.719,0.053
7.195,-0.652,0.723,0.053
7.205,-0.645,0.723,0.053
7.215,-0.645,0.729,0.055
7.225,-0.645,0.730,0.059
7.235,-0.645,0.729,0.057
7.245,-0.639,0.723,0.061
7.255,-0.645,0.719,0.057
7.265,-0.646,0.715,0.057
7.275,-0.646,0.715,0.061
7.285,-0.648,0.715,0.059
7.294,-0.650,0.721,0.062
7.304,-0.648,0.723,0.061
7.314,-0.648,0.723,0.059
7.324,-0.650,0.719,0.059
7.334,-0.650,0.715,0.061
7.344,-0.650,0.715,0.059
7.354,-0.652,0.715,0.055
7.364,-0.652,0.713,0.059
7.374,-0.652,0.717,0.057
7.384,-0.654,0.715,0.059
7.394,-0.656,0.713,0.057
7.404,-0.656,0.713,0.055
7.414,-0.658,0.713,0.053
7.423,-0.660,0.709,0.057
7.433,-0.666,0.713,0.049
7.443,-0.664,0.709,0.053
7.453,-0.666,0.707,0.053
7.463,-0.664,0.711,0.051
7.473,-0.664,0.711,0.047
7.483,-0.664,0.711,0.041
7.493,-0.666,0.711,0.041
7.503,-0.666,0.711,0.039
7.513,-0.664,0.713,0.037
7.523,-0.668,0.713,0.035
7.533,-0.672,0.713,0.035
7.542,-0.666,0.711,0.031
7.552,-0.670,0.709,0.029
7.562,-0.674,0.709,0.027
7.572,-0.668,0.709,0.029
7.582,-0.670,0.707,0.025
7.592,-0.672,0.707,0.021
7.602,-0.668,0.709,0.020
7.612,-0.668,0.713,0.021
7.622,-0.672,0.711,0.020
7.632,-0.670,0.703,0.016
7.642,-0.672,0.709,0.014
7.652,-0.676,0.711,0.014
7.662,-0.672,0.705,0.010
7.671,-0.672,0.697,0.008
7.681,-0.674,0.701,0.004
7.691,-0.672,0.703,0.004
7.701,-0.676,0.707,0.004
7.711,-0.672,0.705,0.000
7.721,-0.674,0.711,-0.002
7.731,-0.674,0.711,0.000
7.741,-0.674,0.709,-0.004
7.751,-0.674,0.703,-0.004
7.761,-0.670,0.705,-0.006
7.771,-0.674,0.707,-0.006
7.781,-0.670,0.707,-0.008
7.791,-0.666,0.711,-0.010
7.800,-0.668,0.715,-0.012
7.810,-0.666,0.717,-0.010
7.820,-0.660,0.715,-0.012
7.830,-0.664,0.715,-0.012
7.840,-0.666,0.719,-0.016
7.850,-0.664,0.719,-0.018
7.860,-0.664,0.717,-0.020
7.870,-0.660,0.713,-0.020
7.880,-0.660,0.723,-0.016
7.890,-0.662,0.723,-0.016
7.900,-0.658,0.723,-0.021
7.910,-0.654,0.719,-0.021
7.919,-0.656,0.715,-0.023
7.929,-0.654,0.719,-0.027
7.939,-0.654,0.725,-0.027
7.949,-0.656,0.719,-0.025
7.959,-0.658,0.719,-0.027
7.969,-0.662,0.719,-0.023
7.979,-0.666,0.717,-0.025
7.989,-0.664,0.715,-0.027
7.999,-0.662,0.715,-0.025
8.009,-0.660,0.717,-0.027
8.019,-0.658,0.715,-0.025
8.029,-0.658,0.717,-0.031
8.039,-0.656,0.719,-0.029
8.048,-0.658,0.719,-0.033
8.058,-0.658,0.721,-0.031
8.068,-0.658,0.719,-0.035
8.078,-0.662,0.723,-0.035
8.088,-0.660,0.725,-0.037
8.098,-0.662,0.725,-0.033
8.108,-0.660,0.725,-0.037
8.118,-0.660,0.723,-0.037
8.128,-0.658,0.715,-0.037
8.138,-0.660,0.717,-0.037
8.148,-0.660,0.715,-0.037
8.158,-0.662,0.721,-0.033
8.167,-0.666,0.719,-0.035
8.177,-0.664,0.719,-0.031
8.187,-0.666,0.719,-0.029
8.197,-0.664,0.715,-0.027
8.207,-0.662,0.719,-0.025
8.217,-0.664,0.717,-0.025
8.227,-0.662,0.715,-0.025
8.237,-0.660,0.709,-0.023
8.247,-0.660,0.715,-0.023
8.257,-0.662,0.717,-0.020
8.267,-0.662,0.719,-0.018
8.277,-0.666,0.713,-0.018
8.287,-0.666,0.711,-0.014
8.296,-0.670,0.717,-0.012
8.306,-0.670,0.709,-0.014
8.316,-0.670,0.703,-0.014
8.326,-0.670,0.703,-0.012
8.336,-0.670,0.709,-0.012
8.346,-0.672,0.711,-0.008
8.356,-0.672,0.711,-0.006
8.366,-0.672,0.711,-0.006
8.376,-0.670,0.707,-0.004
8.386,-0.672,0.705,-0.006
8.396,-0.672,0.703,-0.002
8.406,-0.668,0.703,-0.002
8.416,-0.666,0.705,-0.002
8.425,-0.670,0.711,0.002
8.435,-0.668,0.709,0.004
8.445,-0.668,0.715,0.010
8.455,-0.668,0.715,0.006
8.465,-0.668,0.715,0.008
8.475,-0.670,0.709,0.008
8.485,-0.670,0.709,0.010
8.495,-0.674,0.705,0.010
8.505,-0.674,0.701,0.010
8.515,-0.672,0.703,0.010
8.525,-0.672,0.713,0.014
8.535,-0.670,0.717,0.018
8.544,-0.668,0.719,0.018
8.554,-0.662,0.711,0.021
8.564,-0.664,0.707,0.018
8.574,-0.662,0.707,0.021
8.584,-0.664,0.705,0.021
8.594,-0.662,0.707,0.025
8.604,-0.660,0.709,0.020
8.614,-0.660,0.715,0.025
8.624,-0.662,0.717,0.027
8.634,-0.662,0.709,0.023
8.644,-0.664,0.715,0.025
8.654,-0.662,0.711,0.023
8.664,-0.666,0.713,0.021
8.673,-0.664,0.711,0.025
8.683,-0.666,0.709,0.025
8.693,-0.662,0.713,0.029
8.703,-0.664,0.717,0.029
8.713,-0.664,0.717,0.029
8.723,-0.664,0.713,0.031
8.733,-0.668,0.711,0.031
8.743,-0.666,0.709,0.029
8.753,-0.664,0.711,0.027
8.763,-0.666,0.711,0.029
8.773,-0.662,0.719,0.031
8.783,-0.660,0.717,0.033
8.793,-0.662,0.719,0.031
8.802,-0.658,0.717,0.031
8.812,-0.658,0.719,0.033
8.822,-0.658,0.717,0.035
8.832,-0.658,0.717,0.037
8.842,-0.654,0.715,0.035
8.852,-0.654,0.723,0.037
8.862,-0.654,0.723,0.039
8.872,-0.650,0.717,0.037
8.882,-0.654,0.719,0.041
8.892,-0.656,0.721,0.043
8.902,-0.658,0.717,0.041
8.912,-0.656,0.707,0.037
8.921,-0.658,0.709,0.039
8.931,-0.660,0.711,0.043
8.941,-0.656,0.715,0.043
8.951,-0.658,0.717,0.045
8.961,-0.656,0.719,0.043
8.971,-0.658,0.711,0.037
8.981,-0.656,0.713,0.043
8.991,-0.658,0.713,0.043
9.001,-0.654,0.713,0.039
9.011,-0.658,0.717,0.039
9.021,-0.656,0.719,0.045
9.031,-0.654,0.719,0.043
9.041,-0.654,0.719,0.041
9.050,-0.656,0.719,0.043
9.060,-0.658,0.715,0.045
9.070,-0.660,0.713,0.043
9.080,-0.658,0.715,0.041
9.090,-0.660,0.715,0.041
9.100,-0.660,0.717,0.041
9.110,-0.662,0.713,0.037
9.120,-0.662,0.723,0.043
9.130,-0.664,0.721,0.037
9.140,-0.662,0.719,0.039
9.150,-0.656,0.711,0.037
9.160,-0.662,0.709,0.037
9.169,-0.660,0.705,0.035
9.179,-0.662,0.707,0.037
9.189,-0.664,0.711,0.037
9.199,-0.664,0.713,0.035
9.209,-0.666,0.711,0.029
9.219,-0.664,0.711,0.031
9.229,-0.668,0.709,0.031
9.239,-0.666,0.707,0.031
9.249,-0.664,0.709,0.027
9.259,-0.664,0.707,0.025
9.269,-0.666,0.707,0.025
9.279,-0.664,0.711,0.027
9.289,-0.664,0.711,0.023
9.298,-0.664,0.711,0.020
9.308,-0.666,0.711,0.020
9.318,-0.666,0.709,0.018
9.328,-0.668,0.711,0.014
9.338,-0.672,0.713,0.014
9.348,-0.670,0.711,0.014
9.358,-0.672,0.707,0.016
9.368,-0.668,0.707,0.016
9.378,-0.668,0.709,0.010
9.388,-0.668,0.713,0.010
9.398,-0.666,0.709,0.010
9.408,-0.666,0.711,0.008
9.418,-0.666,0.715,0.008
9.427,-0.666,0.717,0.006
9.437,-0.668,0.713,0.006
9.447,-0.670,0.707,-0.002
9.457,-0.672,0.711,0.002
9.467,-0.668,0.717,0.004
9.477,-0.668,0.707,0.000
9.487,-0.670,0.707,-0.002
9.497,-0.668,0.713,0.002
9.507,-0.668,0.713,0.000
9.517,-0.668,0.707,0.000
9.527,-0.670,0.701,-0.004
9.537,-0.674,0.703,-0.002
9.546,-0.672,0.703,-0.008
9.556,-0.674,0.703,-0.008
9.566,-0.674,0.705,-0.010
9.576,-0.678,0.705,-0.008
9.586,-0.674,0.707,-0.010
9.596,-0.672,0.707,-0.014
9.606,-0.672,0.703,-0.014
9.616,-0.670,0.707,-0.012
9.626,-0.672,0.707,-0.016
9.636,-0.670,0.707,-0.020
9.646,-0.670,0.709,-0.018
9.656,-0.674,0.713,-0.018
9.666,-0.674,0.713,-0.018
9.675,-0.676,0.709,-0.020
9.685,-0.672,0.705,-0.021
9.695,-0.672,0.707,-0.020
9.705,-0.674,0.707,-0.020
9.715,-0.676,0.705,-0.023
9.725,-0.672,0.705,-0.023
9.735,-0.670,0.711,-0.023
9.745,-0.670,0.713,-0.023
9.755,-0.670,0.713,-0.025
9.765,-0.668,0.707,-0.025
9.775,-0.668,0.699,-0.029
9.785,-0.670,0.699,-0.029
9.794,-0.674,0.701,-0.029
9.804,-0.672,0.703,-0.031
9.814,-0.674,0.707,-0.027
9.824,-0.672,0.707,-0.033
9.834,-0.672,0.709,-0.031
9.844,-0.670,0.707,-0.033
9.854,-0.670,0.703,-0.035
9.864,-0.672,0.701,-0.035
9.874,-0.672,0.699,-0.035
9.884,-0.670,0.705,-0.037
9.894,-0.672,0.701,-0.037
9.904,-0.672,0.703,-0.039
9.914,-0.674,0.709,-0.039
9.923,-0.670,0.705,-0.037
9.933,-0.672,0.705,-0.041
9.943,-0.672,0.705,-0.041
9.953,-0.672,0.705,-0.041
9.963,-0.674,0.705,-0.043
9.973,-0.674,0.703,-0.041
9.983,-0.672,0.703,-0.043
9.993,-0.672,0.705,-0.045
10.003,-0.674,0.707,-0.049
10.013,-0.668,0.707,-0.045
10.023,-0.668,0.709,-0.045
10.033,-0.672,0.707,-0.047
10.043,-0.670,0.707,-0.045
10.052,-0.670,0.709,-0.045
10.062,-0.670,0.711,-0.047
10.072,-0.664,0.705,-0.049
10.082,-0.664,0.705,-0.045
10.092,-0.668,0.707,-0.043
10.102,-0.664,0.711,-0.049
10.112,-0.664,0.715,-0.043
10.122,-0.660,0.709,-0.047
10.132,-0.666,0.707,-0.049
10.142,-0.666,0.711,-0.047
10.152,-0.666,0.707,-0.045
10.162,-0.664,0.703,-0.051
10.171,-0.672,0.701,-0.051
10.181,-0.668,0.701,-0.049
10.191,-0.672,0.703,-0.051
10.201,-0.676,0.705,-0.055
10.211,-0.674,0.705,-0.051
10.221,-0.672,0.707,-0.051
10.231,-0.674,0.703,-0.057
10.241,-0.674,0.701,-0.055
10.251,-0.670,0.703,-0.057
10.261,-0.668,0.705,-0.057
10.271,-0.668,0.713,-0.057
10.281,-0.668,0.711,-0.057
10.291,-0.662,0.713,-0.057
10.300,-0.664,0.715,-0.059
10.310,-0.666,0.711,-0.057
10.320,-0.664,0.709,-0.051
10.330,-0.666,0.711,-0.055
10.340,-0.668,0.709,-0.053
10.350,-0.668,0.709,-0.053
10.360,-0.668,0.703,-0.055
10.370,-0.670,0.705,-0.057
10.380,-0.670,0.707,-0.059
10.390,-0.676,0.713,-0.057
10.400,-0.672,0.709,-0.055
10.410,-0.668,0.707,-0.057
10.420,-0.668,0.705,-0.055
10.429,-0.668,0.703,-0.055
10.439,-0.670,0.703,-0.059
10.449,-0.668,0.705,-0.061
10.459,-0.666,0.709,-0.057
10.469,-0.672,0.707,-0.061
10.479,-0.668,0.705,-0.055
10.489,-0.668,0.705,-0.057
10.499,-0.666,0.705,-0.055
10.509,-0.664,0.705,-0.059
10.519,-0.664,0.705,-0.055
10.529,-0.666,0.707,-0.057
10.539,-0.664,0.709,-0.057
10.548,-0.664,0.707,-0.057
10.558,-0.662,0.711,-0.057
10.568,-0.662,0.713,-0.057
10.578,-0.666,0.713,-0.057
10.588,-0.666,0.709,-0.057
10.598,-0.668,0.711,-0.057
10.608,-0.666,0.709,-0.059
10.618,-0.668,0.709,-0.059
10.628,-0.662,0.711,-0.055
10.638,-0.662,0.713,-0.059
10.648,-0.660,0.711,-0.053
10.658,-0.660,0.715,-0.053
10.668,-0.660,0.715,-0.053
10.677,-0.658,0.715,-0.049
10.687,-0.658,0.715,-0.051
10.697,-0.662,0.719,-0.051
10.707,-0.656,0.713,-0.049
10.717,-0.660,0.713,-0.047
10.727,-0.658,0.711,-0.045
10.737,-0.658,0.713,-0.049
10.747,-0.658,0.715,-0.043
10.757,-0.656,0.711,-0.049
10.767,-0.656,0.709,-0.049
10.777,-0.660,0.713,-0.049
10.787,-0.664,0.713,-0.043
10.796,-0.662,0.707,-0.047
10.806,-0.662,0.703,-0.047
10.816,-0.662,0.707,-0.051
10.826,-0.664,0.709,-0.051
10.836,-0.670,0.713,-0.049
10.846,-0.668,0.713,-0.049
10.856,-0.668,0.715,-0.051
10.866,-0.664,0.711,-0.053
10.876,-0.664,0.707,-0.047
10.886,-0.664,0.705,-0.053
10.896,-0.658,0.699,-0.045
10.906,-0.658,0.711,-0.043
10.916,-0.662,0.713,-0.039
10.925,-0.664,0.717,-0.041
10.935,-0.664,0.717,-0.037
10.945,-0.668,0.715,-0.039
10.955,-0.670,0.711,-0.043
10.965,-0.666,0.709,-0.043
10.975,-0.666,0.709,-0.039
10.985,-0.668,0.709,-0.041
10.995,-0.666,0.711,-0.043
11.005,-0.662,0.709,-0.041
11.015,-0.664,0.715,-0.041
11.025,-0.664,0.717,-0.035
11.035,-0.664,0.717,-0.039
11.045,-0.658,0.709,-0.035
11.054,-0.662,0.703,-0.035
11.064,-0.660,0.705,-0.035
11.074,-0.664,0.705,-0.035
11.084,-0.666,0.713,-0.033
11.094,-0.664,0.711,-0.035
11.104,-0.662,0.711,-0.035
11.114,-0.664,0.711,-0.037
11.124,-0.664,0.709,-0.037
11.134,-0.662,0.709,-0.037
11.144,-0.664,0.709,-0.037
11.154,-0.664,0.713,-0.037
11.164,-0.662,0.713,-0.035
11.173,-0.662,0.717,-0.033
11.183,-0.664,0.715,-0.035
11.193,-0.666,0.713,-0.033
11.203,-0.664,0.713,-0.037
11.213,-0.668,0.715,-0.037
11.223,-0.666,0.711,-0.039
11.233,-0.666,0.713,-0.033
11.243,-0.664,0.719,-0.029
11.253,-0.664,0.719,-0.033
11.263,-0.664,0.717,-0.033
11.273,-0.664,0.715,-0.033
11.283,-0.662,0.717,-0.029
11.293,-0.664,0.713,-0.033
11.302,-0.658,0.711,-0.029
11.312,-0.662,0.711,-0.029
11.322,-0.662,0.713,-0.029
11.332,-0.662,0.713,-0.027
11.342,-0.662,0.713,-0.029
11.352,-0.664,0.713,-0.025
11.362,-0.664,0.717,-0.027
11.372,-0.662,0.715,-0.023
11.382,-0.660,0.721,-0.023
11.392,-0.660,0.713,-0.023
11.402,-0.660,0.713,-0.023
11.412,-0.660,0.719,-0.021
11.421,-0.662,0.717,-0.020
11.431,-0.658,0.711,-0.021
11.441,-0.660,0.711,-0.020
11.451,-0.668,0.717,-0.018
11.461,-0.664,0.715,-0.016
11.471,-0.666,0.711,-0.016
11.481,-0.664,0.709,-0.018
11.491,-0.664,0.709,-0.018
11.501,-0.664,0.711,-0.014
11.511,-0.668,0.715,-0.018
11.521,-0.668,0.717,-0.016
11.531,-0.660,0.717,-0.016
11.541,-0.662,0.717,-0.016
11.550,-0.658,0.713,-0.018
11.560,-0.658,0.717,-0.014
11.570,-0.656,0.717,-0.012
11.580,-0.658,0.721,-0.010
11.590,-0.654,0.725,-0.014
11.600,-0.656,0.725,-0.010
11.610,-0.652,0.723,-0.010
11.620,-0.654,0.725,-0.008
11.630,-0.652,0.723,-0.006
11.640,-0.654,0.723,-0.004
11.650,-0.654,0.721,0.000
11.660,-0.656,0.717,0.000
11.670,-0.658,0.717,-0.006
11.679,-0.654,0.717,-0.006
11.689,-0.656,0.723,0.004
11.699,-0.660,0.725,0.002
11.709,-0.650,0.723,0.002
11.719,-0.650,0.723,0.002
11.729,-0.650,0.719,0.002
11.739,-0.652,0.723,0.002
11.749,-0.650,0.719,0.004
11.759,-0.654,0.717,0.002
11.769,-0.654,0.719,0.006
11.779,-0.652,0.721,0.008
11.789,-0.648,0.723,0.006
11.798,-0.650,0.723,0.008
11.808,-0.646,0.723,0.012
11.818,-0.646,0.725,0.014
11.828,-0.643,0.725,0.010
11.838,-0.645,0.725,0.012
11.848,-0.645,0.723,0.014
11.858,-0.646,0.723,0.010
11.868,-0.648,0.725,0.012
11.878,-0.652,0.725,0.012
11.888,-0.654,0.727,0.014
11.898,-0.654,0.727,0.014
11.908,-0.652,0.725,0.014
11.918,-0.646,0.725,0.014
11.927,-0.645,0.729,0.018
11.937,-0.646,0.732,0.016
11.947,-0.650,0.729,0.020
11.957,-0.646,0.729,0.016
11.967,-0.648,0.729,0.021
11.977,-0.648,0.729,0.018
11.987,-0.643,0.729,0.020
11.997,-0.633,0.727,0.021
12.007,-0.619,0.730,0.023
12.017,-0.609,0.738,0.020
12.027,-0.609,0.744,0.021
12.037,-0.611,0.748,0.023
12.047,-0.619,0.750,0.023
12.056,-0.633,0.748,0.018
12.066,-0.641,0.738,0.016
12.076,-0.654,0.732,0.012
12.086,-0.654,0.729,0.014
12.096,-0.643,0.727,0.014
12.106,-0.631,0.732,0.014
12.116,-0.617,0.742,0.014
12.126,-0.615,0.740,0.014
12.136,-0.621,0.734,0.014
12.146,-0.633,0.734,0.010
12.156,-0.646,0.738,0.006
12.166,-0.656,0.723,0.004
12.175,-0.672,0.713,-0.002
12.185,-0.680,0.709,-0.004
12.195,-0.682,0.709,-0.004
12.205,-0.678,0.711,0.000
12.215,-0.660,0.717,0.000
12.225,-0.646,0.727,0.002
12.235,-0.643,0.732,0.002
12.245,-0.637,0.734,0.000
12.255,-0.641,0.734,-0.002
12.265,-0.646,0.730,-0.004
12.275,-0.652,0.730,-0.006
12.285,-0.652,0.732,-0.006
12.295,-0.645,0.738,-0.002
12.304,-0.641,0.750,0.002
12.314,-0.635,0.756,0.002
12.324,-0.631,0.754,0.002
12.334,-0.629,0.750,0.002
12.344,-0.637,0.742,0.002
12.354,-0.635,0.742,0.002
12.364,-0.631,0.742,0.000
12.374,-0.635,0.742,0.004
12.384,-0.627,0.746,0.004
12.394,-0.629,0.754,0.008
12.404,-0.629,0.758,0.008
12.414,-0.623,0.756,0.012
12.423,-0.615,0.754,0.016
12.433,-0.615,0.750,0.012
12.443,-0.615,0.746,0.014
12.453,-0.615,0.748,0.016
12.463,-0.619,0.744,0.014
12.473,-0.621,0.744,0.021
12.483,-0.619,0.748,0.023
12.493,-0.617,0.756,0.025
12.503,-0.617,0.760,0.023
12.513,-0.607,0.762,0.027
12.523,-0.600,0.764,0.033
12.533,-0.594,0.762,0.033
12.543,-0.594,0.764,0.037
12.552,-0.600,0.760,0.039
12.562,-0.605,0.760,0.043
12.572,-0.609,0.758,0.047
12.582,-0.617,0.754,0.051
12.592,-0.619,0.754,0.051
12.602,-0.623,0.752,0.055
12.612,-0.621,0.754,0.061
12.622,-0.619,0.756,0.059
12.632,-0.607,0.762,0.062
12.642,-0.602,0.760,0.066
12.652,-0.596,0.764,0.070
12.662,-0.592,0.760,0.074
12.672,-0.596,0.760,0.080
12.681,-0.598,0.754,0.082
12.691,-0.600,0.750,0.082
12.701,-0.605,0.752,0.086
12.711,-0.602,0.756,0.094
12.721,-0.598,0.756,0.102
12.731,-0.602,0.756,0.100
12.741,-0.598,0.756,0.100
12.751,-0.598,0.760,0.100
12.761,-0.604,0.754,0.102
12.771,-0.602,0.754,0.104
12.781,-0.604,0.754,0.107
12.791,-0.604,0.750,0.111
12.800,-0.600,0.746,0.113
12.810,-0.602,0.752,0.119
12.820,-0.602,0.756,0.125
12.830,-0.600,0.752,0.125
12.840,-0.600,0.750,0.121
12.850,-0.605,0.756,0.129
12.860,-0.611,0.754,0.131
12.870,-0.615,0.746,0.133
12.880,-0.609,0.736,0.135
12.890,-0.613,0.736,0.139
12.900,-0.613,0.738,0.139
12.910,-0.613,0.736,0.139
12.920,-0.611,0.740,0.141
12.929,-0.609,0.738,0.139
12.939,-0.617,0.738,0.139
12.949,-0.615,0.738,0.137
12.959,-0.623,0.738,0.133
12.969,-0.623,0.736,0.139
12.979,-0.623,0.744,0.133
12.989,-0.623,0.744,0.135
12.999,-0.619,0.748,0.135
13.009,-0.619,0.746,0.135
13.019,-0.615,0.746,0.135
13.029,-0.617,0.742,0.135
13.039,-0.615,0.744,0.135
13.048,-0.613,0.746,0.135
13.058,-0.613,0.748,0.131
13.068,-0.611,0.748,0.131
13.078,-0.604,0.746,0.129
13.088,-0.598,0.754,0.133
13.098,-0.600,0.758,0.133
13.108,-0.598,0.754,0.129
13.118,-0.592,0.754,0.133
13.128,-0.590,0.756,0.131
13.138,-0.592,0.756,0.127
13.148,-0.592,0.754,0.129
13.158,-0.592,0.756,0.127
13.168,-0.596,0.758,0.127
13.177,-0.598,0.762,0.123
13.187,-0.596,0.762,0.121
13.197,-0.598,0.760,0.121
13.207,-0.594,0.760,0.117
13.217,-0.590,0.762,0.115
13.227,-0.588,0.764,0.113
13.237,-0.590,0.766,0.111
13.247,-0.586,0.764,0.115
13.257,-0.588,0.764,0.113
13.267,-0.586,0.762,0.107
13.277,-0.592,0.766,0.105
13.287,-0.596,0.771,0.100
13.297,-0.598,0.770,0.098
13.306,-0.598,0.764,0.096
13.316,-0.602,0.773,0.092
13.326,-0.604,0.771,0.092
13.336,-0.602,0.771,0.090
13.346,-0.604,0.770,0.096
13.356,-0.613,0.758,0.074
13.366,-0.621,0.760,0.074
13.376,-0.623,0.762,0.070
13.386,-0.627,0.768,0.061
13.396,-0.635,0.777,0.062
13.406,-0.635,0.783,0.068
13.416,-0.641,0.781,0.066
13.425,-0.645,0.789,0.076
13.435,-0.648,0.783,0.082
13.445,-0.641,0.775,0.088
13.455,-0.631,0.764,0.092
13.465,-0.629,0.758,0.092
13.475,-0.625,0.754,0.090
13.485,-0.621,0.762,0.096
13.495,-0.613,0.770,0.109
13.505,-0.602,0.773,0.119
13.515,-0.590,0.779,0.137
13.525,-0.584,0.781,0.150
13.535,-0.590,0.777,0.168
13.545,-0.590,0.764,0.172
13.554,-0.594,0.740,0.176
13.564,-0.598,0.725,0.184
13.574,-0.604,0.713,0.182
13.584,-0.607,0.709,0.186
13.594,-0.602,0.727,0.193
13.604,-0.590,0.750,0.205
13.614,-0.578,0.766,0.221
13.624,-0.564,0.764,0.230
13.634,-0.555,0.758,0.240
13.644,-0.553,0.754,0.248
13.654,-0.557,0.748,0.256
13.664,-0.559,0.742,0.262
13.674,-0.564,0.744,0.266
13.683,-0.568,0.750,0.275
13.693,-0.566,0.750,0.281
13.703,-0.561,0.738,0.283
13.713,-0.553,0.738,0.289
13.723,-0.545,0.736,0.295
13.733,-0.531,0.734,0.303
13.743,-0.525,0.734,0.309
13.753,-0.531,0.738,0.307
13.763,-0.539,0.750,0.309
13.773,-0.561,0.775,0.305
13.783,-0.576,0.777,0.311
13.793,-0.568,0.754,0.311
13.802,-0.562,0.736,0.314
13.812,-0.547,0.727,0.322
13.822,-0.535,0.732,0.332
13.832,-0.527,0.732,0.338
13.842,-0.521,0.732,0.342
13.852,-0.516,0.744,0.338
13.862,-0.514,0.752,0.334
13.872,-0.504,0.760,0.334
13.882,-0.498,0.773,0.326
13.892,-0.492,0.783,0.322
13.902,-0.480,0.783,0.324
13.912,-0.463,0.791,0.320
13.922,-0.449,0.803,0.326
13.931,-0.439,0.816,0.330
13.941,-0.434,0.816,0.328
13.951,-0.430,0.812,0.322
13.961,-0.418,0.818,0.326
13.971,-0.441,0.822,0.320
13.981,-0.418,0.836,0.318
13.991,-0.434,0.844,0.324
14.001,-0.434,0.844,0.330
14.011,-0.438,0.848,0.332
14.021,-0.432,0.842,0.334
14.031,-0.422,0.826,0.334
14.041,-0.410,0.832,0.330
14.050,-0.402,0.840,0.334
14.060,-0.391,0.836,0.334
14.070,-0.389,0.838,0.334
14.080,-0.385,0.852,0.338
14.090,-0.387,0.859,0.332
14.100,-0.383,0.855,0.336
14.110,-0.381,0.848,0.330
14.120,-0.379,0.844,0.334
14.130,-0.375,0.848,0.336
14.140,-0.357,0.857,0.344
14.150,-0.346,0.861,0.344
14.160,-0.346,0.857,0.348
14.170,-0.352,0.855,0.352
14.179,-0.365,0.834,0.355
14.189,-0.379,0.801,0.359
14.199,-0.393,0.779,0.357
14.209,-0.402,0.791,0.367
14.219,-0.404,0.801,0.375
14.229,-0.412,0.814,0.375
14.239,-0.414,0.818,0.381
14.249,-0.414,0.801,0.377
14.259,-0.426,0.797,0.381
14.269,-0.426,0.789,0.389
14.279,-0.432,0.766,0.393
14.289,-0.439,0.738,0.398
14.299,-0.453,0.729,0.410
14.308,-0.455,0.734,0.416
14.318,-0.465,0.734,0.428
14.328,-0.461,0.736,0.432
14.338,-0.461,0.748,0.432
14.348,-0.455,0.740,0.434
14.358,-0.453,0.732,0.439
14.368,-0.465,0.721,0.441
14.378,-0.477,0.709,0.445
14.388,-0.490,0.689,0.451
14.398,-0.494,0.703,0.457
14.408,-0.484,0.703,0.461
14.418,-0.484,0.715,0.459
14.427,-0.475,0.723,0.461
14.437,-0.463,0.725,0.459
14.447,-0.459,0.719,0.459
14.457,-0.459,0.705,0.463
14.467,-0.469,0.697,0.471
14.477,-0.484,0.688,0.479
14.487,-0.496,0.689,0.480
14.497,-0.490,0.701,0.486
14.507,-0.486,0.711,0.486
14.517,-0.479,0.717,0.490
14.527,-0.469,0.723,0.490
14.537,-0.463,0.719,0.490
14.547,-0.461,0.725,0.490
14.556,-0.459,0.723,0.492
14.566,-0.469,0.715,0.488
14.576,-0.475,0.701,0.494
14.586,-0.480,0.684,0.486
14.596,-0.486,0.695,0.490
14.606,-0.486,0.701,0.494
14.616,-0.484,0.697,0.492
14.626,-0.484,0.703,0.488
14.636,-0.486,0.715,0.484
14.646,-0.484,0.709,0.488
14.656,-0.490,0.709,0.482
14.666,-0.490,0.697,0.482
14.675,-0.500,0.691,0.486
14.685,-0.514,0.699,0.490
14.695,-0.518,0.693,0.492
14.705,-0.518,0.693,0.498
14.715,-0.514,0.701,0.504
14.725,-0.500,0.703,0.510
14.735,-0.494,0.711,0.512
14.745,-0.496,0.701,0.520
14.755,-0.494,0.682,0.520
14.765,-0.498,0.676,0.527
14.775,-0.500,0.676,0.533
14.785,-0.502,0.688,0.545
14.795,-0.500,0.699,0.551
14.804,-0.492,0.693,0.547
14.814,-0.492,0.697,0.545
14.824,-0.500,0.689,0.543
14.834,-0.500,0.682,0.539
14.844,-0.496,0.676,0.529
14.854,-0.496,0.678,0.525
14.864,-0.500,0.680,0.521
14.874,-0.502,0.689,0.521
14.884,-0.504,0.723,0.520
14.894,-0.496,0.717,0.523
14.904,-0.486,0.711,0.516
14.914,-0.482,0.711,0.512
14.924,-0.473,0.715,0.512
14.933,-0.457,0.707,0.506
14.943,-0.447,0.713,0.500
14.953,-0.439,0.727,0.496
14.963,-0.426,0.734,0.490
14.973,-0.420,0.730,0.480
14.983,-0.416,0.746,0.479
14.993,-0.410,0.754,0.467
15.003,-0.414,0.754,0.461
15.013,-0.426,0.752,0.449
15.023,-0.424,0.754,0.445
15.033,-0.426,0.750,0.436
15.043,-0.422,0.764,0.432
15.052,-0.414,0.771,0.428
15.062,-0.406,0.781,0.416
15.072,-0.402,0.799,0.416
15.082,-0.396,0.799,0.416
15.092,-0.393,0.793,0.408
15.102,-0.389,0.781,0.406
15.112,-0.377,0.785,0.395
15.122,-0.367,0.791,0.387
15.132,-0.357,0.795,0.379
15.142,-0.350,0.797,0.371
15.152,-0.355,0.807,0.367
15.162,-0.352,0.818,0.357
15.172,-0.352,0.832,0.352
15.181,-0.346,0.834,0.342
15.191,-0.340,0.834,0.332
15.201,-0.330,0.844,0.320
15.211,-0.324,0.844,0.312
15.221,-0.318,0.850,0.303
15.231,-0.311,0.850,0.287
15.241,-0.309,0.855,0.275
15.251,-0.307,0.854,0.266
15.261,-0.307,0.848,0.254
15.271,-0.299,0.852,0.246
15.281,-0.291,0.861,0.242
15.291,-0.279,0.857,0.232
15.301,-0.275,0.865,0.213
15.310,-0.271,0.887,0.215
15.320,-0.273,0.891,0.207
15.330,-0.275,0.895,0.199
15.340,-0.283,0.900,0.201
15.350,-0.283,0.895,0.189
15.360,-0.285,0.877,0.176
15.370,-0.289,0.875,0.162
15.380,-0.285,0.877,0.152
15.390,-0.270,0.877,0.141
15.400,-0.258,0.887,0.135
15.410,-0.254,0.910,0.135
15.420,-0.254,0.918,0.137
15.429,-0.266,0.926,0.139
15.439,-0.273,0.934,0.141
15.449,-0.277,0.930,0.133
15.459,-0.281,0.908,0.121
15.469,-0.281,0.885,0.105
15.479,-0.268,0.863,0.094
15.489,-0.254,0.857,0.090
15.499,-0.244,0.865,0.082
15.509,-0.240,0.877,0.074
15.519,-0.232,0.887,0.074
15.529,-0.234,0.898,0.064
15.539,-0.227,0.914,0.057
15.549,-0.219,0.904,0.051
15.558,-0.207,0.900,0.041
15.568,-0.201,0.896,0.033
15.578,-0.191,0.898,0.027
15.588,-0.191,0.906,0.020
15.598,-0.193,0.922,0.010
15.608,-0.199,0.934,0.006
15.618,-0.207,0.949,0.000
15.628,-0.209,0.963,-0.004
15.638,-0.203,0.967,-0.008
15.648,-0.203,0.965,-0.008
15.658,-0.199,0.961,-0.018
15.668,-0.195,0.945,-0.020
15.677,-0.197,0.926,-0.033
15.687,-0.205,0.918,-0.041
15.697,-0.207,0.904,-0.049
15.707,-0.205,0.898,-0.055
15.717,-0.203,0.914,-0.062
15.727,-0.211,0.922,-0.074
15.737,-0.215,0.922,-0.082
15.747,-0.219,0.928,-0.084
15.757,-0.223,0.922,-0.090
15.767,-0.223,0.920,-0.098
15.777,-0.217,0.924,-0.100
15.787,-0.211,0.916,-0.104
15.797,-0.203,0.914,-0.105
15.806,-0.188,0.922,-0.107
15.816,-0.176,0.928,-0.115
15.826,-0.166,0.930,-0.115
15.836,-0.170,0.928,-0.121
15.846,-0.182,0.930,-0.135
15.856,-0.193,0.928,-0.145
15.866,-0.203,0.934,-0.152
15.876,-0.207,0.936,-0.160
15.886,-0.205,0.943,-0.162
15.896,-0.203,0.951,-0.158
15.906,-0.199,0.936,-0.152
15.916,-0.201,0.920,-0.164
15.926,-0.199,0.908,-0.174
15.935,-0.191,0.902,-0.184
15.945,-0.191,0.895,-0.189
15.955,-0.193,0.889,-0.199
15.965,-0.195,0.895,-0.211
15.975,-0.195,0.914,-0.223
15.985,-0.193,0.934,-0.232
15.995,-0.189,0.945,-0.244
16.005,-0.180,0.943,-0.252
16.015,-0.176,0.934,-0.260
16.025,-0.174,0.922,-0.268
16.035,-0.174,0.916,-0.273
16.045,-0.184,0.912,-0.279
16.054,-0.193,0.910,-0.281
16.064,-0.199,0.918,-0.283
16.074,-0.207,0.920,-0.279
16.084,-0.211,0.918,-0.271
16.094,-0.219,0.904,-0.271
16.104,-0.225,0.900,-0.271
16.114,-0.230,0.895,-0.264
16.124,-0.242,0.887,-0.260
16.134,-0.254,0.891,-0.262
16.144,-0.262,0.891,-0.256
16.154,-0.270,0.887,-0.256
16.164,-0.279,0.887,-0.252
16.174,-0.283,0.883,-0.252
16.183,-0.285,0.885,-0.250
16.193,-0.293,0.879,-0.244
16.203,-0.297,0.873,-0.238
16.213,-0.303,0.871,-0.238
16.223,-0.314,0.867,-0.238
16.233,-0.326,0.867,-0.236
16.243,-0.338,0.867,-0.227
16.253,-0.354,0.863,-0.225
16.263,-0.357,0.867,-0.221
16.273,-0.361,0.859,-0.221
16.283,-0.365,0.855,-0.219
16.293,-0.369,0.850,-0.215
16.302,-0.377,0.852,-0.203
16.312,-0.385,0.850,-0.199
16.322,-0.387,0.846,-0.191
16.332,-0.391,0.842,-0.186
16.342,-0.395,0.838,-0.180
16.352,-0.404,0.842,-0.176
16.362,-0.410,0.840,-0.172
16.372,-0.418,0.844,-0.168
16.382,-0.424,0.842,-0.166
16.392,-0.422,0.840,-0.164
16.402,-0.428,0.846,-0.164
16.412,-0.436,0.842,-0.162
16.422,-0.441,0.840,-0.154
16.431,-0.453,0.832,-0.150
16.441,-0.463,0.822,-0.146
16.451,-0.465,0.811,-0.143
16.461,-0.463,0.814,-0.135
16.471,-0.465,0.811,-0.131
16.481,-0.467,0.803,-0.125
16.491,-0.469,0.805,-0.121
16.501,-0.469,0.805,-0.123
16.511,-0.473,0.801,-0.117
16.521,-0.475,0.797,-0.117
16.531,-0.480,0.793,-0.115
16.541,-0.479,0.797,-0.115
16.551,-0.480,0.805,-0.107
16.560,-0.480,0.809,-0.113
16.570,-0.488,0.812,-0.105
16.580,-0.486,0.822,-0.105
16.590,-0.486,0.826,-0.098
16.600,-0.480,0.828,-0.100
16.610,-0.473,0.830,-0.100
16.620,-0.467,0.834,-0.094
16.630,-0.461,0.838,-0.096
16.640,-0.461,0.836,-0.090
16.650,-0.459,0.828,-0.088
16.660,-0.467,0.826,-0.090
16.670,-0.479,0.826,-0.088
16.679,-0.484,0.818,-0.086
16.689,-0.480,0.814,-0.084
16.699,-0.479,0.818,-0.084
16.709,-0.480,0.826,-0.082
16.719,-0.471,0.826,-0.076
16.729,-0.475,0.830,-0.078
16.739,-0.475,0.830,-0.076
16.749,-0.480,0.828,-0.080
16.759,-0.494,0.828,-0.084
16.769,-0.498,0.826,-0.086
16.779,-0.502,0.826,-0.082
16.789,-0.504,0.826,-0.076
16.799,-0.488,0.838,-0.074
16.808,-0.457,0.846,-0.059
16.818,-0.422,0.857,-0.057
16.828,-0.430,0.859,-0.047
16.838,-0.441,0.854,-0.059
16.848,-0.434,0.850,-0.057
16.858,-0.426,0.850,-0.061
16.868,-0.432,0.857,-0.057
16.878,-0.412,0.850,-0.059
16.888,-0.369,0.846,-0.064
16.898,-0.350,0.865,-0.057
16.908,-0.348,0.883,-0.053
16.918,-0.340,0.889,-0.049
16.928,-0.326,0.896,-0.045
16.937,-0.314,0.896,-0.031
16.947,-0.334,0.883,-0.027
16.957,-0.324,0.891,-0.027
16.967,-0.303,0.898,-0.008
16.977,-0.275,0.914,-0.002
16.987,-0.258,0.939,0.004
16.997,-0.256,0.939,0.014
17.007,-0.248,0.949,0.010
17.017,-0.242,0.938,0.020
17.027,-0.234,0.906,0.020
17.037,-0.236,0.900,0.006
17.047,-0.244,0.895,0.027
17.056,-0.266,0.877,0.020
17.066,-0.299,0.885,0.021
17.076,-0.314,0.883,0.033
17.086,-0.312,0.883,0.027
17.096,-0.307,0.893,0.025
17.106,-0.312,0.893,0.031
17.116,-0.297,0.898,0.020
17.126,-0.287,0.908,0.025
17.136,-0.289,0.916,0.020
17.146,-0.291,0.912,0.020
17.156,-0.305,0.904,0.010
17.166,-0.301,0.902,0.006
17.176,-0.320,0.910,0.010
17.185,-0.334,0.910,0.016
17.195,-0.334,0.912,0.016
17.205,-0.316,0.889,0.018
17.215,-0.295,0.879,0.012
17.225,-0.309,0.902,0.014
17.235,-0.307,0.914,0.016
17.245,-0.299,0.916,0.021
17.255,-0.295,0.910,0.023
17.265,-0.281,0.906,0.018
17.275,-0.268,0.906,0.025
17.285,-0.273,0.900,0.031
17.295,-0.283,0.893,0.031
17.304,-0.293,0.891,0.035
17.314,-0.307,0.893,0.035
17.324,-0.314,0.879,0.045
17.334,-0.297,0.883,0.051
17.344,-0.277,0.877,0.051
17.354,-0.281,0.896,0.049
17.364,-0.309,0.910,0.064
17.374,-0.305,0.896,0.061
17.384,-0.312,0.904,0.070
17.394,-0.320,0.906,0.080
17.404,-0.314,0.893,0.084
17.414,-0.305,0.898,0.092
17.424,-0.291,0.900,0.088
17.433,-0.287,0.895,0.102
17.443,-0.299,0.895,0.100
17.453,-0.316,0.898,0.096
17.463,-0.312,0.893,0.100
17.473,-0.311,0.893,0.107
17.483,-0.328,0.900,0.109
17.493,-0.330,0.902,0.115
17.503,-0.307,0.896,0.121
17.513,-0.312,0.900,0.121
17.523,-0.328,0.887,0.131
17.533,-0.312,0.871,0.129
17.543,-0.295,0.867,0.125
17.553,-0.314,0.877,0.125
17.562,-0.330,0.879,0.125
17.572,-0.320,0.873,0.121
17.582,-0.324,0.881,0.117
17.592,-0.320,0.895,0.125
17.602,-0.314,0.902,0.117
17.612,-0.297,0.906,0.117
17.622,-0.297,0.910,0.119
17.632,-0.287,0.910,0.111
17.642,-0.287,0.922,0.119
17.652,-0.285,0.896,0.117
17.662,-0.289,0.898,0.105
17.672,-0.297,0.887,0.105
17.681,-0.311,0.879,0.096
17.691,-0.309,0.885,0.094
17.701,-0.311,0.889,0.096
17.711,-0.309,0.893,0.088
17.721,-0.307,0.904,0.086
17.731,-0.303,0.912,0.084
17.741,-0.301,0.902,0.082
17.751,-0.301,0.902,0.078
17.761,-0.301,0.912,0.076
17.771,-0.305,0.898,0.076
17.781,-0.314,0.896,0.064
17.791,-0.320,0.906,0.062
17.801,-0.324,0.904,0.066
17.810,-0.314,0.902,0.064
17.820,-0.311,0.912,0.072
17.830,-0.316,0.916,0.078
17.840,-0.303,0.912,0.080
17.850,-0.295,0.898,0.086
17.860,-0.305,0.891,0.080
17.870,-0.309,0.887,0.084
17.880,-0.318,0.891,0.084
17.890,-0.330,0.895,0.074
17.900,-0.340,0.889,0.078
17.910,-0.342,0.902,0.080
17.920,-0.348,0.912,0.092
17.929,-0.350,0.906,0.098
17.939,-0.352,0.893,0.098
17.949,-0.342,0.877,0.096
17.959,-0.338,0.871,0.098
17.969,-0.328,0.867,0.100
17.979,-0.328,0.887,0.100
17.989,-0.322,0.898,0.100
17.999,-0.324,0.900,0.096
18.009,-0.330,0.902,0.094
18.019,-0.340,0.898,0.096
18.029,-0.348,0.898,0.102
18.039,-0.348,0.891,0.105
18.049,-0.352,0.883,0.104
18.058,-0.352,0.879,0.105
18.068,-0.354,0.877,0.107
18.078,-0.361,0.879,0.102
18.088,-0.365,0.873,0.100
18.098,-0.367,0.869,0.090
18.108,-0.371,0.873,0.092
18.118,-0.377,0.881,0.098
18.128,-0.379,0.885,0.096
18.138,-0.385,0.881,0.098
18.148,-0.391,0.877,0.100
18.158,-0.393,0.867,0.096
18.168,-0.395,0.857,0.092
18.178,-0.402,0.857,0.086
18.187,-0.402,0.854,0.086
18.197,-0.400,0.863,0.084
18.207,-0.408,0.865,0.084
18.217,-0.408,0.857,0.084
18.227,-0.416,0.852,0.082
18.237,-0.424,0.850,0.078
18.247,-0.426,0.838,0.076
18.257,-0.430,0.844,0.072
18.267,-0.434,0.840,0.072
18.277,-0.430,0.840,0.064
18.287,-0.430,0.850,0.061
18.297,-0.432,0.859,0.057
18.306,-0.422,0.865,0.055
18.316,-0.422,0.877,0.059
18.326,-0.422,0.881,0.062
18.336,-0.418,0.881,0.066
18.346,-0.418,0.877,0.066
18.356,-0.420,0.873,0.074
18.366,-0.422,0.873,0.072
18.376,-0.434,0.869,0.080
18.386,-0.438,0.857,0.082
18.396,-0.445,0.848,0.076
18.406,-0.453,0.852,0.080
18.416,-0.459,0.848,0.086
18.426,-0.463,0.846,0.084
18.435,-0.459,0.848,0.086
18.445,-0.451,0.859,0.090
18.455,-0.449,0.865,0.094
18.465,-0.455,0.859,0.098
18.475,-0.447,0.848,0.100
18.485,-0.451,0.842,0.105
18.495,-0.461,0.832,0.105
18.505,-0.471,0.818,0.109
18.515,-0.475,0.820,0.109
18.525,-0.473,0.822,0.109
18.535,-0.473,0.828,0.109
18.545,-0.471,0.840,0.113
18.555,-0.475,0.842,0.111
18.564,-0.475,0.840,0.107
18.574,-0.477,0.830,0.109
18.584,-0.488,0.820,0.107
18.594,-0.492,0.811,0.113
18.604,-0.496,0.805,0.115
18.614,-0.504,0.803,0.117
18.624,-0.500,0.801,0.117
18.634,-0.498,0.814,0.121
18.644,-0.508,0.820,0.117
18.654,-0.504,0.814,0.111
18.664,-0.504,0.807,0.109
18.674,-0.510,0.805,0.104
18.683,-0.520,0.814,0.098
18.693,-0.512,0.814,0.096
18.703,-0.533,0.805,0.096
18.713,-0.541,0.801,0.086
18.723,-0.543,0.803,0.088
18.733,-0.547,0.803,0.088
18.743,-0.547,0.801,0.082
18.753,-0.543,0.803,0.086
18.763,-0.539,0.807,0.086
18.773,-0.541,0.807,0.086
18.783,-0.539,0.811,0.086
18.793,-0.531,0.820,0.096
18.803,-0.529,0.814,0.098
18.812,-0.531,0.807,0.096
18.822,-0.537,0.797,0.098
18.832,-0.549,0.791,0.102
18.842,-0.557,0.789,0.100
18.852,-0.561,0.789,0.098
18.862,-0.562,0.781,0.100
18.872,-0.559,0.785,0.100
18.882,-0.555,0.791,0.102
18.892,-0.543,0.797,0.100
18.902,-0.539,0.799,0.102
18.912,-0.535,0.809,0.105
18.922,-0.525,0.811,0.109
18.931,-0.533,0.801,0.105
18.941,-0.535,0.801,0.105
18.951,-0.543,0.795,0.113
18.961,-0.539,0.787,0.117
18.971,-0.539,0.789,0.119
18.981,-0.537,0.799,0.121
18.991,-0.543,0.805,0.129
19.001,-0.539,0.797,0.127
19.011,-0.539,0.787,0.125
19.021,-0.545,0.777,0.127
19.031,-0.557,0.770,0.127
19.041,-0.559,0.768,0.123
19.051,-0.562,0.775,0.125
19.060,-0.562,0.777,0.125
19.070,-0.555,0.787,0.123
19.080,-0.549,0.795,0.123
19.090,-0.543,0.799,0.121
19.100,-0.541,0.797,0.119
19.110,-0.543,0.797,0.119
19.120,-0.541,0.787,0.117
19.130,-0.547,0.789,0.113
19.140,-0.547,0.791,0.119
19.150,-0.551,0.793,0.117
19.160,-0.545,0.795,0.121
19.170,-0.545,0.803,0.119
19.180,-0.545,0.807,0.117
19.189,-0.543,0.805,0.117
19.199,-0.535,0.803,0.115
19.209,-0.543,0.793,0.115
19.219,-0.545,0.789,0.117
19.229,-0.545,0.791,0.115
19.239,-0.541,0.783,0.117
19.249,-0.541,0.791,0.113
19.259,-0.543,0.799,0.113
19.269,-0.539,0.801,0.117
19.279,-0.541,0.805,0.111
19.289,-0.545,0.801,0.113
19.299,-0.545,0.805,0.115
19.308,-0.547,0.797,0.113
19.318,-0.543,0.787,0.113
19.328,-0.547,0.787,0.111
19.338,-0.547,0.781,0.111
19.348,-0.547,0.785,0.109
19.358,-0.541,0.791,0.109
19.368,-0.535,0.797,0.109
19.378,-0.539,0.799,0.109
19.388,-0.529,0.809,0.111
19.398,-0.529,0.799,0.105
19.408,-0.531,0.793,0.107
19.418,-0.533,0.795,0.107
19.428,-0.533,0.797,0.105
19.437,-0.531,0.793,0.102
19.447,-0.531,0.785,0.096
19.457,-0.535,0.787,0.092
19.467,-0.533,0.789,0.086
19.477,-0.537,0.795,0.088
19.487,-0.543,0.807,0.090
19.497,-0.537,0.807,0.086
19.507,-0.518,0.811,0.090
19.517,-0.549,0.814,0.090
19.527,-0.553,0.812,0.090
19.537,-0.525,0.826,0.080
19.547,-0.506,0.840,0.086
19.556,-0.490,0.863,0.086
19.566,-0.461,0.873,0.090
19.576,-0.418,0.879,0.096
19.586,-0.408,0.887,0.107
19.596,-0.420,0.889,0.098
19.606,-0.406,0.875,0.100
19.616,-0.404,0.867,0.104
19.626,-0.402,0.883,0.102
19.636,-0.381,0.900,0.111
19.646,-0.383,0.895,0.115
19.656,-0.363,0.891,0.111
19.666,-0.354,0.879,0.115
19.676,-0.367,0.875,0.113
19.685,-0.354,0.867,0.107
19.695,-0.350,0.869,0.109
19.705,-0.357,0.873,0.119
19.715,-0.369,0.877,0.123
19.725,-0.379,0.854,0.125
19.735,-0.389,0.867,0.113
19.745,-0.393,0.861,0.113
19.755,-0.402,0.848,0.104
19.765,-0.408,0.844,0.100
19.775,-0.422,0.857,0.094
19.785,-0.434,0.871,0.094
19.795,-0.412,0.861,0.094
19.805,-0.414,0.846,0.084
19.814,-0.424,0.838,0.078
19.824,-0.441,0.838,0.072
19.834,-0.469,0.834,0.066
19.844,-0.498,0.830,0.064
19.854,-0.504,0.834,0.062
19.864,-0.504,0.836,0.061
19.874,-0.504,0.848,0.057
19.884,-0.506,0.850,0.051
19.894,-0.492,0.857,0.055
19.904,-0.479,0.855,0.059
19.914,-0.461,0.857,0.059
19.924,-0.451,0.850,0.070
19.933,-0.434,0.846,0.068
19.943,-0.418,0.861,0.076
19.953,-0.406,0.861,0.084
19.963,-0.408,0.857,0.084
19.973,-0.400,0.850,0.086
19.983,-0.393,0.840,0.092
19.993,-0.418,0.848,0.096
20.003,-0.438,0.852,0.100
20.013,-0.430,0.848,0.098
20.023,-0.445,0.836,0.105
20.033,-0.447,0.836,0.100
20.043,-0.453,0.848,0.107
20.053,-0.451,0.846,0.105
20.062,-0.443,0.846,0.104
20.072,-0.451,0.846,0.115
20.082,-0.467,0.844,0.109
20.092,-0.471,0.842,0.121
20.102,-0.471,0.838,0.123
20.112,-0.455,0.828,0.121
20.122,-0.457,0.836,0.123
20.132,-0.455,0.836,0.121
20.142,-0.459,0.834,0.119
20.152,-0.465,0.830,0.121
20.162,-0.467,0.846,0.119
20.172,-0.467,0.842,0.121
20.182,-0.461,0.844,0.117
20.191,-0.453,0.855,0.121
20.201,-0.445,0.852,0.123
20.211,-0.443,0.838,0.119
20.221,-0.438,0.840,0.123
20.231,-0.439,0.846,0.123
20.241,-0.439,0.848,0.125
20.251,-0.432,0.848,0.123
20.261,-0.436,0.854,0.125
20.271,-0.430,0.855,0.125
20.281,-0.436,0.867,0.123
20.291,-0.439,0.861,0.127
20.301,-0.438,0.852,0.125
20.310,-0.436,0.852,0.127
20.320,-0.441,0.846,0.121
20.330,-0.441,0.840,0.123
20.340,-0.443,0.840,0.104
20.350,-0.434,0.852,0.105
20.360,-0.420,0.863,0.105
20.370,-0.412,0.873,0.111
20.380,-0.404,0.865,0.105
20.390,-0.414,0.869,0.104
20.400,-0.428,0.861,0.117
20.410,-0.428,0.854,0.111
20.420,-0.430,0.848,0.111
20.430,-0.422,0.850,0.117
20.439,-0.414,0.850,0.127
20.449,-0.416,0.859,0.129
20.459,-0.412,0.859,0.133
20.469,-0.416,0.857,0.133
20.479,-0.426,0.857,0.139
20.489,-0.424,0.850,0.137
20.499,-0.424,0.848,0.139
20.509,-0.426,0.855,0.146
20.519,-0.424,0.842,0.152
20.529,-0.424,0.840,0.152
20.539,-0.436,0.840,0.156
20.549,-0.438,0.828,0.154
20.558,-0.447,0.824,0.145
20.568,-0.453,0.834,0.148
20.578,-0.457,0.840,0.141
20.588,-0.441,0.846,0.139
20.598,-0.434,0.854,0.137
20.608,-0.426,0.859,0.137
20.618,-0.428,0.850,0.131
20.628,-0.432,0.857,0.127
20.638,-0.443,0.846,0.131
20.648,-0.457,0.832,0.121
20.658,-0.461,0.834,0.119
20.668,-0.453,0.832,0.113
20.678,-0.447,0.834,0.102
20.687,-0.449,0.854,0.098
20.697,-0.445,0.873,0.100
20.707,-0.430,0.871,0.096
20.717,-0.422,0.869,0.090
20.727,-0.414,0.865,0.094
20.737,-0.420,0.867,0.090
20.747,-0.414,0.869,0.076
20.757,-0.414,0.867,0.080
20.767,-0.410,0.871,0.064
20.777,-0.414,0.877,0.074
20.787,-0.414,0.881,0.078
20.797,-0.408,0.877,0.078
20.807,-0.412,0.869,0.078
20.816,-0.414,0.871,0.080
20.826,-0.414,0.869,0.084
20.836,-0.408,0.881,0.086
20.846,-0.398,0.896,0.094
20.856,-0.389,0.898,0.094
20.866,-0.383,0.889,0.092
20.876,-0.391,0.883,0.092
20.886,-0.398,0.871,0.088
20.896,-0.404,0.863,0.090
20.906,-0.420,0.850,0.092
20.916,-0.443,0.861,0.094
20.926,-0.451,0.855,0.102
20.935,-0.461,0.848,0.100
20.945,-0.469,0.852,0.098
20.955,-0.477,0.834,0.098
20.965,-0.477,0.811,0.094
20.975,-0.480,0.799,0.096
20.985,-0.479,0.793,0.102
20.995,-0.494,0.783,0.107
21.005,-0.545,0.785,0.111
21.015,-0.572,0.795,0.117
21.025,-0.596,0.793,0.125
21.035,-0.617,0.791,0.131
21.045,-0.627,0.770,0.129
21.055,-0.615,0.766,0.125
21.064,-0.609,0.773,0.127
21.074,-0.602,0.768,0.127
21.084,-0.574,0.779,0.131
21.094,-0.553,0.787,0.133
21.104,-0.541,0.785,0.131
21.114,-0.525,0.783,0.133
21.124,-0.521,0.785,0.131
21.134,-0.521,0.791,0.137
21.144,-0.514,0.787,0.143
21.154,-0.514,0.789,0.145
21.164,-0.516,0.791,0.148
21.174,-0.521,0.787,0.156
21.184,-0.518,0.797,0.160
21.193,-0.520,0.803,0.166
21.203,-0.520,0.799,0.170
21.213,-0.512,0.797,0.170
21.223,-0.514,0.803,0.168
21.233,-0.516,0.803,0.174
21.243,-0.510,0.801,0.170
21.253,-0.504,0.807,0.166
21.263,-0.506,0.816,0.174
21.273,-0.506,0.824,0.174
21.283,-0.500,0.824,0.172
21.293,-0.500,0.826,0.170
21.303,-0.506,0.820,0.174
21.312,-0.508,0.807,0.172
21.322,-0.514,0.801,0.176
21.332,-0.523,0.807,0.178
21.342,-0.529,0.799,0.174
21.352,-0.520,0.791,0.172
21.362,-0.521,0.801,0.180
21.372,-0.523,0.803,0.180
21.382,-0.529,0.801,0.182
21.392,-0.527,0.807,0.182
21.402,-0.527,0.812,0.188
21.412,-0.535,0.809,0.188
21.422,-0.533,0.807,0.189
21.432,-0.527,0.805,0.195
21.441,-0.533,0.799,0.197
21.451,-0.545,0.783,0.193
21.461,-0.545,0.779,0.197
21.471,-0.541,0.775,0.199
21.481,-0.551,0.775,0.203
21.491,-0.559,0.775,0.203
21.501,-0.549,0.783,0.205
21.511,-0.549,0.777,0.211
21.521,-0.547,0.756,0.205
21.531,-0.549,0.746,0.205
21.541,-0.547,0.742,0.203
21.551,-0.545,0.750,0.205
21.560,-0.543,0.756,0.205
21.570,-0.547,0.768,0.207
21.580,-0.543,0.775,0.205
21.590,-0.535,0.781,0.199
21.600,-0.533,0.789,0.195
21.610,-0.531,0.791,0.189
21.620,-0.537,0.789,0.186
21.630,-0.537,0.789,0.180
21.640,-0.537,0.791,0.180
21.650,-0.535,0.795,0.178
21.660,-0.539,0.795,0.178
21.670,-0.541,0.795,0.172
21.680,-0.541,0.795,0.172
21.689,-0.541,0.795,0.178
21.699,-0.543,0.795,0.174
21.709,-0.539,0.797,0.174
21.719,-0.533,0.799,0.172
21.729,-0.527,0.799,0.172
21.739,-0.527,0.797,0.170
21.749,-0.523,0.793,0.170
21.759,-0.520,0.801,0.164
21.769,-0.518,0.803,0.170
21.779,-0.521,0.805,0.168
21.789,-0.521,0.797,0.168
21.799,-0.527,0.803,0.166
21.809,-0.533,0.797,0.168
21.818,-0.539,0.797,0.164
21.828,-0.533,0.797,0.166
21.838,-0.537,0.801,0.168
21.848,-0.537,0.799,0.170
21.858,-0.531,0.799,0.166
21.868,-0.533,0.795,0.170
21.878,-0.529,0.793,0.168
21.888,-0.535,0.785,0.168
21.898,-0.543,0.793,0.170
21.908,-0.541,0.795,0.172
21.918,-0.551,0.781,0.174
21.928,-0.551,0.779,0.172
21.937,-0.551,0.783,0.176
21.947,-0.543,0.781,0.178
21.957,-0.545,0.783,0.174
21.967,-0.543,0.789,0.174
21.977,-0.543,0.789,0.176
21.987,-0.543,0.797,0.174
21.997,-0.543,0.799,0.176
22.007,-0.545,0.801,0.178
22.017,-0.545,0.799,0.176
22.027,-0.539,0.793,0.178
22.037,-0.535,0.783,0.178
22.047,-0.533,0.785,0.182
22.057,-0.543,0.787,0.180
22.066,-0.547,0.789,0.182
22.076,-0.537,0.793,0.178
22.086,-0.543,0.791,0.176
22.096,-0.539,0.787,0.176
22.106,-0.537,0.789,0.174
22.116,-0.545,0.793,0.178
22.126,-0.549,0.787,0.174
22.136,-0.545,0.785,0.174
22.146,-0.549,0.789,0.174
22.156,-0.549,0.785,0.176
22.166,-0.551,0.781,0.174
22.176,-0.551,0.777,0.178
22.185,-0.543,0.777,0.176
22.195,-0.545,0.785,0.178
22.205,-0.545,0.785,0.176
22.215,-0.541,0.791,0.176
22.225,-0.539,0.793,0.170
22.235,-0.535,0.791,0.174
22.245,-0.537,0.795,0.176
22.255,-0.543,0.789,0.174
22.265,-0.541,0.787,0.176
22.275,-0.545,0.789,0.174
22.285,-0.545,0.789,0.174
22.295,-0.547,0.789,0.172
22.305,-0.541,0.783,0.172
22.314,-0.547,0.787,0.174
22.324,-0.545,0.797,0.176
22.334,-0.533,0.807,0.176
22.344,-0.535,0.803,0.178
22.354,-0.541,0.789,0.172
22.364,-0.551,0.781,0.180
22.374,-0.553,0.775,0.178
22.384,-0.551,0.777,0.178
22.394,-0.551,0.781,0.184
22.404,-0.551,0.779,0.180
22.414,-0.555,0.785,0.188
22.424,-0.547,0.785,0.188
22.434,-0.543,0.775,0.186
22.443,-0.539,0.771,0.193
22.453,-0.537,0.773,0.191
22.463,-0.539,0.771,0.197
22.473,-0.537,0.777,0.193
22.483,-0.543,0.785,0.195
22.493,-0.549,0.779,0.193
22.503,-0.551,0.779,0.193
22.513,-0.557,0.781,0.191
22.523,-0.564,0.775,0.195
22.533,-0.570,0.775,0.193
22.543,-0.568,0.770,0.191
22.553,-0.566,0.770,0.197
22.562,-0.561,0.773,0.193
22.572,-0.555,0.779,0.195
22.582,-0.543,0.779,0.191
22.592,-0.533,0.785,0.195
22.602,-0.529,0.799,0.193
22.612,-0.521,0.793,0.201
22.622,-0.523,0.799,0.197
22.632,-0.527,0.797,0.197
22.642,-0.535,0.795,0.195
22.652,-0.541,0.787,0.197
22.662,-0.539,0.781,0.189
22.672,-0.533,0.783,0.189
22.682,-0.535,0.781,0.191
22.691,-0.537,0.785,0.189
22.701,-0.533,0.795,0.184
22.711,-0.535,0.799,0.184
22.721,-0.533,0.795,0.186
22.731,-0.535,0.793,0.180
22.741,-0.533,0.797,0.180
22.751,-0.529,0.795,0.174
22.761,-0.527,0.791,0.166
22.771,-0.525,0.799,0.168
22.781,-0.527,0.799,0.168
22.791,-0.529,0.809,0.162
22.801,-0.529,0.803,0.160
22.811,-0.537,0.795,0.160
22.820,-0.539,0.797,0.162
22.830,-0.537,0.797,0.162
22.840,-0.537,0.793,0.162
22.850,-0.533,0.795,0.164
22.860,-0.533,0.803,0.168
22.870,-0.533,0.799,0.166
22.880,-0.537,0.795,0.162
22.890,-0.537,0.797,0.164
22.900,-0.541,0.795,0.164
22.910,-0.543,0.789,0.170
22.920,-0.541,0.789,0.164
22.930,-0.539,0.791,0.162
22.939,-0.535,0.787,0.162
22.949,-0.531,0.795,0.164
22.959,-0.531,0.797,0.168
22.969,-0.537,0.797,0.164
22.979,-0.535,0.803,0.170
22.989,-0.543,0.803,0.172
22.999,-0.541,0.797,0.170
23.009,-0.543,0.787,0.168
23.019,-0.543,0.791,0.172
23.029,-0.547,0.791,0.172
23.039,-0.551,0.793,0.172
23.049,-0.549,0.793,0.170
23.059,-0.547,0.791,0.176
23.068,-0.543,0.789,0.172
23.078,-0.539,0.785,0.176
23.088,-0.541,0.785,0.178
23.098,-0.539,0.783,0.184
23.108,-0.539,0.783,0.184
23.118,-0.539,0.785,0.180
23.128,-0.539,0.789,0.184
23.138,-0.539,0.787,0.182
23.148,-0.543,0.787,0.184
23.158,-0.543,0.785,0.178
23.168,-0.545,0.783,0.182
23.178,-0.547,0.783,0.180
23.187,-0.543,0.787,0.180
23.197,-0.543,0.791,0.180
23.207,-0.545,0.793,0.180
23.217,-0.543,0.797,0.180
23.227,-0.537,0.791,0.184
23.237,-0.537,0.789,0.182
23.247,-0.537,0.791,0.182
23.257,-0.535,0.787,0.186
23.267,-0.537,0.793,0.184
23.277,-0.537,0.789,0.182
23.287,-0.539,0.795,0.184
23.297,-0.539,0.787,0.188
23.307,-0.541,0.787,0.182
23.316,-0.539,0.789,0.184
23.326,-0.535,0.793,0.184
23.336,-0.531,0.791,0.186
23.346,-0.537,0.787,0.186
23.356,-0.543,0.783,0.189
23.366,-0.547,0.779,0.193
23.376,-0.549,0.770,0.195
23.386,-0.553,0.771,0.195
23.396,-0.553,0.771,0.195
23.406,-0.549,0.773,0.197
23.416,-0.545,0.775,0.193
23.426,-0.543,0.781,0.195
23.436,-0.539,0.785,0.197
23.445,-0.541,0.785,0.193
23.455,-0.545,0.791,0.193
23.465,-0.551,0.785,0.193
23.475,-0.553,0.785,0.191
23.485,-0.557,0.783,0.188
23.495,-0.557,0.781,0.188
23.505,-0.551,0.777,0.186
23.515,-0.553,0.785,0.184
23.525,-0.551,0.793,0.180
23.535,-0.541,0.795,0.182
23.545,-0.541,0.797,0.176
23.555,-0.543,0.803,0.178
23.564,-0.541,0.793,0.176
23.574,-0.535,0.789,0.174
23.584,-0.539,0.787,0.174
23.594,-0.541,0.787,0.170
23.604,-0.543,0.789,0.170
23.614,-0.543,0.787,0.170
23.624,-0.545,0.787,0.170
23.634,-0.541,0.789,0.168
23.644,-0.541,0.789,0.170
23.654,-0.543,0.789,0.168
23.664,-0.537,0.785,0.168
23.674,-0.541,0.779,0.170
23.684,-0.545,0.781,0.170
23.693,-0.545,0.779,0.170
23.703,-0.549,0.783,0.170
23.713,-0.549,0.783,0.174
23.723,-0.553,0.789,0.174
23.733,-0.553,0.787,0.172
23.743,-0.553,0.785,0.174
23.753,-0.559,0.781,0.174
23.763,-0.553,0.781,0.172
23.773,-0.555,0.791,0.174
23.783,-0.561,0.789,0.178
23.793,-0.559,0.785,0.176
23.803,-0.559,0.783,0.180
23.812,-0.562,0.777,0.178
23.822,-0.562,0.773,0.176
23.832,-0.559,0.773,0.176
23.842,-0.562,0.775,0.180
23.852,-0.557,0.783,0.176
23.862,-0.555,0.785,0.180
23.872,-0.549,0.787,0.178
23.882,-0.545,0.787,0.186
23.892,-0.543,0.785,0.184
23.902,-0.541,0.787,0.180
23.912,-0.543,0.781,0.178
23.922,-0.543,0.783,0.174
23.932,-0.551,0.779,0.176
23.941,-0.551,0.783,0.176
23.951,-0.551,0.791,0.178
23.961,-0.551,0.793,0.178
23.971,-0.547,0.791,0.174
23.981,-0.539,0.791,0.174
23.991,-0.541,0.789,0.176
24.001,-0.543,0.787,0.174
24.011,-0.543,0.785,0.176
24.021,-0.541,0.783,0.176
24.031,-0.541,0.789,0.182
24.041,-0.541,0.791,0.184
24.051,-0.541,0.791,0.186
24.061,-0.547,0.789,0.189
24.070,-0.545,0.783,0.188
24.080,-0.551,0.777,0.191
24.090,-0.549,0.773,0.193
24.100,-0.549,0.779,0.191
24.110,-0.549,0.779,0.201
24.120,-0.549,0.777,0.193
24.130,-0.551,0.775,0.199
24.140,-0.557,0.779,0.203
24.150,-0.557,0.775,0.203
24.160,-0.555,0.768,0.197
24.170,-0.555,0.770,0.197
24.180,-0.555,0.773,0.199
24.189,-0.559,0.777,0.201
24.199,-0.562,0.777,0.199
24.209,-0.566,0.777,0.197
24.219,-0.568,0.773,0.193
24.229,-0.564,0.771,0.193
24.239,-0.562,0.771,0.195
24.249,-0.561,0.773,0.191
24.259,-0.553,0.775,0.195
24.269,-0.553,0.775,0.195
24.279,-0.547,0.779,0.191
24.289,-0.551,0.781,0.193
24.299,-0.553,0.785,0.188
24.309,-0.553,0.781,0.188
24.318,-0.555,0.779,0.186
24.328,-0.553,0.781,0.184
24.338,-0.557,0.781,0.186
24.348,-0.555,0.781,0.182
24.358,-0.545,0.785,0.182
24.368,-0.553,0.791,0.188
24.378,-0.553,0.787,0.191
24.388,-0.549,0.781,0.186
24.398,-0.549,0.775,0.182
24.408,-0.551,0.773,0.186
24.418,-0.551,0.777,0.184
24.428,-0.549,0.779,0.186
24.438,-0.551,0.783,0.182
24.447,-0.551,0.787,0.184
24.457,-0.551,0.787,0.184
24.467,-0.551,0.787,0.182
24.477,-0.553,0.781,0.188
24.487,-0.553,0.773,0.180
24.497,-0.553,0.779,0.184
24.507,-0.551,0.777,0.188
24.517,-0.553,0.781,0.184
24.527,-0.547,0.783,0.188
24.537,-0.551,0.789,0.189
24.547,-0.547,0.787,0.186
24.557,-0.545,0.789,0.184
24.566,-0.547,0.791,0.188
24.576,-0.545,0.781,0.188
24.586,-0.549,0.779,0.186
24.596,-0.553,0.779,0.184
24.606,-0.553,0.779,0.184
24.616,-0.551,0.785,0.184
24.626,-0.553,0.785,0.184
24.636,-0.549,0.787,0.182
24.646,-0.549,0.791,0.186
24.656,-0.545,0.791,0.184
24.666,-0.545,0.787,0.182
24.676,-0.541,0.783,0.182
24.686,-0.543,0.783,0.180
24.695,-0.543,0.785,0.184
24.705,-0.545,0.789,0.182
24.715,-0.543,0.781,0.184
24.725,-0.547,0.787,0.182
24.735,-0.553,0.795,0.186
24.745,-0.549,0.793,0.184
24.755,-0.549,0.781,0.180
24.765,-0.555,0.773,0.178
24.775,-0.559,0.775,0.182
24.785,-0.562,0.775,0.180
24.795,-0.559,0.779,0.184
24.805,-0.555,0.775,0.182
24.814,-0.551,0.779,0.180
24.824,-0.553,0.777,0.186
24.834,-0.545,0.779,0.189
24.844,-0.547,0.777,0.186
24.854,-0.549,0.781,0.188
24.864,-0.545,0.779,0.189
24.874,-0.547,0.785,0.188
24.884,-0.555,0.783,0.188
24.894,-0.553,0.783,0.186
24.904,-0.555,0.783,0.191
24.914,-0.561,0.779,0.191
24.924,-0.562,0.777,0.186
24.934,-0.564,0.775,0.188
24.943,-0.561,0.777,0.191
24.953,-0.555,0.777,0.188
24.963,-0.555,0.783,0.193
24.973,-0.549,0.783,0.189
24.983,-0.539,0.785,0.195
24.993,-0.539,0.781,0.191
25.003,-0.539,0.781,0.195
25.013,-0.541,0.779,0.191
25.023,-0.545,0.783,0.193
25.033,-0.549,0.785,0.193
25.043,-0.553,0.783,0.189
25.053,-0.553,0.781,0.188
25.063,-0.557,0.779,0.186
25.072,-0.551,0.781,0.189
25.082,-0.549,0.783,0.184
25.092,-0.551,0.779,0.188
25.102,-0.547,0.777,0.188
25.112,-0.547,0.783,0.189
25.122,-0.547,0.779,0.189
25.132,-0.543,0.783,0.191
25.142,-0.543,0.783,0.193
25.152,-0.547,0.781,0.189
25.162,-0.545,0.785,0.186
25.172,-0.549,0.783,0.186
25.182,-0.549,0.785,0.189
25.191,-0.549,0.783,0.186
25.201,-0.551,0.787,0.188
25.211,-0.553,0.783,0.188
25.221,-0.553,0.783,0.188
25.231,-0.553,0.777,0.191
25.241,-0.555,0.777,0.191
25.251,-0.553,0.775,0.193
25.261,-0.547,0.773,0.191
25.271,-0.547,0.783,0.193
25.281,-0.541,0.783,0.191
25.291,-0.539,0.791,0.193
25.301,-0.535,0.791,0.189
25.311,-0.529,0.787,0.189
25.320,-0.523,0.795,0.188
25.330,-0.527,0.797,0.191
25.340,-0.531,0.789,0.191
25.350,-0.533,0.791,0.193
25.360,-0.543,0.795,0.197
25.370,-0.539,0.793,0.199
25.380,-0.533,0.787,0.201
25.390,-0.531,0.785,0.203
25.400,-0.527,0.781,0.205
25.410,-0.527,0.777,0.201
25.420,-0.529,0.771,0.199
25.430,-0.525,0.766,0.199
25.439,-0.531,0.764,0.201
25.449,-0.531,0.768,0.201
25.459,-0.531,0.771,0.201
25.469,-0.529,0.770,0.201
25.479,-0.535,0.768,0.199
25.489,-0.533,0.760,0.193
25.499,-0.529,0.760,0.195
25.509,-0.525,0.760,0.189
25.519,-0.520,0.766,0.182
25.529,-0.514,0.758,0.184
25.539,-0.520,0.764,0.180
25.549,-0.531,0.777,0.178
25.559,-0.535,0.789,0.174
25.568,-0.535,0.795,0.164
25.578,-0.523,0.795,0.156
25.588,-0.516,0.797,0.141
25.598,-0.512,0.799,0.133
25.608,-0.502,0.799,0.127
25.618,-0.498,0.801,0.117
25.628,-0.486,0.811,0.115
25.638,-0.484,0.824,0.105
25.648,-0.484,0.828,0.098
25.658,-0.484,0.842,0.092
25.668,-0.459,0.850,0.082
25.678,-0.459,0.846,0.082
25.688,-0.451,0.844,0.066
25.697,-0.449,0.842,0.062
25.707,-0.430,0.844,0.051
25.717,-0.418,0.846,0.045
25.727,-0.430,0.854,0.033
25.737,-0.424,0.861,0.025
25.747,-0.422,0.859,0.016
25.757,-0.418,0.854,0.008
25.767,-0.416,0.863,0.008
25.777,-0.408,0.869,-0.004
25.787,-0.391,0.869,-0.016
25.797,-0.385,0.877,-0.021
25.807,-0.385,0.881,-0.035
25.816,-0.377,0.885,-0.043
25.826,-0.367,0.883,-0.051
25.836,-0.357,0.881,-0.061
25.846,-0.357,0.873,-0.066
25.856,-0.369,0.871,-0.070
25.866,-0.361,0.885,-0.072
25.876,-0.357,0.891,-0.078
25.886,-0.355,0.891,-0.086
25.896,-0.350,0.895,-0.092
25.906,-0.340,0.900,-0.098
25.916,-0.320,0.904,-0.104
25.926,-0.316,0.898,-0.105
25.936,-0.322,0.891,-0.113
25.945,-0.316,0.893,-0.115
25.955,-0.316,0.893,-0.113
25.965,-0.309,0.887,-0.123
25.975,-0.303,0.891,-0.129
25.985,-0.297,0.896,-0.133
25.995,-0.293,0.906,-0.135
26.005,-0.289,0.906,-0.139
26.015,-0.293,0.906,-0.145
26.025,-0.268,0.912,-0.152
26.035,-0.266,0.906,-0.150
26.045,-0.275,0.891,-0.158
26.055,-0.275,0.895,-0.166
26.065,-0.268,0.902,-0.162
26.074,-0.279,0.902,-0.160
26.084,-0.287,0.902,-0.168
26.094,-0.273,0.904,-0.174
26.104,-0.289,0.896,-0.168
26.114,-0.299,0.891,-0.184
26.124,-0.297,0.881,-0.186
26.134,-0.301,0.881,-0.182
26.144,-0.299,0.883,-0.186
26.154,-0.270,0.885,-0.189
26.164,-0.271,0.887,-0.182
26.174,-0.297,0.889,-0.189
26.184,-0.293,0.885,-0.191
26.193,-0.297,0.879,-0.189
26.203,-0.303,0.871,-0.201
26.213,-0.303,0.861,-0.205
26.223,-0.311,0.863,-0.207
26.233,-0.314,0.848,-0.203
26.243,-0.311,0.855,-0.207
26.253,-0.312,0.859,-0.211
26.263,-0.311,0.863,-0.209
26.273,-0.299,0.865,-0.211
26.283,-0.299,0.865,-0.217
26.293,-0.295,0.861,-0.217
26.303,-0.295,0.865,-0.217
26.313,-0.297,0.871,-0.219
26.322,-0.287,0.879,-0.221
26.332,-0.291,0.883,-0.219
26.342,-0.293,0.881,-0.219
26.352,-0.301,0.881,-0.221
26.362,-0.301,0.881,-0.221
26.372,-0.293,0.873,-0.223
26.382,-0.281,0.871,-0.230
26.392,-0.271,0.877,-0.223
26.402,-0.260,0.879,-0.225
26.412,-0.254,0.883,-0.221
26.422,-0.254,0.885,-0.219
26.432,-0.256,0.885,-0.221
26.441,-0.260,0.877,-0.225
26.451,-0.264,0.875,-0.232
26.461,-0.264,0.877,-0.232
26.471,-0.258,0.875,-0.238
26.481,-0.248,0.873,-0.242
26.491,-0.230,0.875,-0.240
26.501,-0.219,0.889,-0.238
26.511,-0.203,0.893,-0.234
26.521,-0.195,0.896,-0.238
26.531,-0.195,0.885,-0.238
26.541,-0.201,0.883,-0.244
26.551,-0.199,0.885,-0.246
26.561,-0.189,0.885,-0.246
26.570,-0.186,0.891,-0.250
26.580,-0.174,0.900,-0.248
26.590,-0.162,0.908,-0.246
26.600,-0.160,0.922,-0.246
26.610,-0.158,0.920,-0.244
26.620,-0.152,0.914,-0.252
26.630,-0.141,0.896,-0.256
26.640,-0.139,0.891,-0.262
26.650,-0.133,0.887,-0.260
26.660,-0.123,0.891,-0.266
26.670,-0.107,0.895,-0.268
26.680,-0.107,0.895,-0.268
26.690,-0.111,0.900,-0.270
26.699,-0.113,0.898,-0.277
26.709,-0.113,0.893,-0.275
26.719,-0.105,0.898,-0.275
26.729,-0.098,0.910,-0.270
26.739,-0.088,0.916,-0.264
26.749,-0.086,0.912,-0.258
26.759,-0.090,0.904,-0.258
26.769,-0.084,0.893,-0.258
26.779,-0.074,0.891,-0.258
26.789,-0.076,0.887,-0.252
26.799,-0.062,0.895,-0.252
26.809,-0.045,0.904,-0.240
26.818,-0.039,0.916,-0.242
26.828,-0.035,0.928,-0.238
26.838,-0.049,0.930,-0.236
26.848,-0.070,0.922,-0.232
26.858,-0.088,0.914,-0.234
26.868,-0.092,0.904,-0.229
26.878,-0.107,0.891,-0.229
26.888,-0.109,0.885,-0.225
26.898,-0.117,0.883,-0.205
26.908,-0.121,0.895,-0.211
26.918,-0.125,0.898,-0.209
26.928,-0.119,0.902,-0.213
26.938,-0.115,0.893,-0.223
26.947,-0.109,0.883,-0.223
26.957,-0.104,0.873,-0.230
26.967,-0.105,0.875,-0.234
26.977,-0.100,0.881,-0.221
26.987,-0.090,0.896,-0.211
26.997,-0.088,0.914,-0.201
27.007,-0.086,0.926,-0.193
27.017,-0.086,0.938,-0.188
27.027,-0.086,0.939,-0.184
27.037,-0.092,0.941,-0.184
27.047,-0.090,0.936,-0.182
27.057,-0.092,0.936,-0.180
27.066,-0.094,0.941,-0.174
27.076,-0.090,0.941,-0.168
27.086,-0.082,0.939,-0.160
27.096,-0.078,0.943,-0.154
27.106,-0.070,0.939,-0.152
27.116,-0.061,0.932,-0.146
27.126,-0.051,0.924,-0.141
27.136,-0.049,0.920,-0.137
27.146,-0.043,0.914,-0.127
27.156,-0.035,0.914,-0.121
27.166,-0.033,0.914,-0.113
27.176,-0.033,0.914,-0.113
27.186,-0.031,0.922,-0.113
27.195,-0.025,0.928,-0.104
27.205,-0.023,0.930,-0.098
27.215,-0.021,0.926,-0.092
27.225,-0.020,0.932,-0.092
27.235,-0.021,0.932,-0.084
27.245,-0.031,0.924,-0.074
27.255,-0.031,0.922,-0.074
27.265,-0.037,0.943,-0.070
27.275,-0.033,0.947,-0.068
27.285,-0.035,0.939,-0.072
27.295,-0.039,0.947,-0.066
27.305,-0.047,0.945,-0.057
27.315,-0.051,0.936,-0.059
27.324,-0.047,0.928,-0.053
27.334,-0.049,0.938,-0.047
27.344,-0.053,0.943,-0.045
27.354,-0.049,0.955,-0.041
27.364,-0.045,0.959,-0.035
27.374,-0.043,0.961,-0.033
27.384,-0.035,0.949,-0.025
27.394,-0.029,0.930,-0.023
27.404,-0.033,0.914,-0.020
27.414,-0.029,0.914,-0.012
27.424,-0.025,0.920,-0.010
27.434,-0.033,0.928,-0.002
27.443,-0.031,0.934,0.000
27.453,-0.031,0.934,0.002
27.463,-0.031,0.938,0.006
27.473,-0.029,0.936,0.008
27.483,-0.025,0.930,0.008
27.493,-0.027,0.926,0.000
27.503,-0.031,0.918,0.004
27.513,-0.025,0.920,0.004
27.523,-0.029,0.938,0.006
27.533,-0.033,0.949,0.004
27.543,-0.037,0.953,0.008
27.553,-0.041,0.949,0.004
27.563,-0.039,0.945,-0.002
27.572,-0.035,0.939,0.004
27.582,-0.043,0.934,0.002
27.592,-0.049,0.934,0.006
27.602,-0.051,0.936,0.008
27.612,-0.055,0.938,0.010
27.622,-0.053,0.936,0.010
27.632,-0.057,0.934,0.012
27.642,-0.055,0.930,0.006
27.652,-0.053,0.930,0.008
27.662,-0.047,0.930,0.010
27.672,-0.049,0.934,0.014
27.682,-0.043,0.938,0.012
27.692,-0.041,0.938,0.016
27.701,-0.051,0.938,0.016
27.711,-0.057,0.939,0.016
27.721,-0.053,0.939,0.018
27.731,-0.057,0.936,0.014
27.741,-0.049,0.939,0.016
27.751,-0.053,0.939,0.014
27.761,-0.047,0.943,0.020
27.771,-0.053,0.949,0.020
27.781,-0.049,0.947,0.023
27.791,-0.053,0.941,0.025
27.801,-0.051,0.943,0.021
27.811,-0.053,0.936,0.027
27.820,-0.053,0.941,0.023
27.830,-0.059,0.936,0.029
27.840,-0.059,0.934,0.027
27.850,-0.062,0.939,0.031
27.860,-0.064,0.943,0.035
27.870,-0.064,0.936,0.033
27.880,-0.072,0.941,0.033
27.890,-0.078,0.943,0.033
27.900,-0.084,0.930,0.033
27.910,-0.092,0.922,0.029
27.920,-0.098,0.928,0.031
27.930,-0.096,0.932,0.031
27.940,-0.098,0.938,0.031
27.949,-0.096,0.938,0.033
27.959,-0.096,0.938,0.031
27.969,-0.100,0.932,0.035
27.979,-0.100,0.924,0.035
27.989,-0.105,0.924,0.037
27.999,-0.111,0.926,0.037
28.009,-0.111,0.926,0.033
28.019,-0.113,0.930,0.037
28.029,-0.115,0.930,0.035
28.039,-0.111,0.930,0.029
28.049,-0.111,0.934,0.033
28.059,-0.115,0.936,0.031
28.068,-0.115,0.938,0.027
28.078,-0.113,0.938,0.023
28.088,-0.115,0.934,0.025
28.098,-0.115,0.928,0.021
28.108,-0.119,0.936,0.023
28.118,-0.123,0.943,0.023
28.128,-0.123,0.941,0.027
28.138,-0.121,0.939,0.023
28.148,-0.127,0.930,0.023
28.158,-0.131,0.928,0.016
28.168,-0.104,0.936,0.021
28.178,-0.143,0.938,0.018
28.188,-0.146,0.936,0.016
28.197,-0.135,0.938,0.021
28.207,-0.135,0.939,0.016
28.217,-0.133,0.936,0.023
28.227,-0.135,0.936,0.020
28.237,-0.127,0.938,0.018
28.247,-0.131,0.932,0.018
28.257,-0.129,0.928,0.018
28.267,-0.125,0.926,0.020
28.277,-0.127,0.928,0.020
28.287,-0.127,0.930,0.018
28.297,-0.133,0.936,0.020
28.307,-0.135,0.938,0.016
28.317,-0.135,0.939,0.014
28.326,-0.137,0.938,0.016
28.336,-0.135,0.932,0.014
28.346,-0.135,0.934,0.014
28.356,-0.137,0.934,0.012
28.366,-0.137,0.936,0.010
28.376,-0.137,0.936,0.014
28.386,-0.137,0.934,0.012
28.396,-0.135,0.938,0.014
28.406,-0.137,0.930,0.014
28.416,-0.135,0.928,0.010
28.426,-0.137,0.932,0.010
28.436,-0.141,0.936,0.010
28.445,-0.139,0.930,0.010
28.455,-0.139,0.932,0.012
28.465,-0.137,0.934,0.016
28.475,-0.133,0.934,0.008
28.485,-0.131,0.926,0.008
28.495,-0.135,0.928,0.008
28.505,-0.131,0.938,0.010
28.515,-0.137,0.945,0.008
28.525,-0.141,0.941,0.002
28.535,-0.139,0.936,0.006
28.545,-0.139,0.936,0.004
28.555,-0.133,0.934,0.008
28.565,-0.135,0.936,0.008
28.574,-0.137,0.932,0.008
28.584,-0.137,0.928,0.004
28.594,-0.141,0.932,0.002
28.604,-0.146,0.930,0.002
28.614,-0.143,0.926,0.000
28.624,-0.141,0.938,0.000
28.634,-0.141,0.938,0.002
28.644,-0.137,0.939,-0.002
28.654,-0.139,0.943,0.002
28.664,-0.139,0.939,0.004
28.674,-0.139,0.932,-0.002
28.684,-0.135,0.930,0.000
28.693,-0.127,0.930,-0.002
28.703,-0.127,0.934,0.000
28.713,-0.129,0.934,0.002
28.723,-0.131,0.936,0.002
28.733,-0.137,0.928,0.000
28.743,-0.143,0.930,0.000
28.753,-0.141,0.932,0.000
28.763,-0.146,0.938,0.000
28.773,-0.145,0.932,-0.002
28.783,-0.145,0.932,0.002
28.793,-0.148,0.930,-0.004
28.803,-0.143,0.932,-0.004
28.813,-0.145,0.928,-0.006
28.822,-0.146,0.932,-0.006
28.832,-0.150,0.932,-0.010
28.842,-0.152,0.932,-0.014
28.852,-0.150,0.928,-0.006
28.862,-0.148,0.926,-0.012
28.872,-0.127,0.924,-0.012
28.882,-0.141,0.922,-0.012
28.892,-0.170,0.928,-0.014
28.902,-0.168,0.936,-0.012
28.912,-0.160,0.934,-0.014
28.922,-0.154,0.934,-0.014
28.932,-0.143,0.932,-0.014
28.942,-0.146,0.934,-0.020
28.951,-0.156,0.936,-0.014
28.961,-0.152,0.930,-0.012
28.971,-0.152,0.932,-0.018
28.981,-0.160,0.928,-0.014
28.991,-0.160,0.924,-0.020
29.001,-0.158,0.928,-0.018
29.011,-0.150,0.936,-0.012
29.021,-0.154,0.938,-0.012
29.031,-0.146,0.932,-0.014
29.041,-0.143,0.939,-0.008
29.051,-0.141,0.938,-0.010
29.061,-0.139,0.924,-0.014
29.070,-0.145,0.922,-0.018
29.080,-0.143,0.924,-0.016
29.090,-0.145,0.930,-0.018
29.100,-0.143,0.934,-0.020
29.110,-0.148,0.939,-0.016
29.120,-0.141,0.939,-0.018
29.130,-0.137,0.938,-0.020
29.140,-0.135,0.934,-0.018
29.150,-0.143,0.934,-0.021
29.160,-0.129,0.928,-0.029
29.170,-0.135,0.930,-0.021
29.180,-0.152,0.939,-0.025
29.190,-0.150,0.938,-0.025
29.199,-0.125,0.939,-0.029
29.209,-0.129,0.941,-0.021
29.219,-0.146,0.939,-0.023
29.229,-0.146,0.938,-0.025
29.239,-0.137,0.934,-0.031
29.249,-0.139,0.930,-0.031
29.259,-0.154,0.934,-0.031
29.269,-0.125,0.932,-0.035
29.279,-0.143,0.936,-0.025
29.289,-0.162,0.938,-0.031
29.299,-0.178,0.939,-0.023
29.309,-0.143,0.924,-0.039
29.319,-0.143,0.924,-0.031
29.328,-0.141,0.924,-0.039
29.338,-0.143,0.928,-0.033
29.348,-0.143,0.938,-0.035
29.358,-0.150,0.938,-0.031
29.368,-0.152,0.938,-0.035
29.378,-0.162,0.938,-0.031
29.388,-0.178,0.939,-0.033
29.398,-0.178,0.943,-0.033
29.408,-0.186,0.947,-0.033
29.418,-0.189,0.943,-0.035
29.428,-0.186,0.951,-0.035
29.438,-0.189,0.953,-0.049
29.447,-0.178,0.951,-0.074
29.457,-0.178,0.957,-0.086
29.467,-0.182,0.967,-0.096
29.477,-0.154,0.980,-0.102
29.487,-0.127,0.977,-0.096
29.497,-0.115,0.965,-0.094
29.507,-0.129,0.947,-0.092
29.517,-0.131,0.943,-0.092
29.527,-0.123,0.949,-0.076
29.537,-0.129,0.936,-0.062
29.547,-0.141,0.943,-0.055
29.557,-0.139,0.951,-0.037
29.567,-0.143,0.938,-0.031
29.576,-0.154,0.934,-0.025
29.586,-0.174,0.934,-0.008
29.596,-0.180,0.928,-0.002
29.606,-0.182,0.928,0.010
29.616,-0.188,0.924,0.023
29.626,-0.195,0.904,0.029
29.636,-0.203,0.904,0.041
29.646,-0.209,0.904,0.059
29.656,-0.225,0.898,0.070
29.666,-0.234,0.898,0.082
29.676,-0.238,0.889,0.096
29.686,-0.248,0.887,0.107
29.695,-0.252,0.887,0.117
29.705,-0.250,0.883,0.117
29.715,-0.260,0.875,0.127
29.725,-0.266,0.863,0.133
29.735,-0.275,0.850,0.139
29.745,-0.258,0.863,0.137
29.755,-0.271,0.869,0.150
29.765,-0.301,0.875,0.150
29.775,-0.297,0.885,0.145
29.785,-0.281,0.895,0.145
29.795,-0.279,0.896,0.141
29.805,-0.270,0.898,0.133
29.815,-0.270,0.902,0.129
29.824,-0.279,0.906,0.121
29.834,-0.287,0.910,0.131
29.844,-0.291,0.910,0.137
29.854,-0.293,0.908,0.143
29.864,-0.295,0.916,0.139
29.874,-0.287,0.928,0.141
29.884,-0.268,0.930,0.141
29.894,-0.252,0.926,0.143
29.904,-0.252,0.924,0.139
29.914,-0.234,0.920,0.127
29.924,-0.238,0.924,0.129
29.934,-0.244,0.912,0.123
29.944,-0.258,0.906,0.123
29.953,-0.254,0.912,0.119
29.963,-0.242,0.916,0.119
29.973,-0.248,0.912,0.121
29.983,-0.234,0.920,0.111
29.993,-0.225,0.916,0.115
30.003,-0.219,0.898,0.090
30.013,-0.266,0.893,0.084
30.023,-0.268,0.885,0.074
30.033,-0.266,0.877,0.066
30.043,-0.283,0.885,0.061
30.053,-0.273,0.887,0.039
30.063,-0.229,0.891,0.037
30.072,-0.250,0.900,0.035
30.082,-0.246,0.902,0.014
30.092,-0.250,0.908,0.014
30.102,-0.262,0.914,0.010
30.112,-0.273,0.904,0.016
30.122,-0.283,0.906,0.018
30.132,-0.295,0.916,0.012
30.142,-0.289,0.916,0.004
30.152,-0.303,0.904,0.004
30.162,-0.293,0.900,-0.002
30.172,-0.283,0.910,-0.006
30.182,-0.285,0.908,-0.002
30.192,-0.275,0.916,-0.006
30.201,-0.264,0.938,0.006
30.211,-0.262,0.928,0.006
30.221,-0.271,0.916,0.004
30.231,-0.281,0.912,0.010
30.241,-0.291,0.912,0.014
30.251,-0.295,0.914,0.016
30.261,-0.293,0.918,0.020
30.271,-0.287,0.902,0.010
30.281,-0.273,0.904,0.010
30.291,-0.229,0.902,-0.004
30.301,-0.242,0.914,0.006
30.311,-0.258,0.924,0.000
30.320,-0.250,0.926,0.000
30.330,-0.232,0.936,0.000
30.340,-0.240,0.941,0.006
30.350,-0.229,0.932,0.000
30.360,-0.221,0.928,0.006
30.370,-0.217,0.930,0.010
30.380,-0.221,0.926,0.016
30.390,-0.230,0.920,0.014
30.400,-0.240,0.910,0.016
30.410,-0.260,0.902,0.014
30.420,-0.268,0.902,0.010
30.430,-0.273,0.908,0.010
30.440,-0.279,0.914,0.008
30.449,-0.266,0.928,0.010
30.459,-0.266,0.926,0.020
30.469,-0.279,0.918,0.014
30.479,-0.271,0.924,0.010
30.489,-0.266,0.916,0.018
30.499,-0.287,0.918,0.016
30.509,-0.295,0.906,0.014
30.519,-0.293,0.898,0.014
30.529,-0.283,0.902,0.016
30.539,-0.281,0.910,0.020
30.549,-0.268,0.914,0.012
30.559,-0.264,0.926,0.018
30.569,-0.256,0.938,0.018
30.578,-0.246,0.941,0.020
30.588,-0.238,0.938,0.020
30.598,-0.223,0.947,0.020
30.608,-0.199,0.951,0.018
30.618,-0.195,0.949,0.020
30.628,-0.199,0.945,0.023
30.638,-0.207,0.941,0.020
30.648,-0.217,0.938,0.018
30.658,-0.232,0.928,0.018
30.668,-0.244,0.932,0.023
30.678,-0.254,0.938,0.029
30.688,-0.254,0.938,0.029
30.697,-0.250,0.930,0.035
30.707,-0.252,0.924,0.035
30.717,-0.258,0.904,0.035
30.727,-0.273,0.891,0.039
30.737,-0.287,0.885,0.045
30.747,-0.291,0.887,0.049
30.757,-0.295,0.895,0.059
30.767,-0.297,0.898,0.068
30.777,-0.299,0.898,0.070
30.787,-0.287,0.896,0.078
30.797,-0.260,0.900,0.084
30.807,-0.238,0.900,0.082
30.817,-0.252,0.895,0.092
30.826,-0.287,0.889,0.100
30.836,-0.299,0.891,0.107
30.846,-0.287,0.893,0.111
30.856,-0.283,0.891,0.111
30.866,-0.295,0.900,0.121
30.876,-0.289,0.910,0.125
30.886,-0.285,0.910,0.131
30.896,-0.287,0.906,0.131
30.906,-0.285,0.895,0.139
30.916,-0.299,0.895,0.141
30.926,-0.303,0.893,0.143
30.936,-0.301,0.891,0.150
30.946,-0.303,0.887,0.152
30.955,-0.297,0.896,0.154
30.965,-0.291,0.896,0.160
30.975,-0.281,0.883,0.158
30.985,-0.277,0.887,0.160
30.995,-0.273,0.895,0.168
31.005,-0.271,0.883,0.170
31.015,-0.266,0.883,0.166
31.025,-0.268,0.883,0.172
31.035,-0.270,0.889,0.172
31.045,-0.266,0.887,0.158
31.055,-0.273,0.885,0.156
31.065,-0.283,0.885,0.156
31.074,-0.312,0.887,0.160
31.084,-0.318,0.881,0.158
31.094,-0.311,0.885,0.152
31.104,-0.316,0.891,0.152
31.114,-0.326,0.871,0.148
31.124,-0.326,0.873,0.141
31.134,-0.318,0.873,0.143
31.144,-0.326,0.873,0.133
31.154,-0.336,0.873,0.129
31.164,-0.332,0.881,0.125
31.174,-0.318,0.881,0.121
31.184,-0.307,0.893,0.115
31.194,-0.295,0.900,0.113
31.203,-0.277,0.906,0.109
31.213,-0.264,0.912,0.104
31.223,-0.264,0.910,0.094
31.233,-0.277,0.893,0.086
31.243,-0.279,0.898,0.076
31.253,-0.277,0.904,0.072
31.263,-0.281,0.906,0.066
31.273,-0.279,0.918,0.062
31.283,-0.271,0.928,0.061
31.293,-0.262,0.928,0.061
31.303,-0.260,0.920,0.051
31.313,-0.260,0.926,0.053
31.322,-0.262,0.938,0.051
31.332,-0.264,0.941,0.053
31.342,-0.262,0.951,0.053
31.352,-0.262,0.934,0.053
31.362,-0.258,0.916,0.053
31.372,-0.254,0.916,0.043
31.382,-0.230,0.922,0.033
31.392,-0.236,0.930,0.049
31.402,-0.254,0.922,0.045
31.412,-0.273,0.910,0.049
31.422,-0.289,0.908,0.053
31.432,-0.297,0.904,0.051
31.442,-0.311,0.902,0.057
31.451,-0.312,0.902,0.061
31.461,-0.312,0.900,0.061
31.471,-0.309,0.895,0.051
31.481,-0.312,0.900,0.049
31.491,-0.314,0.889,0.043
31.501,-0.314,0.881,0.039
31.511,-0.314,0.883,0.039
31.521,-0.324,0.885,0.039
31.531,-0.328,0.885,0.041
31.541,-0.326,0.889,0.041
31.551,-0.330,0.893,0.039
31.561,-0.334,0.889,0.037
31.571,-0.338,0.887,0.031
31.580,-0.336,0.883,0.027
31.590,-0.334,0.885,0.023
31.600,-0.332,0.881,0.023
31.610,-0.332,0.877,0.021
31.620,-0.355,0.889,0.020
31.630,-0.354,0.889,0.014
31.640,-0.342,0.895,0.012
31.650,-0.352,0.900,0.016
31.660,-0.346,0.895,0.008
31.670,-0.354,0.906,0.004
31.680,-0.354,0.910,0.000
31.690,-0.336,0.900,-0.002
31.699,-0.330,0.906,-0.010
31.709,-0.336,0.902,-0.004
31.719,-0.340,0.906,-0.010
31.729,-0.326,0.902,-0.018
31.739,-0.328,0.898,-0.020
31.749,-0.340,0.885,-0.029
31.759,-0.332,0.879,-0.031
31.769,-0.357,0.883,-0.021
31.779,-0.385,0.893,-0.020
31.789,-0.357,0.896,-0.027
31.799,-0.375,0.896,-0.016
31.809,-0.361,0.889,-0.035
31.819,-0.367,0.873,-0.031
31.828,-0.371,0.871,-0.043
31.838,-0.357,0.861,-0.047
31.848,-0.365,0.879,-0.029
31.858,-0.367,0.877,-0.031
31.868,-0.373,0.879,-0.027
31.878,-0.400,0.877,-0.020
31.888,-0.406,0.869,-0.023
31.898,-0.400,0.869,-0.031
31.908,-0.400,0.865,-0.020
31.918,-0.387,0.861,-0.027
31.928,-0.369,0.875,-0.025
31.938,-0.371,0.875,-0.023
31.947,-0.373,0.877,-0.021
31.957,-0.387,0.877,-0.014
31.967,-0.396,0.875,-0.025
31.977,-0.408,0.867,-0.021
31.987,-0.418,0.863,-0.027
31.997,-0.416,0.865,-0.021
32.007,-0.408,0.867,-0.023
32.017,-0.398,0.871,-0.021
32.027,-0.391,0.873,-0.020
32.037,-0.383,0.871,-0.021
32.047,-0.375,0.877,-0.018
32.057,-0.371,0.877,-0.012
32.067,-0.375,0.881,-0.014
32.076,-0.385,0.877,-0.012
32.086,-0.391,0.881,-0.014
32.096,-0.400,0.881,-0.014
32.106,-0.418,0.865,-0.016
32.116,-0.395,0.840,-0.029
32.126,-0.396,0.850,-0.027
32.136,-0.373,0.863,-0.031
32.146,-0.375,0.891,-0.027
32.156,-0.400,0.881,-0.016
32.166,-0.395,0.869,-0.029
32.176,-0.385,0.871,-0.027
32.186,-0.391,0.871,-0.025
32.196,-0.398,0.865,-0.031
32.205,-0.396,0.865,-0.027
32.215,-0.398,0.863,-0.031
32.225,-0.400,0.865,-0.029
32.235,-0.385,0.863,-0.035
32.245,-0.381,0.873,-0.031
32.255,-0.385,0.877,-0.033
32.265,-0.383,0.873,-0.039
32.275,-0.379,0.871,-0.037
32.285,-0.381,0.865,-0.037
32.295,-0.383,0.871,-0.037
32.305,-0.385,0.885,-0.035
32.315,-0.379,0.883,-0.033
32.324,-0.379,0.883,-0.033
32.334,-0.387,0.869,-0.039
32.344,-0.393,0.861,-0.045
32.354,-0.400,0.865,-0.049
32.364,-0.396,0.869,-0.047
32.374,-0.408,0.875,-0.047
32.384,-0.400,0.879,-0.043
32.394,-0.395,0.881,-0.047
32.404,-0.393,0.879,-0.043
32.414,-0.391,0.881,-0.045
32.424,-0.385,0.873,-0.047
32.434,-0.383,0.873,-0.049
32.444,-0.383,0.869,-0.049
32.453,-0.385,0.871,-0.049
32.463,-0.391,0.867,-0.049
32.473,-0.393,0.867,-0.049
32.483,-0.396,0.875,-0.047
32.493,-0.387,0.871,-0.051
32.503,-0.393,0.873,-0.045
32.513,-0.391,0.869,-0.043
32.523,-0.383,0.871,-0.041
32.533,-0.385,0.869,-0.043
32.543,-0.383,0.867,-0.045
32.553,-0.385,0.873,-0.041
32.563,-0.393,0.869,-0.047
32.573,-0.393,0.867,-0.045
32.582,-0.391,0.869,-0.045
32.592,-0.396,0.871,-0.043
32.602,-0.393,0.871,-0.043
32.612,-0.393,0.865,-0.043
32.622,-0.396,0.869,-0.041
32.632,-0.396,0.873,-0.041
32.642,-0.387,0.873,-0.041
32.652,-0.393,0.871,-0.041
32.662,-0.381,0.869,-0.043
32.672,-0.402,0.879,-0.037
32.682,-0.391,0.852,-0.057
32.692,-0.359,0.863,-0.055
32.701,-0.391,0.887,-0.041
32.711,-0.393,0.891,-0.043
32.721,-0.383,0.889,-0.043
32.731,-0.385,0.881,-0.043
32.741,-0.395,0.863,-0.041
32.751,-0.393,0.855,-0.039
32.761,-0.404,0.854,-0.037
32.771,-0.396,0.848,-0.043
32.781,-0.398,0.855,-0.035
32.791,-0.396,0.855,-0.039
32.801,-0.393,0.869,-0.035
32.811,-0.387,0.879,-0.037
32.821,-0.389,0.883,-0.033
32.830,-0.395,0.875,-0.035
32.840,-0.400,0.869,-0.037
32.850,-0.408,0.871,-0.039
32.860,-0.410,0.869,-0.039
32.870,-0.408,0.855,-0.039
32.880,-0.416,0.867,-0.037
32.890,-0.418,0.877,-0.035
32.900,-0.395,0.865,-0.037
32.910,-0.391,0.867,-0.037
32.920,-0.389,0.871,-0.035
32.930,-0.404,0.865,-0.031
32.940,-0.412,0.854,-0.037
32.949,-0.410,0.861,-0.039
32.959,-0.418,0.863,-0.035
32.969,-0.414,0.857,-0.037
32.979,-0.416,0.859,-0.031
32.989,-0.402,0.863,-0.037
32.999,-0.404,0.867,-0.029
33.009,-0.406,0.859,-0.031
33.019,-0.404,0.861,-0.033
33.029,-0.395,0.863,-0.037
33.039,-0.396,0.869,-0.033
33.049,-0.404,0.865,-0.033
33.059,-0.412,0.861,-0.039
33.069,-0.422,0.863,-0.035
33.078,-0.422,0.865,-0.037
33.088,-0.420,0.859,-0.033
33.098,-0.428,0.855,-0.035
33.108,-0.424,0.852,-0.033
33.118,-0.418,0.857,-0.033
33.128,-0.410,0.857,-0.035
33.138,-0.410,0.861,-0.035
33.148,-0.408,0.865,-0.033
33.158,-0.404,0.869,-0.035
33.168,-0.406,0.869,-0.035
33.178,-0.406,0.863,-0.033
33.188,-0.410,0.861,-0.037
33.198,-0.416,0.861,-0.035
33.207,-0.416,0.863,-0.037
33.217,-0.414,0.857,-0.037
33.227,-0.416,0.859,-0.029
33.237,-0.420,0.865,-0.029
33.247,-0.400,0.859,-0.037
33.257,-0.389,0.861,-0.043
33.267,-0.359,0.859,-0.049
33.277,-0.381,0.879,-0.043
33.287,-0.447,0.889,-0.027
33.297,-0.439,0.871,-0.039
33.307,-0.412,0.863,-0.035
33.317,-0.430,0.854,-0.031
33.326,-0.414,0.840,-0.047
33.336,-0.398,0.854,-0.037
33.346,-0.402,0.859,-0.035
33.356,-0.410,0.855,-0.039
33.366,-0.404,0.865,-0.037
33.376,-0.406,0.873,-0.029
33.386,-0.414,0.867,-0.033
33.396,-0.412,0.865,-0.033
33.406,-0.414,0.873,-0.031
33.416,-0.406,0.869,-0.029
33.426,-0.402,0.867,-0.037
33.436,-0.398,0.863,-0.035
33.446,-0.391,0.865,-0.037
33.455,-0.393,0.867,-0.033
33.465,-0.395,0.873,-0.037
33.475,-0.396,0.877,-0.029
33.485,-0.398,0.869,-0.039
33.495,-0.408,0.867,-0.039
33.505,-0.404,0.852,-0.039
33.515,-0.395,0.861,-0.041
33.525,-0.408,0.873,-0.031
33.535,-0.416,0.867,-0.041
33.545,-0.402,0.871,-0.035
33.555,-0.412,0.875,-0.027
33.565,-0.410,0.869,-0.029
33.575,-0.400,0.855,-0.025
33.584,-0.393,0.854,-0.031
33.594,-0.395,0.855,-0.037
33.604,-0.404,0.857,-0.029
33.614,-0.404,0.861,-0.031
33.624,-0.404,0.865,-0.033
33.634,-0.410,0.865,-0.029
33.644,-0.410,0.865,-0.031
33.654,-0.402,0.865,-0.031
33.664,-0.398,0.863,-0.031
33.674,-0.398,0.865,-0.031
33.684,-0.396,0.867,-0.031
33.694,-0.398,0.861,-0.031
33.703,-0.396,0.863,-0.033
33.713,-0.398,0.867,-0.037
33.723,-0.400,0.871,-0.031
33.733,-0.400,0.871,-0.031
33.743,-0.400,0.871,-0.031
33.753,-0.400,0.869,-0.033
33.763,-0.402,0.867,-0.029
33.773,-0.422,0.848,-0.031
33.783,-0.395,0.826,-0.041
33.793,-0.367,0.863,-0.049
33.803,-0.363,0.889,-0.031
33.813,-0.422,0.902,-0.033
33.823,-0.426,0.891,-0.035
33.832,-0.387,0.873,-0.037
33.842,-0.400,0.867,-0.039
33.852,-0.412,0.859,-0.039
33.862,-0.406,0.863,-0.039
33.872,-0.402,0.863,-0.035
33.882,-0.400,0.863,-0.035
33.892,-0.398,0.867,-0.031
33.902,-0.395,0.865,-0.033
33.912,-0.391,0.865,-0.029
33.922,-0.389,0.865,-0.031
33.932,-0.396,0.869,-0.025
33.942,-0.402,0.859,-0.029
33.951,-0.402,0.863,-0.027
33.961,-0.398,0.863,-0.027
33.971,-0.396,0.869,-0.021
33.981,-0.395,0.871,-0.021
33.991,-0.391,0.873,-0.021
34.001,-0.396,0.875,-0.020
34.011,-0.389,0.873,-0.021
34.021,-0.387,0.871,-0.025
34.031,-0.389,0.863,-0.025
34.041,-0.402,0.871,-0.023
34.051,-0.414,0.875,-0.021
34.061,-0.404,0.873,-0.025
34.071,-0.371,0.877,-0.027
34.080,-0.385,0.877,-0.023
34.090,-0.400,0.865,-0.033
34.100,-0.395,0.867,-0.031
34.110,-0.391,0.865,-0.037
34.120,-0.377,0.867,-0.035
34.130,-0.385,0.883,-0.027
34.140,-0.396,0.887,-0.029
34.150,-0.379,0.879,-0.029
34.160,-0.387,0.879,-0.027
34.170,-0.379,0.867,-0.033
34.180,-0.393,0.869,-0.027
34.190,-0.402,0.869,-0.029
34.200,-0.406,0.861,-0.029
34.209,-0.406,0.867,-0.027
34.219,-0.402,0.867,-0.025
34.229,-0.398,0.863,-0.023
34.239,-0.389,0.867,-0.023
34.249,-0.379,0.877,-0.027
34.259,-0.377,0.877,-0.020
34.269,-0.383,0.877,-0.020
34.279,-0.385,0.875,-0.021
34.289,-0.387,0.875,-0.020
34.299,-0.398,0.871,-0.021
34.309,-0.400,0.867,-0.023
34.319,-0.398,0.873,-0.023
34.328,-0.396,0.871,-0.020
34.338,-0.393,0.869,-0.023
34.348,-0.395,0.871,-0.020
34.358,-0.391,0.871,-0.020
34.368,-0.383,0.875,-0.018
34.378,-0.381,0.873,-0.018
34.388,-0.381,0.873,-0.014
34.398,-0.389,0.871,-0.014
34.408,-0.393,0.873,-0.010
34.418,-0.389,0.867,-0.014
34.428,-0.396,0.859,-0.014
34.438,-0.400,0.863,-0.018
34.448,-0.400,0.869,-0.014
34.457,-0.398,0.869,-0.016
34.467,-0.395,0.869,-0.014
34.477,-0.383,0.861,-0.018
34.487,-0.363,0.857,-0.021
34.497,-0.365,0.887,-0.018
34.507,-0.410,0.873,-0.014
34.517,-0.428,0.861,-0.027
34.527,-0.408,0.869,-0.020
34.537,-0.379,0.871,-0.020
34.547,-0.377,0.869,-0.023
34.557,-0.387,0.875,-0.020
34.567,-0.391,0.879,-0.018
34.576,-0.391,0.879,-0.012
34.586,-0.400,0.879,-0.018
34.596,-0.389,0.877,-0.018
34.606,-0.385,0.877,-0.016
34.616,-0.381,0.869,-0.018
34.626,-0.381,0.875,-0.020
34.636,-0.379,0.877,-0.014
34.646,-0.375,0.877,-0.018
34.656,-0.377,0.877,-0.016
34.666,-0.381,0.873,-0.018
34.676,-0.385,0.873,-0.018
34.686,-0.383,0.873,-0.020
34.696,-0.391,0.869,-0.012
34.705,-0.391,0.865,-0.014
34.715,-0.391,0.869,-0.016
34.725,-0.391,0.871,-0.012
34.735,-0.385,0.869,-0.016
34.745,-0.385,0.871,-0.014
34.755,-0.391,0.875,-0.012
34.765,-0.383,0.871,-0.014
34.775,-0.377,0.875,-0.016
34.785,-0.381,0.875,-0.012
34.795,-0.377,0.871,-0.016
34.805,-0.385,0.875,-0.010
34.815,-0.387,0.875,-0.008
34.825,-0.391,0.873,-0.010
34.834,-0.385,0.875,-0.010
34.844,-0.383,0.871,-0.010
34.854,-0.385,0.873,-0.016
34.864,-0.381,0.877,-0.014
34.874,-0.381,0.881,-0.010
34.884,-0.375,0.883,-0.010
34.894,-0.367,0.873,-0.018
34.904,-0.377,0.875,-0.016
34.914,-0.385,0.879,-0.016
34.924,-0.377,0.883,-0.012
34.934,-0.375,0.879,-0.020
34.944,-0.391,0.879,-0.004
34.953,-0.396,0.887,-0.012
34.963,-0.383,0.881,-0.004
34.973,-0.383,0.877,-0.008
34.983,-0.377,0.873,-0.006
34.993,-0.371,0.869,-0.006
35.003,-0.375,0.875,-0.008
35.013,-0.373,0.879,-0.004
35.023,-0.379,0.871,-0.002
35.033,-0.385,0.869,-0.008
35.043,-0.387,0.875,-0.008
35.053,-0.393,0.881,-0.006
35.063,-0.385,0.877,0.000
35.073,-0.383,0.871,-0.006
35.082,-0.377,0.871,-0.004
35.092,-0.383,0.865,-0.006
35.102,-0.387,0.861,-0.002
35.112,-0.385,0.863,-0.002
35.122,-0.385,0.869,-0.006
35.132,-0.389,0.875,-0.006
35.142,-0.387,0.875,-0.004
35.152,-0.387,0.871,-0.002
35.162,-0.385,0.875,-0.004
35.172,-0.391,0.857,-0.004
35.182,-0.377,0.869,-0.016
35.192,-0.395,0.885,-0.004
35.202,-0.391,0.879,-0.008
35.211,-0.383,0.875,-0.010
35.221,-0.385,0.879,-0.010
35.231,-0.396,0.883,-0.004
35.241,-0.393,0.877,-0.012
35.251,-0.387,0.869,-0.012
35.261,-0.387,0.873,-0.016
35.271,-0.383,0.871,-0.012
35.281,-0.393,0.873,-0.010
35.291,-0.391,0.873,-0.014
35.301,-0.381,0.875,-0.012
35.311,-0.381,0.879,-0.010
35.321,-0.379,0.879,-0.010
35.330,-0.379,0.879,-0.014
35.340,-0.387,0.873,-0.008
35.350,-0.383,0.873,-0.014
35.360,-0.389,0.871,-0.010
35.370,-0.387,0.869,-0.008
35.380,-0.387,0.871,-0.012
35.390,-0.387,0.873,-0.010
35.400,-0.391,0.873,-0.012
35.410,-0.379,0.871,-0.012
35.420,-0.381,0.875,-0.012
35.430,-0.404,0.881,-0.004
35.440,-0.434,0.885,-0.002
35.450,-0.404,0.865,-0.006
35.459,-0.408,0.857,-0.006
35.469,-0.398,0.861,-0.008
35.479,-0.371,0.869,-0.016
35.489,-0.369,0.879,-0.016
35.499,-0.381,0.887,-0.004
35.509,-0.398,0.879,0.000
35.519,-0.398,0.869,-0.012
35.529,-0.389,0.873,-0.012
35.539,-0.393,0.885,-0.002
35.549,-0.389,0.879,-0.004
35.559,-0.379,0.875,-0.006
35.569,-0.383,0.867,-0.010
35.578,-0.381,0.867,-0.002
35.588,-0.395,0.869,-0.006
35.598,-0.387,0.871,-0.008
35.608,-0.398,0.871,-0.002
35.618,-0.398,0.877,0.002
35.628,-0.406,0.873,-0.002
35.638,-0.381,0.865,-0.006
35.648,-0.385,0.865,0.000
35.658,-0.398,0.875,0.000
35.668,-0.393,0.877,0.000
35.678,-0.396,0.877,-0.002
35.688,-0.395,0.869,0.000
35.698,-0.396,0.867,-0.004
35.707,-0.398,0.865,-0.006
35.717,-0.391,0.867,-0.006
35.727,-0.393,0.865,-0.004
35.737,-0.398,0.867,-0.004
35.747,-0.396,0.867,-0.004
35.757,-0.398,0.875,-0.004
35.767,-0.398,0.873,-0.002
35.777,-0.402,0.873,0.000
35.787,-0.404,0.871,-0.002
35.797,-0.400,0.869,-0.002
35.807,-0.400,0.871,-0.006
35.817,-0.398,0.863,-0.006
35.827,-0.395,0.863,-0.006
35.836,-0.398,0.873,0.002
35.846,-0.379,0.863,0.000
35.856,-0.396,0.848,-0.002
35.866,-0.389,0.871,-0.012
35.876,-0.412,0.881,0.002
35.886,-0.410,0.885,-0.008
35.896,-0.379,0.891,-0.004
35.906,-0.377,0.891,0.002
35.916,-0.385,0.873,-0.010
35.926,-0.393,0.865,-0.016
35.936,-0.395,0.873,-0.004
35.946,-0.420,0.859,-0.006
35.955,-0.412,0.867,-0.008
35.965,-0.393,0.867,-0.008
35.975,-0.391,0.871,-0.006
35.985,-0.395,0.869,-0.006
35.995,-0.396,0.871,-0.004
36.005,-0.391,0.873,-0.006
36.015,-0.391,0.869,-0.004
36.025,-0.381,0.869,-0.002
36.035,-0.391,0.877,-0.006
36.045,-0.395,0.875,-0.006
36.055,-0.395,0.877,-0.006
36.065,-0.396,0.873,-0.006
36.075,-0.396,0.869,-0.004
36.084,-0.389,0.875,-0.010
36.094,-0.381,0.879,-0.008
36.104,-0.377,0.879,-0.010
36.114,-0.385,0.877,-0.002
36.124,-0.402,0.877,-0.006
36.134,-0.389,0.867,-0.006
36.144,-0.385,0.871,-0.004
36.154,-0.400,0.875,0.004
36.164,-0.391,0.861,-0.006
36.174,-0.385,0.869,0.000
36.184,-0.404,0.883,0.004
36.194,-0.402,0.881,0.010
36.203,-0.404,0.881,-0.002
36.213,-0.385,0.871,0.008
36.223,-0.381,0.881,-0.002
36.233,-0.391,0.875,0.008
36.243,-0.393,0.877,0.000
36.253,-0.389,0.877,0.008
36.263,-0.375,0.879,-0.002
36.273,-0.389,0.887,0.006
36.283,-0.412,0.873,0.006
36.293,-0.395,0.875,0.000
36.303,-0.389,0.867,0.010
36.313,-0.385,0.861,0.004
36.323,-0.375,0.852,0.004
36.332,-0.383,0.857,0.010
36.342,-0.387,0.865,0.010
36.352,-0.387,0.869,0.014
36.362,-0.391,0.875,0.008
36.372,-0.385,0.877,0.014
36.382,-0.389,0.879,0.010
36.392,-0.387,0.877,0.006
36.402,-0.393,0.869,0.006
36.412,-0.396,0.867,0.002
36.422,-0.389,0.865,0.004
36.432,-0.393,0.879,0.008
36.442,-0.396,0.881,0.010
36.452,-0.387,0.881,0.008
36.461,-0.383,0.875,0.004
36.471,-0.391,0.871,0.006
36.481,-0.387,0.869,0.004
36.491,-0.385,0.873,0.000
36.501,-0.383,0.871,0.006
36.511,-0.385,0.873,0.006
36.521,-0.389,0.871,0.006
36.531,-0.381,0.871,0.002
36.541,-0.387,0.875,0.006
36.551,-0.395,0.869,0.006
36.561,-0.391,0.861,0.006
36.571,-0.385,0.863,0.002
36.580,-0.383,0.865,0.002
36.590,-0.373,0.859,-0.004
36.600,-0.326,0.881,-0.014
36.610,-0.365,0.932,0.008
36.620,-0.441,0.908,0.020
36.630,-0.424,0.881,-0.002
36.640,-0.389,0.869,0.002
36.650,-0.373,0.863,-0.002
36.660,-0.381,0.855,-0.004
36.670,-0.375,0.857,-0.006
36.680,-0.375,0.869,-0.008
36.690,-0.383,0.873,0.004
36.700,-0.377,0.883,-0.002
36.709,-0.371,0.895,0.002
36.719,-0.379,0.893,0.004
36.729,-0.373,0.885,0.000
36.739,-0.377,0.871,0.006
36.749,-0.389,0.873,0.000
36.759,-0.389,0.869,-0.004
36.769,-0.387,0.863,0.000
36.779,-0.389,0.869,-0.002
36.789,-0.383,0.875,0.002
36.799,-0.369,0.881,0.008
36.809,-0.361,0.885,0.010
36.819,-0.361,0.893,0.012
36.829,-0.357,0.893,0.010
36.838,-0.357,0.893,0.008
36.848,-0.375,0.887,0.004
36.858,-0.381,0.885,0.004
36.868,-0.387,0.879,0.010
36.878,-0.422,0.875,0.018
36.888,-0.414,0.875,0.008
36.898,-0.377,0.875,0.014
36.908,-0.383,0.865,0.018
36.918,-0.383,0.875,-0.014
36.928,-0.373,0.881,0.014
36.938,-0.381,0.896,0.004
36.948,-0.377,0.883,0.008
36.957,-0.381,0.879,0.006
36.967,-0.404,0.883,0.012
36.977,-0.375,0.877,-0.002
36.987,-0.361,0.877,0.008
36.997,-0.367,0.891,0.016
37.007,-0.354,0.898,0.012
37.017,-0.346,0.896,0.016
37.027,-0.352,0.875,0.012
37.037,-0.361,0.875,0.004
37.047,-0.361,0.885,0.010
37.057,-0.359,0.881,0.010
37.067,-0.361,0.879,0.014
37.077,-0.367,0.879,0.021
37.086,-0.369,0.877,0.020
37.096,-0.365,0.875,0.025
37.106,-0.369,0.877,0.027
37.116,-0.369,0.881,0.027
37.126,-0.363,0.881,0.025
37.136,-0.361,0.889,0.027
37.146,-0.355,0.889,0.025
37.156,-0.346,0.889,0.020
37.166,-0.336,0.889,0.021
37.176,-0.338,0.891,0.021
37.186,-0.340,0.895,0.025
37.196,-0.342,0.902,0.033
37.205,-0.342,0.898,0.031
37.215,-0.334,0.895,0.033
37.225,-0.344,0.887,0.033
37.235,-0.348,0.889,0.031
37.245,-0.354,0.893,0.035
37.255,-0.338,0.871,0.023
37.265,-0.260,0.883,0.006
37.275,-0.307,0.928,0.051
37.285,-0.387,0.924,0.064
37.295,-0.369,0.900,0.039
37.305,-0.320,0.895,0.047
37.315,-0.305,0.910,0.049
37.325,-0.305,0.912,0.051
37.334,-0.289,0.904,0.051
37.344,-0.285,0.910,0.057
37.354,-0.293,0.902,0.059
37.364,-0.295,0.896,0.055
37.374,-0.299,0.893,0.057
37.384,-0.303,0.887,0.057
37.394,-0.307,0.889,0.059
37.404,-0.309,0.898,0.061
37.414,-0.307,0.906,0.066
37.424,-0.311,0.914,0.070
37.434,-0.297,0.908,0.070
37.444,-0.297,0.906,0.074
37.454,-0.303,0.906,0.078
37.463,-0.295,0.906,0.080
37.473,-0.287,0.902,0.076
37.483,-0.287,0.910,0.080
37.493,-0.289,0.910,0.082
37.503,-0.277,0.904,0.082
37.513,-0.285,0.904,0.086
37.523,-0.303,0.904,0.090
37.533,-0.305,0.908,0.092
37.543,-0.273,0.916,0.092
37.553,-0.264,0.906,0.096
37.563,-0.287,0.908,0.105
37.573,-0.309,0.926,0.109
37.582,-0.293,0.918,0.123
37.592,-0.287,0.914,0.107
37.602,-0.285,0.895,0.109
37.612,-0.283,0.895,0.111
37.622,-0.264,0.895,0.115
37.632,-0.277,0.900,0.119
37.642,-0.295,0.914,0.121
37.652,-0.270,0.920,0.129
37.662,-0.250,0.902,0.137
37.672,-0.260,0.889,0.131
37.682,-0.283,0.887,0.133
37.692,-0.283,0.885,0.137
37.702,-0.281,0.891,0.135
37.711,-0.289,0.893,0.143
37.721,-0.287,0.902,0.143
37.731,-0.281,0.896,0.145
37.741,-0.273,0.902,0.139
37.751,-0.279,0.904,0.141
37.761,-0.273,0.902,0.141
37.771,-0.277,0.898,0.139
37.781,-0.281,0.902,0.143
37.791,-0.275,0.900,0.146
37.801,-0.275,0.902,0.148
37.811,-0.281,0.898,0.150
37.821,-0.279,0.902,0.148
37.830,-0.279,0.908,0.148
37.840,-0.271,0.908,0.150
37.850,-0.270,0.906,0.152
37.860,-0.266,0.906,0.152
37.870,-0.266,0.898,0.154
37.880,-0.271,0.896,0.154
37.890,-0.277,0.891,0.154
37.900,-0.275,0.900,0.158
37.910,-0.277,0.904,0.160
37.920,-0.273,0.904,0.160
37.930,-0.270,0.906,0.158
37.940,-0.260,0.871,0.152
37.950,-0.180,0.898,0.125
37.959,-0.246,0.947,0.186
37.969,-0.340,0.945,0.184
37.979,-0.322,0.908,0.162
37.989,-0.260,0.896,0.164
37.999,-0.246,0.896,0.164
38.009,-0.256,0.889,0.166
38.019,-0.262,0.904,0.178
38.029,-0.256,0.906,0.180
38.039,-0.260,0.900,0.176
38.049,-0.268,0.900,0.176
38.059,-0.271,0.908,0.182
38.069,-0.270,0.904,0.182
38.079,-0.260,0.898,0.180
38.088,-0.258,0.902,0.184
38.098,-0.262,0.896,0.189
38.108,-0.264,0.893,0.188
38.118,-0.273,0.896,0.189
38.128,-0.279,0.889,0.193
38.138,-0.273,0.885,0.186
38.148,-0.271,0.889,0.193
38.158,-0.248,0.891,0.184
38.168,-0.250,0.898,0.189
38.178,-0.275,0.920,0.195
38.188,-0.266,0.914,0.197
38.198,-0.264,0.912,0.189
38.207,-0.264,0.908,0.184
38.217,-0.273,0.902,0.178
38.227,-0.270,0.898,0.180
38.237,-0.275,0.906,0.184
38.247,-0.285,0.910,0.195
38.257,-0.277,0.910,0.184
38.267,-0.271,0.902,0.191
38.277,-0.260,0.904,0.182
38.287,-0.238,0.895,0.189
38.297,-0.244,0.891,0.186
38.307,-0.258,0.895,0.191
38.317,-0.260,0.889,0.193
38.327,-0.270,0.893,0.188
38.336,-0.283,0.891,0.188
38.346,-0.283,0.889,0.188
38.356,-0.283,0.893,0.186
38.366,-0.273,0.896,0.182
38.376,-0.268,0.896,0.182
38.386,-0.260,0.902,0.178
38.396,-0.264,0.902,0.176
38.406,-0.266,0.904,0.174
38.416,-0.271,0.908,0.174
38.426,-0.271,0.902,0.172
38.436,-0.273,0.900,0.172
38.446,-0.271,0.902,0.168
38.456,-0.271,0.906,0.174
38.465,-0.270,0.904,0.166
38.475,-0.270,0.904,0.168
38.485,-0.268,0.904,0.164
38.495,-0.264,0.906,0.164
38.505,-0.266,0.908,0.164
38.515,-0.268,0.906,0.164
38.525,-0.273,0.906,0.166
38.535,-0.275,0.904,0.164
38.545,-0.281,0.900,0.170
38.555,-0.281,0.900,0.166
38.565,-0.275,0.906,0.164
38.575,-0.268,0.906,0.164
38.584,-0.256,0.885,0.158
38.594,-0.203,0.904,0.141
38.604,-0.238,0.947,0.180
38.614,-0.320,0.936,0.191
38.624,-0.320,0.902,0.162
38.634,-0.285,0.893,0.172
38.644,-0.273,0.893,0.168
38.654,-0.271,0.889,0.160
38.664,-0.258,0.893,0.166
38.674,-0.262,0.908,0.170
38.684,-0.273,0.908,0.170
38.694,-0.279,0.906,0.168
38.704,-0.279,0.906,0.174
38.713,-0.285,0.904,0.172
38.723,-0.281,0.902,0.174
38.733,-0.277,0.896,0.168
38.743,-0.271,0.898,0.176
38.753,-0.275,0.902,0.180
38.763,-0.273,0.902,0.178
38.773,-0.277,0.902,0.182
38.783,-0.277,0.902,0.182
38.793,-0.287,0.900,0.180
38.803,-0.289,0.900,0.182
38.813,-0.287,0.895,0.178
38.823,-0.283,0.891,0.184
38.832,-0.287,0.906,0.180
38.842,-0.289,0.900,0.182
38.852,-0.293,0.898,0.178
38.862,-0.287,0.895,0.184
38.872,-0.281,0.893,0.176
38.882,-0.277,0.895,0.180
38.892,-0.279,0.900,0.182
38.902,-0.295,0.896,0.182
38.912,-0.293,0.900,0.180
38.922,-0.285,0.898,0.180
38.932,-0.287,0.895,0.178
38.942,-0.297,0.881,0.180
38.952,-0.293,0.891,0.178
38.961,-0.285,0.910,0.189
38.971,-0.281,0.910,0.188
38.981,-0.279,0.908,0.186
38.991,-0.289,0.896,0.182
39.001,-0.289,0.889,0.174
39.011,-0.299,0.893,0.180
39.021,-0.307,0.893,0.184
39.031,-0.271,0.891,0.182
39.041,-0.254,0.887,0.188
39.051,-0.271,0.904,0.186
39.061,-0.275,0.898,0.188
39.071,-0.281,0.889,0.188
39.081,-0.297,0.889,0.188
39.090,-0.305,0.893,0.188
39.100,-0.289,0.887,0.189
39.110,-0.291,0.895,0.189
39.120,-0.277,0.902,0.195
39.130,-0.279,0.902,0.197
39.140,-0.291,0.895,0.199
39.150,-0.281,0.895,0.193
39.160,-0.287,0.887,0.197
39.170,-0.295,0.889,0.199
39.180,-0.295,0.889,0.199
39.190,-0.299,0.887,0.199
39.200,-0.303,0.885,0.199
39.209,-0.303,0.891,0.201
39.219,-0.301,0.889,0.199
39.229,-0.297,0.883,0.195
39.239,-0.297,0.883,0.195
39.249,-0.301,0.889,0.193
39.259,-0.301,0.889,0.193
39.269,-0.305,0.887,0.195
39.279,-0.307,0.889,0.193
39.289,-0.309,0.887,0.189
39.299,-0.309,0.881,0.191
39.309,-0.303,0.885,0.184
39.319,-0.293,0.887,0.182
39.329,-0.293,0.893,0.176
39.338,-0.287,0.891,0.174
39.348,-0.285,0.885,0.162
39.358,-0.246,0.896,0.146
39.368,-0.256,0.945,0.170
39.378,-0.328,0.939,0.189
39.388,-0.344,0.902,0.164
39.398,-0.301,0.889,0.166
39.408,-0.285,0.895,0.164
39.418,-0.287,0.893,0.158
39.428,-0.287,0.896,0.158
39.438,-0.281,0.896,0.162
39.448,-0.281,0.900,0.160
39.457,-0.283,0.902,0.164
39.467,-0.283,0.906,0.164
39.477,-0.287,0.908,0.164
39.487,-0.283,0.908,0.164
39.497,-0.285,0.904,0.164
39.507,-0.275,0.902,0.164
39.517,-0.270,0.902,0.168
39.527,-0.273,0.904,0.168
39.537,-0.277,0.898,0.166
39.547,-0.279,0.895,0.168
39.557,-0.281,0.889,0.172
39.567,-0.281,0.883,0.172
39.577,-0.285,0.891,0.174
39.586,-0.279,0.895,0.182
39.596,-0.279,0.891,0.182
39.606,-0.281,0.891,0.178
39.616,-0.289,0.887,0.182
39.626,-0.283,0.881,0.174
39.636,-0.287,0.881,0.174
39.646,-0.291,0.879,0.172
39.656,-0.291,0.877,0.164
39.666,-0.293,0.883,0.168
39.676,-0.299,0.896,0.164
39.686,-0.301,0.896,0.168
39.696,-0.305,0.891,0.166
39.706,-0.311,0.893,0.172
39.715,-0.314,0.891,0.162
39.725,-0.314,0.887,0.160
39.735,-0.312,0.871,0.154
39.745,-0.311,0.861,0.146
39.755,-0.305,0.881,0.143
39.765,-0.316,0.902,0.146
39.775,-0.330,0.898,0.143
39.785,-0.332,0.906,0.139
39.795,-0.322,0.914,0.139
39.805,-0.314,0.906,0.129
39.815,-0.318,0.887,0.131
39.825,-0.316,0.889,0.117
39.834,-0.314,0.895,0.129
39.844,-0.316,0.900,0.123
39.854,-0.314,0.906,0.127
39.864,-0.311,0.908,0.129
39.874,-0.305,0.912,0.133
39.884,-0.307,0.904,0.123
39.894,-0.314,0.893,0.121
39.904,-0.320,0.889,0.121
39.914,-0.326,0.889,0.111
39.924,-0.328,0.889,0.111
39.934,-0.332,0.893,0.113
39.944,-0.332,0.898,0.107
39.954,-0.328,0.898,0.107
39.963,-0.330,0.900,0.104
39.973,-0.332,0.893,0.100
39.983,-0.328,0.887,0.096
39.993,-0.320,0.885,0.098
40.003,-0.320,0.896,0.090
40.013,-0.324,0.900,0.090
40.023,-0.324,0.904,0.084
40.033,-0.324,0.904,0.080
40.043,-0.324,0.900,0.074
40.053,-0.328,0.893,0.068
40.063,-0.328,0.893,0.072
40.073,-0.322,0.893,0.066
40.083,-0.324,0.895,0.062
40.092,-0.322,0.895,0.061
40.102,-0.322,0.898,0.053
40.112,-0.328,0.895,0.051
40.122,-0.334,0.896,0.045
40.132,-0.332,0.883,0.041
40.142,-0.334,0.879,0.041
40.152,-0.336,0.879,0.049
40.162,-0.334,0.881,0.049
40.172,-0.340,0.879,0.049
40.182,-0.340,0.885,0.051
40.192,-0.344,0.881,0.043
40.202,-0.350,0.881,0.039
40.211,-0.348,0.881,0.033
40.221,-0.355,0.889,0.039
40.231,-0.352,0.891,0.037
40.241,-0.350,0.895,0.037
40.251,-0.355,0.893,0.041
40.261,-0.354,0.893,0.035
40.271,-0.355,0.891,0.035
40.281,-0.359,0.885,0.029
40.291,-0.357,0.887,0.027
40.301,-0.357,0.885,0.023
40.311,-0.352,0.881,0.020
40.321,-0.346,0.865,0.021
40.331,-0.350,0.875,0.018
40.340,-0.350,0.889,0.020
40.350,-0.348,0.893,0.023
40.360,-0.352,0.895,0.020
40.370,-0.355,0.895,0.014
40.380,-0.354,0.879,0.010
40.390,-0.352,0.871,-0.004
40.400,-0.352,0.875,-0.006
40.410,-0.354,0.883,-0.010
40.420,-0.344,0.885,-0.016
40.430,-0.344,0.885,-0.014
40.440,-0.344,0.891,-0.016
40.450,-0.346,0.887,-0.018
40.459,-0.350,0.881,-0.025
40.469,-0.352,0.877,-0.027
40.479,-0.354,0.879,-0.029
40.489,-0.354,0.877,-0.039
40.499,-0.350,0.871,-0.047
40.509,-0.338,0.867,-0.059
40.519,-0.303,0.887,-0.070
40.529,-0.295,0.912,-0.055
40.539,-0.354,0.922,-0.047
40.549,-0.371,0.910,-0.064
40.559,-0.346,0.895,-0.078
40.569,-0.344,0.887,-0.070
40.579,-0.348,0.889,-0.082
40.588,-0.352,0.885,-0.088
40.598,-0.350,0.889,-0.088
40.608,-0.348,0.887,-0.090
40.618,-0.346,0.885,-0.092
40.628,-0.346,0.885,-0.092
40.638,-0.336,0.889,-0.098
40.648,-0.344,0.887,-0.102
40.658,-0.352,0.887,-0.105
40.668,-0.363,0.887,-0.109
40.678,-0.355,0.883,-0.117
40.688,-0.354,0.883,-0.117
40.698,-0.359,0.885,-0.119
40.708,-0.369,0.883,-0.121
40.717,-0.359,0.883,-0.119
40.727,-0.359,0.877,-0.119
40.737,-0.365,0.875,-0.125
40.747,-0.365,0.873,-0.125
40.757,-0.371,0.873,-0.123
40.767,-0.383,0.875,-0.127
40.777,-0.387,0.869,-0.129
40.787,-0.387,0.871,-0.133
40.797,-0.387,0.871,-0.129
40.807,-0.391,0.867,-0.129
40.817,-0.393,0.861,-0.137
40.827,-0.393,0.861,-0.133
40.836,-0.395,0.863,-0.131
40.846,-0.398,0.863,-0.135
40.856,-0.400,0.865,-0.129
40.866,-0.400,0.865,-0.131
40.876,-0.398,0.857,-0.131
40.886,-0.400,0.848,-0.129
40.896,-0.402,0.855,-0.131
40.906,-0.408,0.857,-0.129
40.916,-0.408,0.852,-0.129
40.926,-0.416,0.854,-0.131
40.936,-0.416,0.848,-0.131
40.946,-0.416,0.840,-0.131
40.956,-0.416,0.838,-0.135
40.965,-0.422,0.844,-0.131
40.975,-0.422,0.855,-0.127
40.985,-0.430,0.854,-0.123
40.995,-0.430,0.850,-0.123
41.005,-0.416,0.846,-0.133
41.015,-0.410,0.846,-0.133
41.025,-0.420,0.850,-0.131
41.035,-0.434,0.852,-0.125
41.045,-0.434,0.850,-0.133
41.055,-0.422,0.859,-0.131
41.065,-0.420,0.859,-0.127
41.075,-0.432,0.855,-0.129
41.084,-0.422,0.850,-0.129
41.094,-0.422,0.846,-0.127
41.104,-0.430,0.857,-0.129
41.114,-0.438,0.850,-0.123
41.124,-0.434,0.848,-0.131
41.134,-0.422,0.844,-0.121
41.144,-0.430,0.846,-0.125
41.154,-0.430,0.852,-0.121
41.164,-0.451,0.857,-0.117
41.174,-0.438,0.857,-0.115
41.184,-0.430,0.842,-0.123
41.194,-0.422,0.832,-0.123
41.204,-0.439,0.836,-0.119
41.213,-0.439,0.836,-0.125
41.223,-0.434,0.846,-0.123
41.233,-0.436,0.846,-0.113
41.243,-0.422,0.844,-0.117
41.253,-0.422,0.854,-0.117
41.263,-0.420,0.852,-0.111
41.273,-0.420,0.852,-0.115
41.283,-0.432,0.852,-0.115
41.293,-0.424,0.846,-0.115
41.303,-0.426,0.844,-0.115
41.313,-0.430,0.844,-0.115
41.323,-0.430,0.840,-0.113
41.333,-0.430,0.842,-0.119
41.342,-0.434,0.852,-0.113
41.352,-0.443,0.850,-0.111
41.362,-0.453,0.850,-0.115
41.372,-0.455,0.844,-0.121
41.382,-0.457,0.848,-0.125
41.392,-0.463,0.857,-0.127
41.402,-0.473,0.855,-0.127
41.412,-0.482,0.855,-0.129
41.422,-0.502,0.859,-0.125
41.432,-0.510,0.857,-0.123
41.442,-0.490,0.840,-0.141
41.452,-0.438,0.828,-0.150
41.461,-0.375,0.867,-0.143
41.471,-0.453,0.887,-0.104
41.481,-0.473,0.891,-0.119
41.491,-0.424,0.896,-0.131
41.501,-0.400,0.908,-0.115
41.511,-0.395,0.887,-0.115
41.521,-0.385,0.871,-0.119
41.531,-0.365,0.875,-0.105
41.541,-0.357,0.877,-0.092
41.551,-0.369,0.869,-0.084
41.561,-0.377,0.867,-0.074
41.571,-0.367,0.861,-0.068
41.581,-0.371,0.859,-0.061
41.590,-0.381,0.854,-0.053
41.600,-0.402,0.852,-0.047
41.610,-0.410,0.859,-0.041
41.620,-0.396,0.857,-0.031
41.630,-0.393,0.861,-0.025
41.640,-0.395,0.861,-0.010
41.650,-0.375,0.854,-0.012
41.660,-0.350,0.861,0.000
41.670,-0.348,0.865,0.008
41.680,-0.363,0.881,0.020
41.690,-0.389,0.883,0.037
41.700,-0.410,0.871,0.041
41.710,-0.404,0.871,0.045
41.719,-0.408,0.873,0.055
41.729,-0.398,0.875,0.051
41.739,-0.391,0.883,0.070
41.749,-0.375,0.898,0.082
41.759,-0.359,0.896,0.090
41.769,-0.367,0.877,0.078
41.779,-0.398,0.863,0.096
41.789,-0.395,0.846,0.098
41.799,-0.355,0.855,0.094
41.809,-0.299,0.857,0.115
41.819,-0.316,0.861,0.102
41.829,-0.350,0.854,0.113
41.838,-0.348,0.859,0.105
41.848,-0.385,0.859,0.119
41.858,-0.408,0.852,0.117
41.868,-0.445,0.834,0.117
41.878,-0.482,0.809,0.109
41.888,-0.512,0.803,0.109
41.898,-0.535,0.809,0.115
41.908,-0.553,0.801,0.117
41.918,-0.555,0.803,0.111
41.928,-0.559,0.805,0.121
41.938,-0.557,0.805,0.125
41.948,-0.539,0.809,0.125
41.958,-0.516,0.824,0.129
41.967,-0.494,0.836,0.133
41.977,-0.467,0.832,0.143
41.987,-0.459,0.828,0.123
41.997,-0.449,0.826,0.131
42.007,-0.434,0.822,0.127
42.017,-0.414,0.826,0.113
42.027,-0.361,0.830,0.100
42.037,-0.316,0.873,0.111
42.047,-0.410,0.875,0.137
42.057,-0.434,0.865,0.123
42.067,-0.396,0.857,0.131
42.077,-0.367,0.854,0.133
42.086,-0.352,0.846,0.123
42.096,-0.328,0.863,0.117
42.106,-0.328,0.879,0.133
42.116,-0.322,0.879,0.125
42.126,-0.301,0.881,0.131
42.136,-0.320,0.889,0.125
42.146,-0.334,0.885,0.123
42.156,-0.348,0.885,0.119
42.166,-0.350,0.906,0.121
42.176,-0.359,0.912,0.119
42.186,-0.375,0.918,0.119
42.196,-0.379,0.930,0.129
42.206,-0.371,0.922,0.117
42.215,-0.361,0.918,0.119
42.225,-0.355,0.914,0.125
42.235,-0.344,0.922,0.125
42.245,-0.336,0.922,0.125
42.255,-0.338,0.916,0.133
42.265,-0.338,0.887,0.117
42.275,-0.352,0.865,0.121
42.285,-0.389,0.855,0.115
42.295,-0.369,0.863,0.125
42.305,-0.328,0.859,0.137
42.315,-0.326,0.873,0.131
42.325,-0.340,0.879,0.141
42.335,-0.342,0.879,0.139
42.344,-0.336,0.867,0.127
42.354,-0.332,0.873,0.125
42.364,-0.330,0.881,0.129
42.374,-0.318,0.887,0.125
42.384,-0.318,0.891,0.127
42.394,-0.320,0.896,0.117
42.404,-0.328,0.893,0.121
42.414,-0.332,0.889,0.117
42.424,-0.336,0.893,0.113
42.434,-0.338,0.893,0.111
42.444,-0.342,0.889,0.107
42.454,-0.350,0.893,0.111
42.463,-0.354,0.895,0.115
42.473,-0.350,0.896,0.123
42.483,-0.359,0.893,0.125
42.493,-0.369,0.881,0.131
42.503,-0.379,0.861,0.125
42.513,-0.375,0.861,0.123
42.523,-0.373,0.852,0.113
42.533,-0.361,0.846,0.096
42.543,-0.287,0.896,0.109
42.553,-0.395,0.910,0.162
42.563,-0.443,0.895,0.121
42.573,-0.391,0.881,0.127
42.583,-0.357,0.861,0.133
42.592,-0.389,0.850,0.145
42.602,-0.373,0.871,0.125
42.612,-0.359,0.877,0.133
42.622,-0.379,0.877,0.133
42.632,-0.379,0.879,0.145
42.642,-0.361,0.889,0.143
42.652,-0.348,0.898,0.139
42.662,-0.324,0.893,0.143
42.672,-0.303,0.885,0.137
42.682,-0.281,0.887,0.141
42.692,-0.283,0.885,0.143
42.702,-0.303,0.881,0.139
42.712,-0.307,0.883,0.143
42.721,-0.314,0.885,0.141
42.731,-0.326,0.883,0.143
42.741,-0.348,0.889,0.146
42.751,-0.354,0.879,0.145
42.761,-0.355,0.857,0.152
42.771,-0.359,0.857,0.156
42.781,-0.359,0.863,0.156
42.791,-0.352,0.883,0.156
42.801,-0.350,0.881,0.148
42.811,-0.332,0.895,0.137
42.821,-0.316,0.904,0.133
42.831,-0.324,0.904,0.127
42.840,-0.332,0.896,0.119
42.850,-0.338,0.891,0.111
42.860,-0.328,0.896,0.102
42.870,-0.311,0.906,0.096
42.880,-0.311,0.914,0.096
42.890,-0.316,0.918,0.088
42.900,-0.311,0.922,0.076
42.910,-0.305,0.908,0.086
42.920,-0.301,0.916,0.082
42.930,-0.293,0.926,0.084
42.940,-0.283,0.922,0.078
42.950,-0.277,0.928,0.074
42.960,-0.271,0.930,0.074
42.969,-0.264,0.918,0.062
42.979,-0.273,0.908,0.068
42.989,-0.299,0.904,0.059
42.999,-0.322,0.895,0.064
43.009,-0.350,0.906,0.068
43.019,-0.354,0.912,0.064
43.029,-0.355,0.902,0.078
43.039,-0.363,0.900,0.074
43.049,-0.332,0.895,0.068
43.059,-0.324,0.902,0.076
43.069,-0.316,0.914,0.086
43.079,-0.305,0.914,0.084
43.088,-0.299,0.916,0.084
43.098,-0.291,0.922,0.078
43.108,-0.295,0.930,0.080
43.118,-0.289,0.922,0.086
43.128,-0.289,0.908,0.092
43.138,-0.297,0.900,0.090
43.148,-0.316,0.908,0.090
43.158,-0.338,0.893,0.094
43.168,-0.355,0.869,0.094
43.178,-0.373,0.869,0.090
43.188,-0.393,0.854,0.092
43.198,-0.402,0.854,0.084
43.208,-0.396,0.891,0.098
43.217,-0.385,0.900,0.107
43.227,-0.365,0.906,0.109
43.237,-0.361,0.895,0.121
43.247,-0.369,0.871,0.119
43.257,-0.393,0.857,0.131
43.267,-0.400,0.846,0.135
43.277,-0.408,0.848,0.146
43.287,-0.402,0.848,0.152
43.297,-0.400,0.855,0.160
43.307,-0.383,0.867,0.168
43.317,-0.359,0.875,0.174
43.327,-0.336,0.873,0.178
43.337,-0.314,0.871,0.182
43.346,-0.318,0.875,0.180
43.356,-0.316,0.869,0.180
43.366,-0.316,0.859,0.184
43.376,-0.320,0.863,0.184
43.386,-0.318,0.879,0.189
43.396,-0.312,0.887,0.189
43.406,-0.303,0.891,0.193
43.416,-0.293,0.896,0.195
43.426,-0.289,0.906,0.191
43.436,-0.291,0.898,0.191
43.446,-0.285,0.896,0.191
43.456,-0.285,0.885,0.186
43.465,-0.271,0.887,0.191
43.475,-0.268,0.898,0.197
43.485,-0.258,0.902,0.193
43.495,-0.256,0.906,0.191
43.505,-0.246,0.904,0.195
43.515,-0.254,0.902,0.188
43.525,-0.256,0.908,0.191
43.535,-0.254,0.912,0.191
43.545,-0.246,0.912,0.189
43.555,-0.240,0.910,0.188
43.565,-0.236,0.904,0.186
43.575,-0.250,0.895,0.188
43.585,-0.275,0.889,0.191
43.594,-0.285,0.889,0.191
43.604,-0.279,0.893,0.191
43.614,-0.271,0.893,0.189
43.624,-0.281,0.896,0.195
43.634,-0.271,0.889,0.195
43.644,-0.277,0.887,0.199
43.654,-0.289,0.881,0.195
43.664,-0.285,0.881,0.197
43.674,-0.289,0.883,0.201
43.684,-0.305,0.883,0.207
43.694,-0.307,0.881,0.197
43.704,-0.305,0.889,0.203
43.713,-0.299,0.898,0.195
43.723,-0.301,0.908,0.203
43.733,-0.303,0.912,0.205
43.743,-0.303,0.910,0.203
43.753,-0.320,0.906,0.197
43.763,-0.348,0.895,0.197
43.773,-0.354,0.891,0.189
43.783,-0.342,0.883,0.191
43.793,-0.357,0.887,0.199
43.803,-0.367,0.896,0.195
43.813,-0.357,0.891,0.201
43.823,-0.336,0.898,0.191
43.833,-0.328,0.902,0.199
43.842,-0.314,0.900,0.195
43.852,-0.301,0.904,0.203
43.862,-0.287,0.900,0.201
43.872,-0.283,0.889,0.207
43.882,-0.291,0.885,0.201
43.892,-0.273,0.881,0.203
43.902,-0.275,0.889,0.213
43.912,-0.293,0.893,0.213
43.922,-0.270,0.893,0.211
43.932,-0.242,0.887,0.213
43.942,-0.262,0.895,0.221
43.952,-0.268,0.891,0.215
43.962,-0.277,0.881,0.213
43.971,-0.291,0.873,0.215
43.981,-0.293,0.881,0.211
43.991,-0.289,0.893,0.215
44.001,-0.285,0.893,0.219
44.011,-0.271,0.908,0.225
44.021,-0.264,0.916,0.232
44.031,-0.262,0.898,0.232
44.041,-0.273,0.879,0.234
44.051,-0.293,0.861,0.232
44.061,-0.318,0.850,0.236
44.071,-0.334,0.836,0.232
44.081,-0.338,0.834,0.230
44.090,-0.344,0.850,0.225
44.100,-0.348,0.861,0.217
44.110,-0.330,0.859,0.209
44.120,-0.324,0.869,0.205
44.130,-0.324,0.873,0.209
44.140,-0.330,0.871,0.195
44.150,-0.342,0.863,0.197
44.160,-0.355,0.863,0.189
44.170,-0.367,0.857,0.184
44.180,-0.373,0.854,0.172
44.190,-0.385,0.854,0.160
44.200,-0.393,0.859,0.154
44.210,-0.398,0.869,0.141
44.219,-0.381,0.848,0.127
44.229,-0.348,0.859,0.115
44.239,-0.371,0.871,0.131
44.249,-0.422,0.875,0.131
44.259,-0.434,0.859,0.119
44.269,-0.402,0.850,0.109
44.279,-0.404,0.844,0.100
44.289,-0.406,0.836,0.088
44.299,-0.402,0.842,0.084
44.309,-0.422,0.850,0.076
44.319,-0.436,0.852,0.070
44.329,-0.445,0.852,0.064
44.339,-0.443,0.855,0.057
44.348,-0.441,0.854,0.053
44.358,-0.436,0.852,0.043
44.368,-0.443,0.861,0.043
44.378,-0.453,0.863,0.037
44.388,-0.451,0.854,0.031
44.398,-0.436,0.855,0.029
44.408,-0.439,0.859,0.025
44.418,-0.434,0.859,0.020
44.428,-0.441,0.848,0.018
44.438,-0.457,0.844,0.014
44.448,-0.459,0.850,0.012
44.458,-0.473,0.848,0.020
44.467,-0.475,0.852,0.010
44.477,-0.477,0.848,0.014
44.487,-0.482,0.854,0.006
44.497,-0.480,0.850,0.002
44.507,-0.492,0.838,0.000
44.517,-0.506,0.830,-0.008
44.527,-0.510,0.824,-0.008
44.537,-0.523,0.820,-0.012
44.547,-0.531,0.828,-0.014
44.557,-0.535,0.820,-0.010
44.567,-0.527,0.822,-0.016
44.577,-0.537,0.816,-0.016
44.587,-0.521,0.824,-0.029
44.596,-0.518,0.816,-0.029
44.606,-0.521,0.811,-0.029
44.616,-0.531,0.816,-0.033
44.626,-0.529,0.826,-0.029
44.636,-0.539,0.824,-0.027
44.646,-0.545,0.836,-0.025
44.656,-0.559,0.826,-0.025
44.666,-0.559,0.812,-0.035
44.676,-0.564,0.799,-0.025
44.686,-0.566,0.789,-0.018
44.696,-0.574,0.773,-0.025
44.706,-0.574,0.773,-0.029
44.715,-0.574,0.791,-0.031
44.725,-0.564,0.793,-0.029
44.735,-0.562,0.787,-0.027
44.745,-0.572,0.791,-0.023
44.755,-0.566,0.787,-0.029
44.765,-0.568,0.781,-0.021
44.775,-0.576,0.773,-0.025
44.785,-0.576,0.777,-0.023
44.795,-0.576,0.777,-0.023
44.805,-0.580,0.779,-0.020
44.815,-0.576,0.781,-0.014
44.825,-0.580,0.775,-0.018
44.835,-0.582,0.770,-0.021
44.844,-0.582,0.764,-0.016
44.854,-0.584,0.754,-0.018
44.864,-0.582,0.756,-0.025
44.874,-0.580,0.764,-0.029
44.884,-0.584,0.773,-0.025
44.894,-0.580,0.773,-0.023
44.904,-0.586,0.777,-0.018
44.914,-0.598,0.768,-0.018
44.924,-0.600,0.766,-0.029
44.934,-0.594,0.770,-0.025
44.944,-0.590,0.773,-0.031
44.954,-0.568,0.771,-0.033
44.964,-0.600,0.752,-0.027
44.973,-0.525,0.768,-0.057
44.983,-0.557,0.809,-0.018
44.993,-0.637,0.799,-0.018
45.003,-0.627,0.775,-0.039
45.013,-0.596,0.771,-0.027
45.023,-0.588,0.775,-0.039
45.033,-0.584,0.783,-0.041
45.043,-0.578,0.758,-0.039
45.053,-0.572,0.758,-0.041
45.063,-0.578,0.762,-0.033
45.073,-0.582,0.775,-0.039
45.083,-0.580,0.783,-0.035
45.092,-0.600,0.787,-0.045
45.102,-0.592,0.773,-0.041
45.112,-0.520,0.736,-0.045
45.122,-0.584,0.799,-0.035
45.132,-0.578,0.777,-0.037
45.142,-0.582,0.768,-0.043
45.152,-0.594,0.771,-0.039
45.162,-0.580,0.768,-0.049
45.172,-0.570,0.770,-0.045
45.182,-0.562,0.771,-0.045
45.192,-0.539,0.781,-0.049
45.202,-0.578,0.795,-0.025
45.212,-0.561,0.785,-0.041
45.221,-0.596,0.777,-0.023
45.231,-0.568,0.768,-0.047
45.241,-0.578,0.773,-0.025
45.251,-0.582,0.756,-0.035
45.261,-0.564,0.760,-0.045
45.271,-0.562,0.773,-0.049
45.281,-0.568,0.791,-0.057
45.291,-0.541,0.789,-0.059
45.301,-0.557,0.781,-0.059
45.311,-0.574,0.787,-0.061
45.321,-0.598,0.801,-0.051
45.331,-0.594,0.807,-0.051
45.340,-0.574,0.797,-0.053
45.350,-0.574,0.791,-0.055
45.360,-0.562,0.766,-0.059
45.370,-0.553,0.746,-0.061
45.380,-0.559,0.738,-0.059
45.390,-0.564,0.740,-0.062
45.400,-0.574,0.756,-0.059
45.410,-0.543,0.766,-0.074
45.420,-0.541,0.787,-0.064
45.430,-0.543,0.791,-0.055
45.440,-0.580,0.781,-0.068
45.450,-0.623,0.773,-0.082
45.460,-0.604,0.773,-0.078
45.469,-0.598,0.779,-0.076
45.479,-0.592,0.785,-0.066
45.489,-0.588,0.775,-0.068
45.499,-0.578,0.768,-0.078
45.509,-0.533,0.758,-0.074
45.519,-0.562,0.756,-0.080
45.529,-0.613,0.738,-0.070
45.539,-0.605,0.754,-0.086
45.549,-0.584,0.789,-0.082
45.559,-0.586,0.777,-0.082
45.569,-0.574,0.771,-0.092
45.579,-0.561,0.775,-0.088
45.589,-0.537,0.762,-0.102
45.598,-0.555,0.754,-0.104
45.608,-0.518,0.773,-0.123
45.618,-0.584,0.793,-0.080
45.628,-0.617,0.785,-0.092
45.638,-0.623,0.768,-0.100
45.648,-0.615,0.748,-0.094
45.658,-0.605,0.748,-0.105
45.668,-0.592,0.768,-0.111
45.678,-0.588,0.762,-0.096
45.688,-0.582,0.773,-0.105
45.698,-0.588,0.773,-0.096
45.708,-0.574,0.773,-0.102
45.717,-0.582,0.766,-0.102
45.727,-0.586,0.758,-0.100
45.737,-0.604,0.740,-0.104
45.747,-0.592,0.740,-0.105
45.757,-0.594,0.746,-0.107
45.767,-0.584,0.775,-0.111
45.777,-0.580,0.779,-0.113
45.787,-0.580,0.768,-0.115
45.797,-0.572,0.777,-0.127
45.807,-0.584,0.775,-0.113
45.817,-0.566,0.783,-0.111
45.827,-0.578,0.762,-0.123
45.837,-0.592,0.762,-0.115
45.846,-0.584,0.758,-0.119
45.856,-0.580,0.781,-0.123
45.866,-0.598,0.766,-0.123
45.876,-0.594,0.752,-0.119
45.886,-0.598,0.732,-0.104
45.896,-0.602,0.752,-0.131
45.906,-0.561,0.787,-0.133
45.916,-0.564,0.807,-0.129
45.926,-0.588,0.789,-0.133
45.936,-0.600,0.768,-0.131
45.946,-0.631,0.742,-0.123
45.956,-0.615,0.762,-0.133
45.966,-0.598,0.754,-0.119
45.975,-0.592,0.752,-0.129
45.985,-0.562,0.775,-0.133
45.995,-0.564,0.758,-0.139
46.005,-0.592,0.709,-0.135
46.015,-0.584,0.693,-0.139
46.025,-0.588,0.744,-0.135
46.035,-0.598,0.764,-0.154
46.045,-0.604,0.719,-0.143
46.055,-0.600,0.688,-0.152
46.065,-0.598,0.721,-0.164
46.075,-0.594,0.740,-0.160
46.085,-0.588,0.734,-0.166
46.094,-0.590,0.750,-0.170
46.104,-0.580,0.768,-0.160
46.114,-0.582,0.773,-0.164
46.124,-0.586,0.777,-0.158
46.134,-0.594,0.762,-0.154
46.144,-0.588,0.732,-0.152
46.154,-0.584,0.738,-0.150
46.164,-0.588,0.729,-0.146
46.174,-0.582,0.717,-0.145
46.184,-0.580,0.719,-0.145
46.194,-0.584,0.725,-0.143
46.204,-0.564,0.744,-0.145
46.214,-0.566,0.768,-0.145
46.223,-0.564,0.783,-0.152
46.233,-0.586,0.785,-0.146
46.243,-0.582,0.768,-0.152
46.253,-0.568,0.758,-0.158
46.263,-0.525,0.775,-0.154
46.273,-0.598,0.779,-0.129
46.283,-0.621,0.770,-0.133
46.293,-0.586,0.764,-0.129
46.303,-0.570,0.781,-0.141
46.313,-0.564,0.793,-0.150
46.323,-0.564,0.773,-0.139
46.333,-0.582,0.762,-0.137
46.342,-0.623,0.773,-0.129
46.352,-0.562,0.764,-0.127
46.362,-0.578,0.768,-0.117
46.372,-0.576,0.762,-0.109
46.382,-0.576,0.777,-0.113
46.392,-0.568,0.789,-0.109
46.402,-0.561,0.783,-0.121
46.412,-0.537,0.742,-0.111
46.422,-0.469,0.822,-0.104
46.432,-0.541,0.826,-0.072
46.442,-0.549,0.791,-0.117
46.452,-0.537,0.795,-0.088
46.462,-0.529,0.799,-0.090
46.471,-0.541,0.781,-0.094
46.481,-0.549,0.773,-0.094
46.491,-0.547,0.768,-0.100
46.501,-0.535,0.771,-0.096
46.511,-0.539,0.779,-0.094
46.521,-0.533,0.795,-0.098
46.531,-0.527,0.807,-0.088
46.541,-0.529,0.801,-0.088
46.551,-0.547,0.793,-0.092
46.561,-0.551,0.781,-0.090
46.571,-0.561,0.777,-0.096
46.581,-0.553,0.777,-0.094
46.591,-0.545,0.781,-0.090
46.600,-0.549,0.793,-0.086
46.610,-0.549,0.801,-0.092
46.620,-0.549,0.791,-0.084
46.630,-0.553,0.803,-0.090
46.640,-0.566,0.789,-0.086
46.650,-0.562,0.777,-0.094
46.660,-0.557,0.781,-0.096
46.670,-0.531,0.775,-0.098
46.680,-0.520,0.791,-0.094
46.690,-0.549,0.793,-0.098
46.700,-0.547,0.787,-0.096
46.710,-0.551,0.795,-0.094
46.719,-0.547,0.793,-0.096
46.729,-0.557,0.787,-0.096
46.739,-0.551,0.787,-0.096
46.749,-0.553,0.793,-0.092
46.759,-0.551,0.789,-0.100
46.769,-0.547,0.795,-0.096
46.779,-0.551,0.795,-0.094
46.789,-0.553,0.797,-0.090
46.799,-0.555,0.799,-0.096
46.809,-0.555,0.803,-0.092
46.819,-0.557,0.812,-0.088
46.829,-0.555,0.814,-0.084
46.839,-0.547,0.805,-0.082
46.848,-0.541,0.803,-0.082
46.858,-0.539,0.797,-0.076
46.868,-0.543,0.795,-0.070
46.878,-0.549,0.791,-0.066
46.888,-0.559,0.791,-0.064
46.898,-0.566,0.795,-0.059
46.908,-0.562,0.797,-0.068
46.918,-0.547,0.789,-0.062
46.928,-0.533,0.793,-0.057
46.938,-0.514,0.791,-0.062
46.948,-0.445,0.814,-0.062
46.958,-0.494,0.850,-0.027
46.967,-0.590,0.846,-0.020
46.977,-0.576,0.828,-0.023
46.987,-0.521,0.822,-0.018
46.997,-0.506,0.818,-0.016
47.007,-0.490,0.811,-0.008
47.017,-0.469,0.820,0.004
47.027,-0.447,0.828,0.010
47.037,-0.459,0.826,0.018
47.047,-0.475,0.805,0.021
47.057,-0.475,0.801,0.021
47.067,-0.471,0.807,0.029
47.077,-0.467,0.818,0.037
47.087,-0.451,0.830,0.043
47.096,-0.412,0.846,0.047
47.106,-0.383,0.855,0.047
47.116,-0.377,0.873,0.039
47.126,-0.369,0.883,0.043
47.136,-0.367,0.887,0.045
47.146,-0.359,0.887,0.043
47.156,-0.359,0.883,0.049
47.166,-0.361,0.883,0.059
47.176,-0.348,0.889,0.064
47.186,-0.330,0.887,0.062
47.196,-0.316,0.891,0.062
47.206,-0.316,0.889,0.061
47.216,-0.303,0.879,0.061
47.225,-0.291,0.877,0.057
47.235,-0.291,0.885,0.061
47.245,-0.293,0.900,0.066
47.255,-0.283,0.916,0.076
47.265,-0.273,0.920,0.076
47.275,-0.254,0.928,0.074
47.285,-0.248,0.916,0.078
47.295,-0.244,0.912,0.078
47.305,-0.246,0.910,0.080
47.315,-0.232,0.895,0.072
47.325,-0.244,0.885,0.068
47.335,-0.264,0.881,0.061
47.344,-0.275,0.889,0.061
47.354,-0.270,0.887,0.066
47.364,-0.240,0.900,0.064
47.374,-0.211,0.916,0.064
47.384,-0.199,0.916,0.064
47.394,-0.178,0.908,0.064
47.404,-0.166,0.914,0.059
47.414,-0.164,0.910,0.055
47.424,-0.172,0.898,0.055
47.434,-0.176,0.898,0.045
47.444,-0.174,0.912,0.053
47.454,-0.174,0.928,0.043
47.464,-0.164,0.938,0.041
47.473,-0.156,0.945,0.031
47.483,-0.152,0.947,0.031
47.493,-0.162,0.939,0.029
47.503,-0.166,0.932,0.020
47.513,-0.174,0.914,0.014
47.523,-0.176,0.912,0.012
47.533,-0.178,0.922,0.008
47.543,-0.166,0.930,0.000
47.553,-0.154,0.936,-0.008
47.563,-0.139,0.945,-0.012
47.573,-0.125,0.949,-0.018
47.583,-0.119,0.955,-0.010
47.593,-0.113,0.951,-0.012
47.602,-0.115,0.939,-0.016
47.612,-0.115,0.932,-0.020
47.622,-0.123,0.928,-0.025
47.632,-0.129,0.932,-0.027
47.642,-0.131,0.934,-0.033
47.652,-0.109,0.916,-0.045
47.662,-0.041,0.908,-0.061
47.672,-0.055,0.943,-0.037
47.682,-0.148,0.969,-0.041
47.692,-0.154,0.963,-0.057
47.702,-0.127,0.941,-0.053
47.712,-0.117,0.924,-0.064
47.721,-0.121,0.928,-0.072
47.731,-0.111,0.924,-0.076
47.741,-0.109,0.924,-0.078
47.751,-0.109,0.938,-0.082
47.761,-0.111,0.941,-0.076
47.771,-0.107,0.949,-0.076
47.781,-0.111,0.961,-0.064
47.791,-0.107,0.938,-0.082
47.801,-0.115,0.943,-0.084
47.811,-0.139,0.930,-0.090
47.821,-0.156,0.908,-0.104
47.831,-0.162,0.898,-0.115
47.841,-0.152,0.893,-0.127
47.850,-0.148,0.891,-0.133
47.860,-0.145,0.885,-0.139
47.870,-0.139,0.891,-0.143
47.880,-0.139,0.902,-0.141
47.890,-0.139,0.918,-0.139
47.900,-0.133,0.914,-0.145
47.910,-0.137,0.920,-0.152
47.920,-0.137,0.936,-0.152
47.930,-0.146,0.941,-0.156
47.940,-0.139,0.941,-0.162
47.950,-0.131,0.939,-0.162
47.960,-0.129,0.936,-0.168
47.969,-0.125,0.926,-0.174
47.979,-0.105,0.934,-0.172
47.989,-0.096,0.932,-0.176
47.999,-0.104,0.930,-0.178
48.009,-0.105,0.938,-0.178
48.019,-0.113,0.947,-0.184
48.029,-0.111,0.943,-0.184
48.039,-0.125,0.941,-0.182
48.049,-0.133,0.924,-0.189
48.059,-0.127,0.916,-0.186
48.069,-0.113,0.912,-0.193
48.079,-0.094,0.926,-0.191
48.089,-0.092,0.926,-0.188
48.098,-0.086,0.922,-0.193
48.108,-0.092,0.920,-0.195
48.118,-0.105,0.906,-0.197
48.128,-0.117,0.914,-0.199
48.138,-0.123,0.922,-0.193
48.148,-0.133,0.928,-0.193
48.158,-0.137,0.936,-0.195
48.168,-0.131,0.934,-0.199
48.178,-0.123,0.930,-0.197
48.188,-0.121,0.924,-0.195
48.198,-0.121,0.914,-0.193
48.208,-0.119,0.912,-0.193
48.218,-0.123,0.910,-0.189
48.227,-0.129,0.910,-0.189
48.237,-0.135,0.918,-0.191
48.247,-0.133,0.918,-0.189
48.257,-0.131,0.918,-0.189
48.267,-0.129,0.920,-0.189
48.277,-0.129,0.918,-0.189
48.287,-0.127,0.922,-0.186
48.297,-0.123,0.922,-0.184
48.307,-0.139,0.920,-0.184
48.317,-0.143,0.920,-0.180
48.327,-0.150,0.934,-0.180
48.337,-0.141,0.934,-0.182
48.346,-0.129,0.920,-0.176
48.356,-0.127,0.912,-0.180
48.366,-0.127,0.914,-0.176
48.376,-0.129,0.912,-0.172
48.386,-0.148,0.918,-0.164
48.396,-0.158,0.926,-0.162
48.406,-0.145,0.922,-0.154
48.416,-0.141,0.922,-0.156
48.426,-0.145,0.918,-0.152
48.436,-0.145,0.914,-0.152
48.446,-0.148,0.918,-0.154
48.456,-0.148,0.918,-0.146
48.466,-0.152,0.912,-0.146
48.475,-0.164,0.902,-0.137
48.485,-0.156,0.906,-0.137
48.495,-0.150,0.910,-0.131
48.505,-0.154,0.914,-0.129
48.515,-0.160,0.914,-0.129
48.525,-0.152,0.918,-0.129
48.535,-0.154,0.922,-0.123
48.545,-0.156,0.922,-0.121
48.555,-0.160,0.918,-0.119
48.565,-0.164,0.916,-0.113
48.575,-0.162,0.916,-0.111
48.585,-0.164,0.920,-0.104
48.594,-0.168,0.924,-0.105
48.604,-0.168,0.926,-0.102
48.614,-0.164,0.920,-0.100
48.624,-0.166,0.924,-0.100
48.634,-0.160,0.916,-0.102
48.644,-0.156,0.910,-0.096
48.654,-0.154,0.922,-0.092
48.664,-0.160,0.928,-0.084
48.674,-0.152,0.924,-0.088
48.684,-0.164,0.924,-0.084
48.694,-0.174,0.924,-0.084
48.704,-0.176,0.908,-0.084
48.714,-0.178,0.908,-0.086
48.723,-0.168,0.912,-0.080
48.733,-0.170,0.918,-0.084
48.743,-0.168,0.916,-0.080
48.753,-0.156,0.920,-0.074
48.763,-0.152,0.928,-0.072
48.773,-0.168,0.930,-0.068
48.783,-0.182,0.924,-0.062
48.793,-0.189,0.918,-0.066
48.803,-0.178,0.912,-0.064
48.813,-0.168,0.908,-0.068
48.823,-0.172,0.904,-0.072
48.833,-0.189,0.918,-0.064
48.843,-0.189,0.920,-0.064
48.852,-0.176,0.920,-0.062
48.862,-0.180,0.926,-0.066
48.872,-0.180,0.928,-0.070
48.882,-0.182,0.926,-0.064
48.892,-0.178,0.918,-0.072
48.902,-0.170,0.920,-0.066
48.912,-0.170,0.932,-0.066
48.922,-0.174,0.928,-0.066
48.932,-0.170,0.924,-0.064
48.942,-0.174,0.918,-0.068
48.952,-0.176,0.916,-0.070
48.962,-0.176,0.916,-0.070
48.971,-0.176,0.920,-0.074
48.981,-0.174,0.924,-0.072
48.991,-0.176,0.926,-0.072
49.001,-0.178,0.926,-0.074
49.011,-0.178,0.926,-0.074
49.021,-0.178,0.922,-0.072
49.031,-0.184,0.920,-0.076
49.041,-0.178,0.918,-0.078
49.051,-0.184,0.916,-0.080
49.061,-0.186,0.918,-0.078
49.071,-0.184,0.916,-0.078
49.081,-0.186,0.918,-0.076
49.091,-0.180,0.922,-0.078
49.100,-0.176,0.926,-0.078
49.110,-0.178,0.920,-0.080
49.120,-0.178,0.918,-0.086
49.130,-0.172,0.924,-0.086
49.140,-0.168,0.918,-0.090
49.150,-0.137,0.924,-0.088
49.160,-0.172,0.918,-0.068
49.170,-0.230,0.938,-0.090
49.180,-0.201,0.934,-0.084
49.190,-0.150,0.934,-0.080
49.200,-0.152,0.926,-0.090
49.210,-0.158,0.916,-0.088
49.220,-0.166,0.916,-0.084
49.229,-0.174,0.938,-0.086
49.239,-0.168,0.932,-0.084
49.249,-0.166,0.926,-0.086
49.259,-0.180,0.926,-0.080
49.269,-0.178,0.924,-0.086
49.279,-0.180,0.918,-0.084
49.289,-0.184,0.916,-0.080
49.299,-0.180,0.924,-0.084
49.309,-0.174,0.924,-0.082
49.319,-0.182,0.926,-0.084
49.329,-0.182,0.920,-0.082
49.339,-0.180,0.926,-0.082
49.348,-0.176,0.920,-0.084
49.358,-0.174,0.924,-0.084
49.368,-0.176,0.920,-0.086
49.378,-0.172,0.920,-0.082
49.388,-0.178,0.926,-0.080
49.398,-0.172,0.914,-0.086
49.408,-0.176,0.922,-0.082
49.418,-0.176,0.924,-0.082
49.428,-0.176,0.922,-0.086
49.438,-0.174,0.926,-0.084
49.448,-0.174,0.928,-0.084
49.458,-0.172,0.924,-0.082
49.468,-0.176,0.920,-0.080
49.477,-0.170,0.918,-0.082
49.487,-0.168,0.924,-0.084
49.497,-0.186,0.930,-0.078
49.507,-0.180,0.926,-0.084
49.517,-0.170,0.916,-0.082
49.527,-0.184,0.918,-0.084
49.537,-0.184,0.922,-0.088
49.547,-0.178,0.918,-0.086
49.557,-0.178,0.926,-0.088
49.567,-0.189,0.928,-0.080
49.577,-0.180,0.926,-0.090
49.587,-0.180,0.924,-0.088
49.596,-0.191,0.924,-0.088
49.606,-0.178,0.914,-0.092
49.616,-0.176,0.912,-0.090
49.626,-0.178,0.916,-0.094
49.636,-0.166,0.922,-0.090
49.646,-0.162,0.930,-0.092
49.656,-0.162,0.934,-0.086
49.666,-0.186,0.930,-0.090
49.676,-0.182,0.928,-0.090
49.686,-0.199,0.922,-0.080
49.696,-0.225,0.920,-0.086
49.706,-0.217,0.904,-0.088
49.716,-0.201,0.891,-0.092
49.725,-0.188,0.912,-0.092
49.735,-0.189,0.924,-0.080
49.745,-0.197,0.922,-0.090
49.755,-0.180,0.920,-0.086
49.765,-0.186,0.934,-0.082
49.775,-0.188,0.924,-0.084
49.785,-0.188,0.912,-0.082
49.795,-0.178,0.916,-0.090
49.805,-0.182,0.922,-0.086
49.815,-0.182,0.924,-0.076
49.825,-0.191,0.920,-0.076
49.835,-0.189,0.928,-0.084
49.845,-0.193,0.930,-0.080
49.854,-0.193,0.910,-0.084
49.864,-0.199,0.904,-0.090
49.874,-0.195,0.910,-0.088
49.884,-0.191,0.912,-0.088
49.894,-0.189,0.918,-0.086
49.904,-0.180,0.924,-0.086
49.914,-0.174,0.922,-0.088
49.924,-0.178,0.922,-0.084
49.934,-0.186,0.926,-0.088
49.944,-0.189,0.920,-0.084
49.954,-0.186,0.914,-0.092
49.964,-0.197,0.916,-0.094
49.973,-0.197,0.916,-0.092
49.983,-0.195,0.916,-0.090
49.993,-0.201,0.920,-0.088
50.003,-0.201,0.922,-0.082
50.013,-0.193,0.920,-0.090
50.023,-0.188,0.918,-0.096
50.033,-0.172,0.918,-0.102
50.043,-0.191,0.922,-0.098
50.053,-0.180,0.922,-0.098
50.063,-0.176,0.916,-0.086
50.073,-0.232,0.902,-0.092
50.083,-0.236,0.902,-0.098
50.093,-0.209,0.906,-0.090
50.102,-0.197,0.910,-0.098
50.112,-0.207,0.912,-0.098
50.122,-0.197,0.912,-0.102
50.132,-0.193,0.916,-0.105
50.142,-0.201,0.922,-0.105
50.152,-0.209,0.924,-0.102
50.162,-0.217,0.922,-0.105
50.172,-0.223,0.916,-0.104
50.182,-0.215,0.906,-0.107
50.192,-0.213,0.914,-0.107
50.202,-0.215,0.912,-0.107
50.212,-0.215,0.908,-0.109
50.221,-0.221,0.906,-0.111
50.231,-0.223,0.906,-0.111
50.241,-0.227,0.908,-0.115
50.251,-0.221,0.904,-0.119
50.261,-0.211,0.910,-0.119
50.271,-0.219,0.914,-0.121
50.281,-0.211,0.910,-0.119
50.291,-0.221,0.912,-0.119
50.301,-0.219,0.912,-0.121
50.311,-0.221,0.914,-0.123
50.321,-0.229,0.912,-0.121
50.331,-0.223,0.912,-0.127
50.341,-0.219,0.918,-0.127
50.350,-0.223,0.918,-0.127
50.360,-0.223,0.908,-0.125
50.370,-0.221,0.906,-0.127
50.380,-0.223,0.912,-0.123
50.390,-0.225,0.912,-0.125
50.400,-0.225,0.912,-0.125
50.410,-0.229,0.918,-0.125
